key_resp_6.keys,key_resp_6.rt,key_resp_7.keys,key_resp_7.rt,key_resp_8.keys,key_resp_8.rt,key_resp_10.keys,key_resp_10.rt,key_resp_9.keys,key_resp_9.rt,key_resp_14.keys,key_resp_14.rt,key_resp_3.keys,key_resp_3.rt,key_resp_5.keys,key_resp_5.rt,key_resp.keys,key_resp.corr,key_resp.rt,key_resp_12.keys,key_resp_12.rt,practice.thisRepN,practice.thisTrialN,practice.thisN,practice.thisIndex,practice.ran,ImageFile,tarPos,targPres,numDist,targetName,correctAns,difficulty,participant,age,sex,date,expName,psychopyVersion,OS,frameRate,key_resp_13.keys,key_resp_13.rt,key_resp_4.keys,key_resp_4.rt,trials.thisRepN,trials.thisTrialN,trials.thisN,trials.thisIndex,trials.ran,trials_2.thisRepN,trials_2.thisTrialN,trials_2.thisN,trials_2.thisIndex,trials_2.ran,condsFile,targName,instructionText,stimExample,posit,size,stimSize,practiceFile,key_resp_15.keys,key_resp_15.rt
space,1.940575,space,3.71344,space,5.71211,space,11.704245,space,2.15702,space,3.50903,space,10.648175,space,3.238645,p,0,0.75258,space,2.1262,0,0,0,7,1,0_targ_4_dist_green/trial2.png,,0,4,greenverival,a,easy,5d68c8aa40524c00189e8ac2,29,Male,2021-05-03_11h11.18.916,search_v5,2021.1.2,Win32,60.77180188,,,,,,,,,,,,,,,,,,,,,,,,
,,,,,,,,,,,,,,,,p,1,0.69896,space,1.706055,0,1,1,4,1,15_dist_green/trial1.png,,1,15,greenverival,p,hard,5d68c8aa40524c00189e8ac2,29,Male,2021-05-03_11h11.18.916,search_v5,2021.1.2,Win32,60.77180188,,,,,,,,,,,,,,,,,,,,,,,,
,,,,,,,,,,,,,,,,p,1,0.836795,space,1.36625,0,2,2,3,1,9_dist_green/trial2.png,,1,9,greenverival,p,mid,5d68c8aa40524c00189e8ac2,29,Male,2021-05-03_11h11.18.916,search_v5,2021.1.2,Win32,60.77180188,,,,,,,,,,,,,,,,,,,,,,,,
,,,,,,,,,,,,,,,,p,0,0.759335,space,1.670055,0,3,3,8,1,0_targ_10_dist_green/trial1.png,,0,10,greenverival,a,mid,5d68c8aa40524c00189e8ac2,29,Male,2021-05-03_11h11.18.916,search_v5,2021.1.2,Win32,60.77180188,,,,,,,,,,,,,,,,,,,,,,,,
,,,,,,,,,,,,,,,,p,0,0.91039,space,81.87586,0,4,4,9,1,0_targ_10_dist_green/trial2.png,,0,10,greenverival,a,mid,5d68c8aa40524c00189e8ac2,29,Male,2021-05-03_11h11.18.916,search_v5,2021.1.2,Win32,60.77180188,,,,,,,,,,,,,,,,,,,,,,,,
,,,,,,,,,,,,,,,,p,0,2.105265,space,1.54906,0,5,5,11,1,0_targ_16_dist_green/trial2.png,,0,16,greenverival,a,hard,5d68c8aa40524c00189e8ac2,29,Male,2021-05-03_11h11.18.916,search_v5,2021.1.2,Win32,60.77180188,,,,,,,,,,,,,,,,,,,,,,,,
,,,,,,,,,,,,,,,,p,1,1.649895,space,0.791695,0,6,6,5,1,15_dist_green/trial2.png,,1,15,greenverival,p,hard,5d68c8aa40524c00189e8ac2,29,Male,2021-05-03_11h11.18.916,search_v5,2021.1.2,Win32,60.77180188,,,,,,,,,,,,,,,,,,,,,,,,
,,,,,,,,,,,,,,,,p,1,1.157115,space,0.77264,0,7,7,1,1,3_dist_green/trial2.png,,1,3,greenverival,p,easy,5d68c8aa40524c00189e8ac2,29,Male,2021-05-03_11h11.18.916,search_v5,2021.1.2,Win32,60.77180188,,,,,,,,,,,,,,,,,,,,,,,,
,,,,,,,,,,,,,,,,p,1,0.73329,space,0.693765,0,8,8,2,1,9_dist_green/trial1.png,,1,9,greenverival,p,mid,5d68c8aa40524c00189e8ac2,29,Male,2021-05-03_11h11.18.916,search_v5,2021.1.2,Win32,60.77180188,,,,,,,,,,,,,,,,,,,,,,,,
,,,,,,,,,,,,,,,,a,1,3.01251,space,0.56397,0,9,9,10,1,0_targ_16_dist_green/trial1.png,,0,16,greenverival,a,hard,5d68c8aa40524c00189e8ac2,29,Male,2021-05-03_11h11.18.916,search_v5,2021.1.2,Win32,60.77180188,,,,,,,,,,,,,,,,,,,,,,,,
,,,,,,,,,,,,,,,,a,1,0.988795,space,0.353025,0,10,10,6,1,0_targ_4_dist_green/trial1.png,,0,4,greenverival,a,easy,5d68c8aa40524c00189e8ac2,29,Male,2021-05-03_11h11.18.916,search_v5,2021.1.2,Win32,60.77180188,,,,,,,,,,,,,,,,,,,,,,,,
,,,,,,,,,,,,,,,,p,1,0.689315,space,0.412455,0,11,11,0,1,3_dist_green/trial1.png,,1,3,greenverival,p,easy,5d68c8aa40524c00189e8ac2,29,Male,2021-05-03_11h11.18.916,search_v5,2021.1.2,Win32,60.77180188,,,,,,,,,,,,,,,,,,,,,,,,
,,,,,,,,,,,,,,,,p,1,0.68131,,,,,,,,3_dist_green/trial9.png,,1,3,greenverival,p,easy,5d68c8aa40524c00189e8ac2,29,Male,2021-05-03_11h11.18.916,search_v5,2021.1.2,Win32,60.77180188,space,11.06569,space,0.54767,0,0,0,18,1,,,,,,,,,,,,,,,
,,,,,,,,,,,,,,,,a,1,0.67717,,,,,,,,0_targ_10_dist_green/trial16.png,,0,10,greenverival,a,mid,5d68c8aa40524c00189e8ac2,29,Male,2021-05-03_11h11.18.916,search_v5,2021.1.2,Win32,60.77180188,,,space,0.41393,0,1,1,117,1,,,,,,,,,,,,,,,
,,,,,,,,,,,,,,,,a,1,1.30789,,,,,,,,0_targ_16_dist_green/trial12.png,,0,16,greenverival,a,hard,5d68c8aa40524c00189e8ac2,29,Male,2021-05-03_11h11.18.916,search_v5,2021.1.2,Win32,60.77180188,,,space,0.444315,0,2,2,136,1,,,,,,,,,,,,,,,
,,,,,,,,,,,,,,,,a,1,0.789865,,,,,,,,0_targ_10_dist_green/trial18.png,,0,10,greenverival,a,mid,5d68c8aa40524c00189e8ac2,29,Male,2021-05-03_11h11.18.916,search_v5,2021.1.2,Win32,60.77180188,,,space,0.30972,0,3,3,119,1,,,,,,,,,,,,,,,
,,,,,,,,,,,,,,,,p,1,0.87466,,,,,,,,15_dist_green/trial24.png,,1,15,greenverival,p,hard,5d68c8aa40524c00189e8ac2,29,Male,2021-05-03_11h11.18.916,search_v5,2021.1.2,Win32,60.77180188,,,space,0.38627,0,4,4,79,1,,,,,,,,,,,,,,,
,,,,,,,,,,,,,,,,a,1,0.7451,,,,,,,,0_targ_10_dist_green/trial19.png,,0,10,greenverival,a,mid,5d68c8aa40524c00189e8ac2,29,Male,2021-05-03_11h11.18.916,search_v5,2021.1.2,Win32,60.77180188,,,space,0.2691,0,5,5,120,1,,,,,,,,,,,,,,,
,,,,,,,,,,,,,,,,a,1,0.5612,,,,,,,,0_targ_4_dist_green/trial9.png,,0,4,greenverival,a,easy,5d68c8aa40524c00189e8ac2,29,Male,2021-05-03_11h11.18.916,search_v5,2021.1.2,Win32,60.77180188,,,space,0.118175,0,6,6,87,1,,,,,,,,,,,,,,,
,,,,,,,,,,,,,,,,p,1,0.929325,,,,,,,,9_dist_green/trial13.png,,1,9,greenverival,p,mid,5d68c8aa40524c00189e8ac2,29,Male,2021-05-03_11h11.18.916,search_v5,2021.1.2,Win32,60.77180188,,,space,0.236415,0,7,7,45,1,,,,,,,,,,,,,,,
,,,,,,,,,,,,,,,,a,1,1.336445,,,,,,,,0_targ_4_dist_green/trial6.png,,0,4,greenverival,a,easy,5d68c8aa40524c00189e8ac2,29,Male,2021-05-03_11h11.18.916,search_v5,2021.1.2,Win32,60.77180188,,,space,0.21514,0,8,8,94,1,,,,,,,,,,,,,,,
,,,,,,,,,,,,,,,,p,1,0.861235,,,,,,,,15_dist_green/trial18.png,,1,15,greenverival,p,hard,5d68c8aa40524c00189e8ac2,29,Male,2021-05-03_11h11.18.916,search_v5,2021.1.2,Win32,60.77180188,,,space,0.220905,0,9,9,73,1,,,,,,,,,,,,,,,
,,,,,,,,,,,,,,,,a,1,0.811535,,,,,,,,0_targ_10_dist_green/trial25.png,,0,10,greenverival,a,mid,5d68c8aa40524c00189e8ac2,29,Male,2021-05-03_11h11.18.916,search_v5,2021.1.2,Win32,60.77180188,,,space,0.14067,0,10,10,126,1,,,,,,,,,,,,,,,
,,,,,,,,,,,,,,,,p,1,0.909295,,,,,,,,15_dist_green/trial14.png,,1,15,greenverival,p,hard,5d68c8aa40524c00189e8ac2,29,Male,2021-05-03_11h11.18.916,search_v5,2021.1.2,Win32,60.77180188,,,space,0.143105,0,11,11,69,1,,,,,,,,,,,,,,,
,,,,,,,,,,,,,,,,p,1,0.941465,,,,,,,,9_dist_green/trial2.png,,1,9,greenverival,p,mid,5d68c8aa40524c00189e8ac2,29,Male,2021-05-03_11h11.18.916,search_v5,2021.1.2,Win32,60.77180188,,,space,0.14099,0,12,12,3,1,,,,,,,,,,,,,,,
,,,,,,,,,,,,,,,,p,1,0.909125,,,,,,,,15_dist_green/trial2.png,,1,15,greenverival,p,hard,5d68c8aa40524c00189e8ac2,29,Male,2021-05-03_11h11.18.916,search_v5,2021.1.2,Win32,60.77180188,,,space,0.13825,0,13,13,5,1,,,,,,,,,,,,,,,
,,,,,,,,,,,,,,,,p,1,0.76984,,,,,,,,15_dist_green/trial23.png,,1,15,greenverival,p,hard,5d68c8aa40524c00189e8ac2,29,Male,2021-05-03_11h11.18.916,search_v5,2021.1.2,Win32,60.77180188,,,space,0.075325,0,14,14,78,1,,,,,,,,,,,,,,,
,,,,,,,,,,,,,,,,a,1,0.87516,,,,,,,,0_targ_16_dist_green/trial11.png,,0,16,greenverival,a,hard,5d68c8aa40524c00189e8ac2,29,Male,2021-05-03_11h11.18.916,search_v5,2021.1.2,Win32,60.77180188,,,space,0.09593,0,15,15,135,1,,,,,,,,,,,,,,,
,,,,,,,,,,,,,,,,p,1,0.94285,,,,,,,,9_dist_green/trial3.png,,1,9,greenverival,p,mid,5d68c8aa40524c00189e8ac2,29,Male,2021-05-03_11h11.18.916,search_v5,2021.1.2,Win32,60.77180188,,,space,0.11176,0,16,16,35,1,,,,,,,,,,,,,,,
,,,,,,,,,,,,,,,,p,1,1.20116,,,,,,,,3_dist_green/trial22.png,,1,3,greenverival,p,easy,5d68c8aa40524c00189e8ac2,29,Male,2021-05-03_11h11.18.916,search_v5,2021.1.2,Win32,60.77180188,,,space,0.127555,0,17,17,31,1,,,,,,,,,,,,,,,
,,,,,,,,,,,,,,,,p,1,0.67738,,,,,,,,3_dist_green/trial7.png,,1,3,greenverival,p,easy,5d68c8aa40524c00189e8ac2,29,Male,2021-05-03_11h11.18.916,search_v5,2021.1.2,Win32,60.77180188,,,space,0.088495,0,18,18,16,1,,,,,,,,,,,,,,,
,,,,,,,,,,,,,,,,p,1,0.767255,,,,,,,,15_dist_green/trial11.png,,1,15,greenverival,p,hard,5d68c8aa40524c00189e8ac2,29,Male,2021-05-03_11h11.18.916,search_v5,2021.1.2,Win32,60.77180188,,,space,0.101725,0,19,19,66,1,,,,,,,,,,,,,,,
,,,,,,,,,,,,,,,,p,1,0.778615,,,,,,,,3_dist_green/trial23.png,,1,3,greenverival,p,easy,5d68c8aa40524c00189e8ac2,29,Male,2021-05-03_11h11.18.916,search_v5,2021.1.2,Win32,60.77180188,,,space,0.02288,0,20,20,32,1,,,,,,,,,,,,,,,
,,,,,,,,,,,,,,,,p,1,0.74985,,,,,,,,3_dist_green/trial20.png,,1,3,greenverival,p,easy,5d68c8aa40524c00189e8ac2,29,Male,2021-05-03_11h11.18.916,search_v5,2021.1.2,Win32,60.77180188,,,space,0.07501,0,21,21,29,1,,,,,,,,,,,,,,,
,,,,,,,,,,,,,,,,a,1,0.69966,,,,,,,,0_targ_4_dist_green/trial18.png,,0,4,greenverival,a,easy,5d68c8aa40524c00189e8ac2,29,Male,2021-05-03_11h11.18.916,search_v5,2021.1.2,Win32,60.77180188,,,space,0.120715,0,22,22,96,1,,,,,,,,,,,,,,,
,,,,,,,,,,,,,,,,a,1,0.72594,,,,,,,,0_targ_4_dist_green/trial4.png,,0,4,greenverival,a,easy,5d68c8aa40524c00189e8ac2,29,Male,2021-05-03_11h11.18.916,search_v5,2021.1.2,Win32,60.77180188,,,space,0.124375,0,23,23,82,1,,,,,,,,,,,,,,,
,,,,,,,,,,,,,,,,a,1,0.729935,,,,,,,,0_targ_10_dist_green/trial23.png,,0,10,greenverival,a,mid,5d68c8aa40524c00189e8ac2,29,Male,2021-05-03_11h11.18.916,search_v5,2021.1.2,Win32,60.77180188,,,space,0.05231,0,24,24,124,1,,,,,,,,,,,,,,,
,,,,,,,,,,,,,,,,p,1,0.816815,,,,,,,,15_dist_green/trial4.png,,1,15,greenverival,p,hard,5d68c8aa40524c00189e8ac2,29,Male,2021-05-03_11h11.18.916,search_v5,2021.1.2,Win32,60.77180188,,,space,0.124075,0,25,25,59,1,,,,,,,,,,,,,,,
,,,,,,,,,,,,,,,,a,1,0.682795,,,,,,,,0_targ_4_dist_green/trial24.png,,0,4,greenverival,a,easy,5d68c8aa40524c00189e8ac2,29,Male,2021-05-03_11h11.18.916,search_v5,2021.1.2,Win32,60.77180188,,,space,0.074895,0,26,26,102,1,,,,,,,,,,,,,,,
,,,,,,,,,,,,,,,,a,1,0.694685,,,,,,,,0_targ_10_dist_green/trial8.png,,0,10,greenverival,a,mid,5d68c8aa40524c00189e8ac2,29,Male,2021-05-03_11h11.18.916,search_v5,2021.1.2,Win32,60.77180188,,,space,0.10468,0,27,27,109,1,,,,,,,,,,,,,,,
,,,,,,,,,,,,,,,,a,1,0.62882,,,,,,,,0_targ_4_dist_green/trial17.png,,0,4,greenverival,a,easy,5d68c8aa40524c00189e8ac2,29,Male,2021-05-03_11h11.18.916,search_v5,2021.1.2,Win32,60.77180188,,,space,0.091035,0,28,28,95,1,,,,,,,,,,,,,,,
,,,,,,,,,,,,,,,,p,1,0.71375,,,,,,,,15_dist_green/trial20.png,,1,15,greenverival,p,hard,5d68c8aa40524c00189e8ac2,29,Male,2021-05-03_11h11.18.916,search_v5,2021.1.2,Win32,60.77180188,,,space,0.18159,0,29,29,75,1,,,,,,,,,,,,,,,
,,,,,,,,,,,,,,,,a,1,0.66092,,,,,,,,0_targ_4_dist_green/trial7.png,,0,4,greenverival,a,easy,5d68c8aa40524c00189e8ac2,29,Male,2021-05-03_11h11.18.916,search_v5,2021.1.2,Win32,60.77180188,,,space,0.06949,0,30,30,85,1,,,,,,,,,,,,,,,
,,,,,,,,,,,,,,,,a,1,1.42646,,,,,,,,0_targ_16_dist_green/trial21.png,,0,16,greenverival,a,hard,5d68c8aa40524c00189e8ac2,29,Male,2021-05-03_11h11.18.916,search_v5,2021.1.2,Win32,60.77180188,,,space,0.085975,0,31,31,145,1,,,,,,,,,,,,,,,
,,,,,,,,,,,,,,,,p,1,0.973005,,,,,,,,15_dist_green/trial21.png,,1,15,greenverival,p,hard,5d68c8aa40524c00189e8ac2,29,Male,2021-05-03_11h11.18.916,search_v5,2021.1.2,Win32,60.77180188,,,space,0.1821,0,32,32,76,1,,,,,,,,,,,,,,,
,,,,,,,,,,,,,,,,a,1,0.76307,,,,,,,,0_targ_16_dist_green/trial3.png,,0,16,greenverival,a,hard,5d68c8aa40524c00189e8ac2,29,Male,2021-05-03_11h11.18.916,search_v5,2021.1.2,Win32,60.77180188,,,space,0.056835,0,33,33,127,1,,,,,,,,,,,,,,,
,,,,,,,,,,,,,,,,a,1,0.79526,,,,,,,,0_targ_10_dist_green/trial21.png,,0,10,greenverival,a,mid,5d68c8aa40524c00189e8ac2,29,Male,2021-05-03_11h11.18.916,search_v5,2021.1.2,Win32,60.77180188,,,space,0.040535,0,34,34,122,1,,,,,,,,,,,,,,,
,,,,,,,,,,,,,,,,a,1,0.580815,,,,,,,,0_targ_10_dist_green/trial14.png,,0,10,greenverival,a,mid,5d68c8aa40524c00189e8ac2,29,Male,2021-05-03_11h11.18.916,search_v5,2021.1.2,Win32,60.77180188,,,space,0.04118,0,35,35,115,1,,,,,,,,,,,,,,,
,,,,,,,,,,,,,,,,a,1,0.779555,,,,,,,,0_targ_16_dist_green/trial4.png,,0,16,greenverival,a,hard,5d68c8aa40524c00189e8ac2,29,Male,2021-05-03_11h11.18.916,search_v5,2021.1.2,Win32,60.77180188,,,space,0.0717,0,36,36,128,1,,,,,,,,,,,,,,,
,,,,,,,,,,,,,,,,a,1,0.671565,,,,,,,,0_targ_4_dist_green/trial10.png,,0,4,greenverival,a,easy,5d68c8aa40524c00189e8ac2,29,Male,2021-05-03_11h11.18.916,search_v5,2021.1.2,Win32,60.77180188,,,space,0.07538,0,37,37,88,1,,,,,,,,,,,,,,,
,,,,,,,,,,,,,,,,p,1,0.91123,,,,,,,,3_dist_green/trial4.png,,1,3,greenverival,p,easy,5d68c8aa40524c00189e8ac2,29,Male,2021-05-03_11h11.18.916,search_v5,2021.1.2,Win32,60.77180188,,,space,0.17655,0,38,38,13,1,,,,,,,,,,,,,,,
,,,,,,,,,,,,,,,,p,1,0.86802,,,,,,,,15_dist_green/trial10.png,,1,15,greenverival,p,hard,5d68c8aa40524c00189e8ac2,29,Male,2021-05-03_11h11.18.916,search_v5,2021.1.2,Win32,60.77180188,,,space,0.1194,0,39,39,65,1,,,,,,,,,,,,,,,
,,,,,,,,,,,,,,,,p,1,0.795635,,,,,,,,9_dist_green/trial4.png,,1,9,greenverival,p,mid,5d68c8aa40524c00189e8ac2,29,Male,2021-05-03_11h11.18.916,search_v5,2021.1.2,Win32,60.77180188,,,space,0.11058,0,40,40,36,1,,,,,,,,,,,,,,,
,,,,,,,,,,,,,,,,a,1,0.89699,,,,,,,,0_targ_10_dist_green/trial7.png,,0,10,greenverival,a,mid,5d68c8aa40524c00189e8ac2,29,Male,2021-05-03_11h11.18.916,search_v5,2021.1.2,Win32,60.77180188,,,space,0.088755,0,41,41,108,1,,,,,,,,,,,,,,,
,,,,,,,,,,,,,,,,a,1,0.63527,,,,,,,,0_targ_16_dist_green/trial2.png,,0,16,greenverival,a,hard,5d68c8aa40524c00189e8ac2,29,Male,2021-05-03_11h11.18.916,search_v5,2021.1.2,Win32,60.77180188,,,space,0.06386,0,42,42,11,1,,,,,,,,,,,,,,,
,,,,,,,,,,,,,,,,a,1,0.63969,,,,,,,,0_targ_16_dist_green/trial6.png,,0,16,greenverival,a,hard,5d68c8aa40524c00189e8ac2,29,Male,2021-05-03_11h11.18.916,search_v5,2021.1.2,Win32,60.77180188,,,space,0.03609,0,43,43,130,1,,,,,,,,,,,,,,,
,,,,,,,,,,,,,,,,a,1,0.761,,,,,,,,0_targ_16_dist_green/trial16.png,,0,16,greenverival,a,hard,5d68c8aa40524c00189e8ac2,29,Male,2021-05-03_11h11.18.916,search_v5,2021.1.2,Win32,60.77180188,,,space,0.028855,0,44,44,140,1,,,,,,,,,,,,,,,
,,,,,,,,,,,,,,,,a,1,0.719525,,,,,,,,0_targ_10_dist_green/trial13.png,,0,10,greenverival,a,mid,5d68c8aa40524c00189e8ac2,29,Male,2021-05-03_11h11.18.916,search_v5,2021.1.2,Win32,60.77180188,,,space,0.11637,0,45,45,114,1,,,,,,,,,,,,,,,
,,,,,,,,,,,,,,,,a,1,0.64493,,,,,,,,0_targ_16_dist_green/trial10.png,,0,16,greenverival,a,hard,5d68c8aa40524c00189e8ac2,29,Male,2021-05-03_11h11.18.916,search_v5,2021.1.2,Win32,60.77180188,,,space,0.034005,0,46,46,134,1,,,,,,,,,,,,,,,
,,,,,,,,,,,,,,,,a,1,0.5969,,,,,,,,0_targ_10_dist_green/trial20.png,,0,10,greenverival,a,mid,5d68c8aa40524c00189e8ac2,29,Male,2021-05-03_11h11.18.916,search_v5,2021.1.2,Win32,60.77180188,,,space,0.07353,0,47,47,121,1,,,,,,,,,,,,,,,
,,,,,,,,,,,,,,,,a,1,0.61988,,,,,,,,0_targ_4_dist_green/trial25.png,,0,4,greenverival,a,easy,5d68c8aa40524c00189e8ac2,29,Male,2021-05-03_11h11.18.916,search_v5,2021.1.2,Win32,60.77180188,,,space,0.07069,0,48,48,103,1,,,,,,,,,,,,,,,
,,,,,,,,,,,,,,,,p,1,0.845335,,,,,,,,9_dist_green/trial20.png,,1,9,greenverival,p,mid,5d68c8aa40524c00189e8ac2,29,Male,2021-05-03_11h11.18.916,search_v5,2021.1.2,Win32,60.77180188,,,space,0.53267,0,49,49,52,1,,,,,,,,,,,,,,,
,,,,,,,,,,,,,,,,p,1,1.72239,,,,,,,,9_dist_green/trial9.png,,1,9,greenverival,p,mid,5d68c8aa40524c00189e8ac2,29,Male,2021-05-03_11h11.18.916,search_v5,2021.1.2,Win32,60.77180188,,,space,0.09948,0,50,50,41,1,,,,,,,,,,,,,,,
,,,,,,,,,,,,,,,,a,1,1.0381,,,,,,,,0_targ_10_dist_green/trial10.png,,0,10,greenverival,a,mid,5d68c8aa40524c00189e8ac2,29,Male,2021-05-03_11h11.18.916,search_v5,2021.1.2,Win32,60.77180188,,,space,0.072725,0,51,51,111,1,,,,,,,,,,,,,,,
,,,,,,,,,,,,,,,,a,1,0.85262,,,,,,,,0_targ_10_dist_green/trial5.png,,0,10,greenverival,a,mid,5d68c8aa40524c00189e8ac2,29,Male,2021-05-03_11h11.18.916,search_v5,2021.1.2,Win32,60.77180188,,,space,0.0954,0,52,52,106,1,,,,,,,,,,,,,,,
,,,,,,,,,,,,,,,,a,1,0.759375,,,,,,,,0_targ_4_dist_green/trial5.png,,0,4,greenverival,a,easy,5d68c8aa40524c00189e8ac2,29,Male,2021-05-03_11h11.18.916,search_v5,2021.1.2,Win32,60.77180188,,,space,0.069685,0,53,53,83,1,,,,,,,,,,,,,,,
,,,,,,,,,,,,,,,,a,0,0.641255,,,,,,,,3_dist_green/trial21.png,,1,3,greenverival,p,easy,5d68c8aa40524c00189e8ac2,29,Male,2021-05-03_11h11.18.916,search_v5,2021.1.2,Win32,60.77180188,,,space,1.823575,0,54,54,30,1,,,,,,,,,,,,,,,
,,,,,,,,,,,,,,,,p,1,0.861095,,,,,,,,9_dist_green/trial12.png,,1,9,greenverival,p,mid,5d68c8aa40524c00189e8ac2,29,Male,2021-05-03_11h11.18.916,search_v5,2021.1.2,Win32,60.77180188,,,space,0.09687,0,55,55,44,1,,,,,,,,,,,,,,,
,,,,,,,,,,,,,,,,a,1,0.83459,,,,,,,,0_targ_16_dist_green/trial7.png,,0,16,greenverival,a,hard,5d68c8aa40524c00189e8ac2,29,Male,2021-05-03_11h11.18.916,search_v5,2021.1.2,Win32,60.77180188,,,space,0.072455,0,56,56,131,1,,,,,,,,,,,,,,,
,,,,,,,,,,,,,,,,p,1,0.856435,,,,,,,,15_dist_green/trial13.png,,1,15,greenverival,p,hard,5d68c8aa40524c00189e8ac2,29,Male,2021-05-03_11h11.18.916,search_v5,2021.1.2,Win32,60.77180188,,,space,0.109965,0,57,57,68,1,,,,,,,,,,,,,,,
,,,,,,,,,,,,,,,,p,1,0.848115,,,,,,,,3_dist_green/trial12.png,,1,3,greenverival,p,easy,5d68c8aa40524c00189e8ac2,29,Male,2021-05-03_11h11.18.916,search_v5,2021.1.2,Win32,60.77180188,,,space,0.09995,0,58,58,21,1,,,,,,,,,,,,,,,
,,,,,,,,,,,,,,,,p,1,0.5841,,,,,,,,3_dist_green/trial14.png,,1,3,greenverival,p,easy,5d68c8aa40524c00189e8ac2,29,Male,2021-05-03_11h11.18.916,search_v5,2021.1.2,Win32,60.77180188,,,space,0.066045,0,59,59,23,1,,,,,,,,,,,,,,,
,,,,,,,,,,,,,,,,a,1,0.934445,,,,,,,,0_targ_16_dist_green/trial8.png,,0,16,greenverival,a,hard,5d68c8aa40524c00189e8ac2,29,Male,2021-05-03_11h11.18.916,search_v5,2021.1.2,Win32,60.77180188,,,space,0.084885,0,60,60,132,1,,,,,,,,,,,,,,,
,,,,,,,,,,,,,,,,p,1,1.036855,,,,,,,,15_dist_green/trial5.png,,1,15,greenverival,p,hard,5d68c8aa40524c00189e8ac2,29,Male,2021-05-03_11h11.18.916,search_v5,2021.1.2,Win32,60.77180188,,,space,0.135835,0,61,61,60,1,,,,,,,,,,,,,,,
,,,,,,,,,,,,,,,,p,1,1.002765,,,,,,,,3_dist_green/trial2.png,,1,3,greenverival,p,easy,5d68c8aa40524c00189e8ac2,29,Male,2021-05-03_11h11.18.916,search_v5,2021.1.2,Win32,60.77180188,,,space,0.10027,0,62,62,1,1,,,,,,,,,,,,,,,
,,,,,,,,,,,,,,,,a,1,2.15134,,,,,,,,0_targ_10_dist_green/trial6.png,,0,10,greenverival,a,mid,5d68c8aa40524c00189e8ac2,29,Male,2021-05-03_11h11.18.916,search_v5,2021.1.2,Win32,60.77180188,,,space,0.098725,0,63,63,107,1,,,,,,,,,,,,,,,
,,,,,,,,,,,,,,,,p,1,0.95718,,,,,,,,15_dist_green/trial22.png,,1,15,greenverival,p,hard,5d68c8aa40524c00189e8ac2,29,Male,2021-05-03_11h11.18.916,search_v5,2021.1.2,Win32,60.77180188,,,space,0.123105,0,64,64,77,1,,,,,,,,,,,,,,,
,,,,,,,,,,,,,,,,a,1,0.95756,,,,,,,,0_targ_10_dist_green/trial9.png,,0,10,greenverival,a,mid,5d68c8aa40524c00189e8ac2,29,Male,2021-05-03_11h11.18.916,search_v5,2021.1.2,Win32,60.77180188,,,space,0.0995,0,65,65,110,1,,,,,,,,,,,,,,,
,,,,,,,,,,,,,,,,a,1,0.764495,,,,,,,,0_targ_4_dist_green/trial21.png,,0,4,greenverival,a,easy,5d68c8aa40524c00189e8ac2,29,Male,2021-05-03_11h11.18.916,search_v5,2021.1.2,Win32,60.77180188,,,space,0.074325,0,66,66,99,1,,,,,,,,,,,,,,,
,,,,,,,,,,,,,,,,a,1,0.758205,,,,,,,,0_targ_10_dist_green/trial2.png,,0,10,greenverival,a,mid,5d68c8aa40524c00189e8ac2,29,Male,2021-05-03_11h11.18.916,search_v5,2021.1.2,Win32,60.77180188,,,space,0.100405,0,67,67,9,1,,,,,,,,,,,,,,,
,,,,,,,,,,,,,,,,p,1,0.797815,,,,,,,,9_dist_green/trial25.png,,1,9,greenverival,p,mid,5d68c8aa40524c00189e8ac2,29,Male,2021-05-03_11h11.18.916,search_v5,2021.1.2,Win32,60.77180188,,,space,0.106105,0,68,68,57,1,,,,,,,,,,,,,,,
,,,,,,,,,,,,,,,,p,1,1.07857,,,,,,,,9_dist_green/trial17.png,,1,9,greenverival,p,mid,5d68c8aa40524c00189e8ac2,29,Male,2021-05-03_11h11.18.916,search_v5,2021.1.2,Win32,60.77180188,,,space,0.07948,0,69,69,49,1,,,,,,,,,,,,,,,
,,,,,,,,,,,,,,,,a,1,0.715485,,,,,,,,0_targ_16_dist_green/trial15.png,,0,16,greenverival,a,hard,5d68c8aa40524c00189e8ac2,29,Male,2021-05-03_11h11.18.916,search_v5,2021.1.2,Win32,60.77180188,,,space,0.06784,0,70,70,139,1,,,,,,,,,,,,,,,
,,,,,,,,,,,,,,,,a,1,0.68166,,,,,,,,0_targ_10_dist_green/trial4.png,,0,10,greenverival,a,mid,5d68c8aa40524c00189e8ac2,29,Male,2021-05-03_11h11.18.916,search_v5,2021.1.2,Win32,60.77180188,,,space,0.09945,0,71,71,105,1,,,,,,,,,,,,,,,
,,,,,,,,,,,,,,,,a,1,0.730335,,,,,,,,0_targ_10_dist_green/trial12.png,,0,10,greenverival,a,mid,5d68c8aa40524c00189e8ac2,29,Male,2021-05-03_11h11.18.916,search_v5,2021.1.2,Win32,60.77180188,,,space,0.07449,0,72,72,113,1,,,,,,,,,,,,,,,
,,,,,,,,,,,,,,,,a,1,0.63899,,,,,,,,0_targ_16_dist_green/trial25.png,,0,16,greenverival,a,hard,5d68c8aa40524c00189e8ac2,29,Male,2021-05-03_11h11.18.916,search_v5,2021.1.2,Win32,60.77180188,,,space,0.067125,0,73,73,149,1,,,,,,,,,,,,,,,
,,,,,,,,,,,,,,,,p,1,0.62504,,,,,,,,9_dist_green/trial15.png,,1,9,greenverival,p,mid,5d68c8aa40524c00189e8ac2,29,Male,2021-05-03_11h11.18.916,search_v5,2021.1.2,Win32,60.77180188,,,space,0.06159,0,74,74,47,1,,,,,,,,,,,,,,,
,,,,,,,,,,,,,,,,a,1,0.686205,,,,,,,,0_targ_4_dist_green/trial3.png,,0,4,greenverival,a,easy,5d68c8aa40524c00189e8ac2,29,Male,2021-05-03_11h11.18.916,search_v5,2021.1.2,Win32,60.77180188,,,space,0.083475,0,75,75,81,1,,,,,,,,,,,,,,,
,,,,,,,,,,,,,,,,a,1,0.852285,,,,,,,,0_targ_4_dist_green/trial15.png,,0,4,greenverival,a,easy,5d68c8aa40524c00189e8ac2,29,Male,2021-05-03_11h11.18.916,search_v5,2021.1.2,Win32,60.77180188,,,space,0.04774,0,76,76,93,1,,,,,,,,,,,,,,,
,,,,,,,,,,,,,,,,a,1,0.656455,,,,,,,,0_targ_10_dist_green/trial15.png,,0,10,greenverival,a,mid,5d68c8aa40524c00189e8ac2,29,Male,2021-05-03_11h11.18.916,search_v5,2021.1.2,Win32,60.77180188,,,space,0.08256,0,77,77,116,1,,,,,,,,,,,,,,,
,,,,,,,,,,,,,,,,p,1,0.85196,,,,,,,,3_dist_green/trial25.png,,1,3,greenverival,p,easy,5d68c8aa40524c00189e8ac2,29,Male,2021-05-03_11h11.18.916,search_v5,2021.1.2,Win32,60.77180188,,,space,0.09722,0,78,78,34,1,,,,,,,,,,,,,,,
,,,,,,,,,,,,,,,,a,1,0.74135,,,,,,,,0_targ_16_dist_green/trial20.png,,0,16,greenverival,a,hard,5d68c8aa40524c00189e8ac2,29,Male,2021-05-03_11h11.18.916,search_v5,2021.1.2,Win32,60.77180188,,,space,0.05031,0,79,79,144,1,,,,,,,,,,,,,,,
,,,,,,,,,,,,,,,,p,1,0.811185,,,,,,,,9_dist_green/trial19.png,,1,9,greenverival,p,mid,5d68c8aa40524c00189e8ac2,29,Male,2021-05-03_11h11.18.916,search_v5,2021.1.2,Win32,60.77180188,,,space,0.113175,0,80,80,51,1,,,,,,,,,,,,,,,
,,,,,,,,,,,,,,,,p,1,0.609315,,,,,,,,3_dist_green/trial24.png,,1,3,greenverival,p,easy,5d68c8aa40524c00189e8ac2,29,Male,2021-05-03_11h11.18.916,search_v5,2021.1.2,Win32,60.77180188,,,space,0.090325,0,81,81,33,1,,,,,,,,,,,,,,,
,,,,,,,,,,,,,,,,a,1,0.745195,,,,,,,,0_targ_10_dist_green/trial24.png,,0,10,greenverival,a,mid,5d68c8aa40524c00189e8ac2,29,Male,2021-05-03_11h11.18.916,search_v5,2021.1.2,Win32,60.77180188,,,space,0.06643,0,82,82,125,1,,,,,,,,,,,,,,,
,,,,,,,,,,,,,,,,p,1,0.84309,,,,,,,,15_dist_green/trial7.png,,1,15,greenverival,p,hard,5d68c8aa40524c00189e8ac2,29,Male,2021-05-03_11h11.18.916,search_v5,2021.1.2,Win32,60.77180188,,,space,0.40057,0,83,83,62,1,,,,,,,,,,,,,,,
,,,,,,,,,,,,,,,,a,1,1.179215,,,,,,,,0_targ_16_dist_green/trial13.png,,0,16,greenverival,a,hard,5d68c8aa40524c00189e8ac2,29,Male,2021-05-03_11h11.18.916,search_v5,2021.1.2,Win32,60.77180188,,,space,0.093485,0,84,84,137,1,,,,,,,,,,,,,,,
,,,,,,,,,,,,,,,,a,1,0.765895,,,,,,,,0_targ_16_dist_green/trial17.png,,0,16,greenverival,a,hard,5d68c8aa40524c00189e8ac2,29,Male,2021-05-03_11h11.18.916,search_v5,2021.1.2,Win32,60.77180188,,,space,0.05181,0,85,85,141,1,,,,,,,,,,,,,,,
,,,,,,,,,,,,,,,,a,1,0.7252,,,,,,,,0_targ_4_dist_green/trial14.png,,0,4,greenverival,a,easy,5d68c8aa40524c00189e8ac2,29,Male,2021-05-03_11h11.18.916,search_v5,2021.1.2,Win32,60.77180188,,,space,0.082485,0,86,86,92,1,,,,,,,,,,,,,,,
,,,,,,,,,,,,,,,,a,1,0.710495,,,,,,,,0_targ_16_dist_green/trial24.png,,0,16,greenverival,a,hard,5d68c8aa40524c00189e8ac2,29,Male,2021-05-03_11h11.18.916,search_v5,2021.1.2,Win32,60.77180188,,,space,0.088665,0,87,87,148,1,,,,,,,,,,,,,,,
,,,,,,,,,,,,,,,,p,1,0.757105,,,,,,,,3_dist_green/trial3.png,,1,3,greenverival,p,easy,5d68c8aa40524c00189e8ac2,29,Male,2021-05-03_11h11.18.916,search_v5,2021.1.2,Win32,60.77180188,,,space,0.088525,0,88,88,12,1,,,,,,,,,,,,,,,
,,,,,,,,,,,,,,,,p,0,0.72503,,,,,,,,0_targ_10_dist_green/trial17.png,,0,10,greenverival,a,mid,5d68c8aa40524c00189e8ac2,29,Male,2021-05-03_11h11.18.916,search_v5,2021.1.2,Win32,60.77180188,,,space,7.7173,0,89,89,118,1,,,,,,,,,,,,,,,
,,,,,,,,,,,,,,,,p,1,1.15042,,,,,,,,3_dist_green/trial6.png,,1,3,greenverival,p,easy,5d68c8aa40524c00189e8ac2,29,Male,2021-05-03_11h11.18.916,search_v5,2021.1.2,Win32,60.77180188,,,space,0.117955,0,90,90,15,1,,,,,,,,,,,,,,,
,,,,,,,,,,,,,,,,p,1,0.748555,,,,,,,,15_dist_green/trial19.png,,1,15,greenverival,p,hard,5d68c8aa40524c00189e8ac2,29,Male,2021-05-03_11h11.18.916,search_v5,2021.1.2,Win32,60.77180188,,,space,0.088945,0,91,91,74,1,,,,,,,,,,,,,,,
,,,,,,,,,,,,,,,,a,1,0.801955,,,,,,,,0_targ_10_dist_green/trial3.png,,0,10,greenverival,a,mid,5d68c8aa40524c00189e8ac2,29,Male,2021-05-03_11h11.18.916,search_v5,2021.1.2,Win32,60.77180188,,,space,0.108585,0,92,92,104,1,,,,,,,,,,,,,,,
,,,,,,,,,,,,,,,,a,1,0.58382,,,,,,,,0_targ_4_dist_green/trial11.png,,0,4,greenverival,a,easy,5d68c8aa40524c00189e8ac2,29,Male,2021-05-03_11h11.18.916,search_v5,2021.1.2,Win32,60.77180188,,,space,0.059825,0,93,93,89,1,,,,,,,,,,,,,,,
,,,,,,,,,,,,,,,,p,1,0.883435,,,,,,,,9_dist_green/trial21.png,,1,9,greenverival,p,mid,5d68c8aa40524c00189e8ac2,29,Male,2021-05-03_11h11.18.916,search_v5,2021.1.2,Win32,60.77180188,,,space,0.135735,0,94,94,53,1,,,,,,,,,,,,,,,
,,,,,,,,,,,,,,,,p,1,0.892735,,,,,,,,15_dist_green/trial3.png,,1,15,greenverival,p,hard,5d68c8aa40524c00189e8ac2,29,Male,2021-05-03_11h11.18.916,search_v5,2021.1.2,Win32,60.77180188,,,space,0.13499,0,95,95,58,1,,,,,,,,,,,,,,,
,,,,,,,,,,,,,,,,a,1,0.681595,,,,,,,,0_targ_4_dist_green/trial13.png,,0,4,greenverival,a,easy,5d68c8aa40524c00189e8ac2,29,Male,2021-05-03_11h11.18.916,search_v5,2021.1.2,Win32,60.77180188,,,space,0.044,0,96,96,91,1,,,,,,,,,,,,,,,
,,,,,,,,,,,,,,,,a,1,0.66652,,,,,,,,0_targ_10_dist_green/trial11.png,,0,10,greenverival,a,mid,5d68c8aa40524c00189e8ac2,29,Male,2021-05-03_11h11.18.916,search_v5,2021.1.2,Win32,60.77180188,,,space,0.02222,0,97,97,112,1,,,,,,,,,,,,,,,
,,,,,,,,,,,,,,,,p,1,0.61644,,,,,,,,3_dist_green/trial19.png,,1,3,greenverival,p,easy,5d68c8aa40524c00189e8ac2,29,Male,2021-05-03_11h11.18.916,search_v5,2021.1.2,Win32,60.77180188,,,space,0.070845,0,98,98,28,1,,,,,,,,,,,,,,,
,,,,,,,,,,,,,,,,a,1,0.897555,,,,,,,,0_targ_4_dist_green/trial20.png,,0,4,greenverival,a,easy,5d68c8aa40524c00189e8ac2,29,Male,2021-05-03_11h11.18.916,search_v5,2021.1.2,Win32,60.77180188,,,space,0.24197,0,99,99,98,1,,,,,,,,,,,,,,,
,,,,,,,,,,,,,,,,a,1,0.88076,,,,,,,,0_targ_16_dist_green/trial18.png,,0,16,greenverival,a,hard,5d68c8aa40524c00189e8ac2,29,Male,2021-05-03_11h11.18.916,search_v5,2021.1.2,Win32,60.77180188,,,space,0.08709,0,100,100,142,1,,,,,,,,,,,,,,,
,,,,,,,,,,,,,,,,a,1,0.591695,,,,,,,,0_targ_4_dist_green/trial19.png,,0,4,greenverival,a,easy,5d68c8aa40524c00189e8ac2,29,Male,2021-05-03_11h11.18.916,search_v5,2021.1.2,Win32,60.77180188,,,space,0.063055,0,101,101,97,1,,,,,,,,,,,,,,,
,,,,,,,,,,,,,,,,p,1,0.67918,,,,,,,,3_dist_green/trial17.png,,1,3,greenverival,p,easy,5d68c8aa40524c00189e8ac2,29,Male,2021-05-03_11h11.18.916,search_v5,2021.1.2,Win32,60.77180188,,,space,0.07553,0,102,102,26,1,,,,,,,,,,,,,,,
,,,,,,,,,,,,,,,,a,1,0.757095,,,,,,,,0_targ_16_dist_green/trial23.png,,0,16,greenverival,a,hard,5d68c8aa40524c00189e8ac2,29,Male,2021-05-03_11h11.18.916,search_v5,2021.1.2,Win32,60.77180188,,,space,0.03478,0,103,103,147,1,,,,,,,,,,,,,,,
,,,,,,,,,,,,,,,,p,1,0.81737,,,,,,,,15_dist_green/trial12.png,,1,15,greenverival,p,hard,5d68c8aa40524c00189e8ac2,29,Male,2021-05-03_11h11.18.916,search_v5,2021.1.2,Win32,60.77180188,,,space,0.090045,0,104,104,67,1,,,,,,,,,,,,,,,
,,,,,,,,,,,,,,,,p,1,0.892165,,,,,,,,9_dist_green/trial23.png,,1,9,greenverival,p,mid,5d68c8aa40524c00189e8ac2,29,Male,2021-05-03_11h11.18.916,search_v5,2021.1.2,Win32,60.77180188,,,space,0.053625,0,105,105,55,1,,,,,,,,,,,,,,,
,,,,,,,,,,,,,,,,p,1,0.735025,,,,,,,,9_dist_green/trial8.png,,1,9,greenverival,p,mid,5d68c8aa40524c00189e8ac2,29,Male,2021-05-03_11h11.18.916,search_v5,2021.1.2,Win32,60.77180188,,,space,0.04831,0,106,106,40,1,,,,,,,,,,,,,,,
,,,,,,,,,,,,,,,,p,1,0.835005,,,,,,,,15_dist_green/trial16.png,,1,15,greenverival,p,hard,5d68c8aa40524c00189e8ac2,29,Male,2021-05-03_11h11.18.916,search_v5,2021.1.2,Win32,60.77180188,,,space,0.085815,0,107,107,71,1,,,,,,,,,,,,,,,
,,,,,,,,,,,,,,,,p,1,0.60216,,,,,,,,15_dist_green/trial9.png,,1,15,greenverival,p,hard,5d68c8aa40524c00189e8ac2,29,Male,2021-05-03_11h11.18.916,search_v5,2021.1.2,Win32,60.77180188,,,space,0.09164,0,108,108,64,1,,,,,,,,,,,,,,,
,,,,,,,,,,,,,,,,p,1,0.733245,,,,,,,,3_dist_green/trial8.png,,1,3,greenverival,p,easy,5d68c8aa40524c00189e8ac2,29,Male,2021-05-03_11h11.18.916,search_v5,2021.1.2,Win32,60.77180188,,,space,0.104185,0,109,109,17,1,,,,,,,,,,,,,,,
,,,,,,,,,,,,,,,,a,1,0.78399,,,,,,,,0_targ_4_dist_green/trial2.png,,0,4,greenverival,a,easy,5d68c8aa40524c00189e8ac2,29,Male,2021-05-03_11h11.18.916,search_v5,2021.1.2,Win32,60.77180188,,,space,0.09035,0,110,110,7,1,,,,,,,,,,,,,,,
,,,,,,,,,,,,,,,,a,1,0.626615,,,,,,,,0_targ_4_dist_green/trial6.png,,0,4,greenverival,a,easy,5d68c8aa40524c00189e8ac2,29,Male,2021-05-03_11h11.18.916,search_v5,2021.1.2,Win32,60.77180188,,,space,0.071775,0,111,111,84,1,,,,,,,,,,,,,,,
,,,,,,,,,,,,,,,,p,1,0.60236,,,,,,,,9_dist_green/trial18.png,,1,9,greenverival,p,mid,5d68c8aa40524c00189e8ac2,29,Male,2021-05-03_11h11.18.916,search_v5,2021.1.2,Win32,60.77180188,,,space,0.06313,0,112,112,50,1,,,,,,,,,,,,,,,
,,,,,,,,,,,,,,,,a,0,0.66595,,,,,,,,9_dist_green/trial6.png,,1,9,greenverival,p,mid,5d68c8aa40524c00189e8ac2,29,Male,2021-05-03_11h11.18.916,search_v5,2021.1.2,Win32,60.77180188,,,space,6.05938,0,113,113,38,1,,,,,,,,,,,,,,,
,,,,,,,,,,,,,,,,p,1,1.264935,,,,,,,,9_dist_green/trial22.png,,1,9,greenverival,p,mid,5d68c8aa40524c00189e8ac2,29,Male,2021-05-03_11h11.18.916,search_v5,2021.1.2,Win32,60.77180188,,,space,0.13199,0,114,114,54,1,,,,,,,,,,,,,,,
,,,,,,,,,,,,,,,,p,1,0.824535,,,,,,,,3_dist_green/trial1.png,,1,3,greenverival,p,easy,5d68c8aa40524c00189e8ac2,29,Male,2021-05-03_11h11.18.916,search_v5,2021.1.2,Win32,60.77180188,,,space,0.04341,0,115,115,0,1,,,,,,,,,,,,,,,
,,,,,,,,,,,,,,,,a,1,0.802525,,,,,,,,0_targ_4_dist_green/trial23.png,,0,4,greenverival,a,easy,5d68c8aa40524c00189e8ac2,29,Male,2021-05-03_11h11.18.916,search_v5,2021.1.2,Win32,60.77180188,,,space,0.09132,0,116,116,101,1,,,,,,,,,,,,,,,
,,,,,,,,,,,,,,,,p,1,0.71135,,,,,,,,15_dist_green/trial15.png,,1,15,greenverival,p,hard,5d68c8aa40524c00189e8ac2,29,Male,2021-05-03_11h11.18.916,search_v5,2021.1.2,Win32,60.77180188,,,space,0.0939,0,117,117,70,1,,,,,,,,,,,,,,,
,,,,,,,,,,,,,,,,p,1,0.87348,,,,,,,,9_dist_green/trial7.png,,1,9,greenverival,p,mid,5d68c8aa40524c00189e8ac2,29,Male,2021-05-03_11h11.18.916,search_v5,2021.1.2,Win32,60.77180188,,,space,0.114045,0,118,118,39,1,,,,,,,,,,,,,,,
,,,,,,,,,,,,,,,,a,1,1.07935,,,,,,,,0_targ_16_dist_green/trial22.png,,0,16,greenverival,a,hard,5d68c8aa40524c00189e8ac2,29,Male,2021-05-03_11h11.18.916,search_v5,2021.1.2,Win32,60.77180188,,,space,0.085435,0,119,119,146,1,,,,,,,,,,,,,,,
,,,,,,,,,,,,,,,,p,1,0.86674,,,,,,,,15_dist_green/trial17.png,,1,15,greenverival,p,hard,5d68c8aa40524c00189e8ac2,29,Male,2021-05-03_11h11.18.916,search_v5,2021.1.2,Win32,60.77180188,,,space,0.05797,0,120,120,72,1,,,,,,,,,,,,,,,
,,,,,,,,,,,,,,,,p,1,1.16394,,,,,,,,9_dist_green/trial1.png,,1,9,greenverival,p,mid,5d68c8aa40524c00189e8ac2,29,Male,2021-05-03_11h11.18.916,search_v5,2021.1.2,Win32,60.77180188,,,space,0.0438,0,121,121,2,1,,,,,,,,,,,,,,,
,,,,,,,,,,,,,,,,p,1,0.876935,,,,,,,,3_dist_green/trial15.png,,1,3,greenverival,p,easy,5d68c8aa40524c00189e8ac2,29,Male,2021-05-03_11h11.18.916,search_v5,2021.1.2,Win32,60.77180188,,,space,0.03454,0,122,122,24,1,,,,,,,,,,,,,,,
,,,,,,,,,,,,,,,,p,1,0.79061,,,,,,,,9_dist_green/trial24.png,,1,9,greenverival,p,mid,5d68c8aa40524c00189e8ac2,29,Male,2021-05-03_11h11.18.916,search_v5,2021.1.2,Win32,60.77180188,,,space,0.018685,0,123,123,56,1,,,,,,,,,,,,,,,
,,,,,,,,,,,,,,,,p,1,0.75108,,,,,,,,9_dist_green/trial11.png,,1,9,greenverival,p,mid,5d68c8aa40524c00189e8ac2,29,Male,2021-05-03_11h11.18.916,search_v5,2021.1.2,Win32,60.77180188,,,space,0.086035,0,124,124,43,1,,,,,,,,,,,,,,,
,,,,,,,,,,,,,,,,p,1,0.581145,,,,,,,,9_dist_green/trial14.png,,1,9,greenverival,p,mid,5d68c8aa40524c00189e8ac2,29,Male,2021-05-03_11h11.18.916,search_v5,2021.1.2,Win32,60.77180188,,,space,0.043735,0,125,125,46,1,,,,,,,,,,,,,,,
,,,,,,,,,,,,,,,,p,1,1.00975,,,,,,,,3_dist_green/trial10.png,,1,3,greenverival,p,easy,5d68c8aa40524c00189e8ac2,29,Male,2021-05-03_11h11.18.916,search_v5,2021.1.2,Win32,60.77180188,,,space,0.04524,0,126,126,19,1,,,,,,,,,,,,,,,
,,,,,,,,,,,,,,,,p,1,0.878055,,,,,,,,9_dist_green/trial5.png,,1,9,greenverival,p,mid,5d68c8aa40524c00189e8ac2,29,Male,2021-05-03_11h11.18.916,search_v5,2021.1.2,Win32,60.77180188,,,space,0.05609,0,127,127,37,1,,,,,,,,,,,,,,,
,,,,,,,,,,,,,,,,p,1,0.588585,,,,,,,,3_dist_green/trial16.png,,1,3,greenverival,p,easy,5d68c8aa40524c00189e8ac2,29,Male,2021-05-03_11h11.18.916,search_v5,2021.1.2,Win32,60.77180188,,,space,0.056305,0,128,128,25,1,,,,,,,,,,,,,,,
,,,,,,,,,,,,,,,,a,1,0.68,,,,,,,,0_targ_16_dist_green/trial1.png,,0,16,greenverival,a,hard,5d68c8aa40524c00189e8ac2,29,Male,2021-05-03_11h11.18.916,search_v5,2021.1.2,Win32,60.77180188,,,space,0.04369,0,129,129,10,1,,,,,,,,,,,,,,,
,,,,,,,,,,,,,,,,a,0,1.03194,,,,,,,,15_dist_green/trial8.png,,1,15,greenverival,p,hard,5d68c8aa40524c00189e8ac2,29,Male,2021-05-03_11h11.18.916,search_v5,2021.1.2,Win32,60.77180188,,,space,6.207025,0,130,130,63,1,,,,,,,,,,,,,,,
,,,,,,,,,,,,,,,,p,1,2.351865,,,,,,,,9_dist_green/trial10.png,,1,9,greenverival,p,mid,5d68c8aa40524c00189e8ac2,29,Male,2021-05-03_11h11.18.916,search_v5,2021.1.2,Win32,60.77180188,,,space,0.121065,0,131,131,42,1,,,,,,,,,,,,,,,
,,,,,,,,,,,,,,,,a,1,0.87341,,,,,,,,0_targ_4_dist_green/trial12.png,,0,4,greenverival,a,easy,5d68c8aa40524c00189e8ac2,29,Male,2021-05-03_11h11.18.916,search_v5,2021.1.2,Win32,60.77180188,,,space,0.089875,0,132,132,90,1,,,,,,,,,,,,,,,
,,,,,,,,,,,,,,,,a,1,0.762705,,,,,,,,0_targ_4_dist_green/trial1.png,,0,4,greenverival,a,easy,5d68c8aa40524c00189e8ac2,29,Male,2021-05-03_11h11.18.916,search_v5,2021.1.2,Win32,60.77180188,,,space,0.090035,0,133,133,6,1,,,,,,,,,,,,,,,
,,,,,,,,,,,,,,,,a,1,1.05014,,,,,,,,0_targ_16_dist_green/trial19.png,,0,16,greenverival,a,hard,5d68c8aa40524c00189e8ac2,29,Male,2021-05-03_11h11.18.916,search_v5,2021.1.2,Win32,60.77180188,,,space,0.03911,0,134,134,143,1,,,,,,,,,,,,,,,
,,,,,,,,,,,,,,,,a,1,0.713215,,,,,,,,0_targ_4_dist_green/trial22.png,,0,4,greenverival,a,easy,5d68c8aa40524c00189e8ac2,29,Male,2021-05-03_11h11.18.916,search_v5,2021.1.2,Win32,60.77180188,,,space,0.075185,0,135,135,100,1,,,,,,,,,,,,,,,
,,,,,,,,,,,,,,,,p,1,0.83693,,,,,,,,15_dist_green/trial25.png,,1,15,greenverival,p,hard,5d68c8aa40524c00189e8ac2,29,Male,2021-05-03_11h11.18.916,search_v5,2021.1.2,Win32,60.77180188,,,space,0.147095,0,136,136,80,1,,,,,,,,,,,,,,,
,,,,,,,,,,,,,,,,a,1,0.583215,,,,,,,,0_targ_4_dist_green/trial8.png,,0,4,greenverival,a,easy,5d68c8aa40524c00189e8ac2,29,Male,2021-05-03_11h11.18.916,search_v5,2021.1.2,Win32,60.77180188,,,space,0.02948,0,137,137,86,1,,,,,,,,,,,,,,,
,,,,,,,,,,,,,,,,p,1,0.683095,,,,,,,,3_dist_green/trial13.png,,1,3,greenverival,p,easy,5d68c8aa40524c00189e8ac2,29,Male,2021-05-03_11h11.18.916,search_v5,2021.1.2,Win32,60.77180188,,,space,0.08289,0,138,138,22,1,,,,,,,,,,,,,,,
,,,,,,,,,,,,,,,,a,1,0.7534,,,,,,,,0_targ_10_dist_green/trial22.png,,0,10,greenverival,a,mid,5d68c8aa40524c00189e8ac2,29,Male,2021-05-03_11h11.18.916,search_v5,2021.1.2,Win32,60.77180188,,,space,0.03977,0,139,139,123,1,,,,,,,,,,,,,,,
,,,,,,,,,,,,,,,,p,1,0.895765,,,,,,,,15_dist_green/trial1.png,,1,15,greenverival,p,hard,5d68c8aa40524c00189e8ac2,29,Male,2021-05-03_11h11.18.916,search_v5,2021.1.2,Win32,60.77180188,,,space,0.08383,0,140,140,4,1,,,,,,,,,,,,,,,
,,,,,,,,,,,,,,,,a,1,2.065155,,,,,,,,0_targ_10_dist_green/trial1.png,,0,10,greenverival,a,mid,5d68c8aa40524c00189e8ac2,29,Male,2021-05-03_11h11.18.916,search_v5,2021.1.2,Win32,60.77180188,,,space,0.079785,0,141,141,8,1,,,,,,,,,,,,,,,
,,,,,,,,,,,,,,,,p,1,0.98251,,,,,,,,3_dist_green/trial18.png,,1,3,greenverival,p,easy,5d68c8aa40524c00189e8ac2,29,Male,2021-05-03_11h11.18.916,search_v5,2021.1.2,Win32,60.77180188,,,space,0.09111,0,142,142,27,1,,,,,,,,,,,,,,,
,,,,,,,,,,,,,,,,a,1,1.068865,,,,,,,,0_targ_16_dist_green/trial14.png,,0,16,greenverival,a,hard,5d68c8aa40524c00189e8ac2,29,Male,2021-05-03_11h11.18.916,search_v5,2021.1.2,Win32,60.77180188,,,space,0.081155,0,143,143,138,1,,,,,,,,,,,,,,,
,,,,,,,,,,,,,,,,p,1,0.848415,,,,,,,,3_dist_green/trial11.png,,1,3,greenverival,p,easy,5d68c8aa40524c00189e8ac2,29,Male,2021-05-03_11h11.18.916,search_v5,2021.1.2,Win32,60.77180188,,,space,0.054005,0,144,144,20,1,,,,,,,,,,,,,,,
,,,,,,,,,,,,,,,,p,1,1.08993,,,,,,,,3_dist_green/trial5.png,,1,3,greenverival,p,easy,5d68c8aa40524c00189e8ac2,29,Male,2021-05-03_11h11.18.916,search_v5,2021.1.2,Win32,60.77180188,,,space,0.05064,0,145,145,14,1,,,,,,,,,,,,,,,
,,,,,,,,,,,,,,,,p,1,0.806595,,,,,,,,9_dist_green/trial16.png,,1,9,greenverival,p,mid,5d68c8aa40524c00189e8ac2,29,Male,2021-05-03_11h11.18.916,search_v5,2021.1.2,Win32,60.77180188,,,space,0.08935,0,146,146,48,1,,,,,,,,,,,,,,,
,,,,,,,,,,,,,,,,p,1,1.162735,,,,,,,,15_dist_green/trial6.png,,1,15,greenverival,p,hard,5d68c8aa40524c00189e8ac2,29,Male,2021-05-03_11h11.18.916,search_v5,2021.1.2,Win32,60.77180188,,,space,0.051005,0,147,147,61,1,,,,,,,,,,,,,,,
,,,,,,,,,,,,,,,,a,1,0.879975,,,,,,,,0_targ_16_dist_green/trial5.png,,0,16,greenverival,a,hard,5d68c8aa40524c00189e8ac2,29,Male,2021-05-03_11h11.18.916,search_v5,2021.1.2,Win32,60.77180188,,,space,0.07022,0,148,148,129,1,,,,,,,,,,,,,,,
,,,,,,,,,,,,,,,,a,1,0.80493,,,,,,,,0_targ_16_dist_green/trial9.png,,0,16,greenverival,a,hard,5d68c8aa40524c00189e8ac2,29,Male,2021-05-03_11h11.18.916,search_v5,2021.1.2,Win32,60.77180188,,,space,0.037015,0,149,149,133,1,,,,,,,,,,,,,,,
,,,,,,,,,,,,,,,,,,,,,,,,,,,,,,,,,5d68c8aa40524c00189e8ac2,29,Male,2021-05-03_11h11.18.916,search_v5,2021.1.2,Win32,60.77180188,,,,,,,,,,0,0,0,0,1,conGreen.xlsx,green vertical,Look for green vertical bar (target) and indicate if it is present or absent in the array. If green vertical target is present press 'p' and if absent press 'a'. Press SPACE to start.,green_bar_example.jpg,,,,egGreen.xlsx,,
,,,,,,,,,,,,space,66.17602,space,7.464415,a,1,2.283355,space,0.75261,0,0,0,8,1,tex_easy_TA/1.7_r=TA_seed=3.png,,0,,texture,a,easy,5d68c8aa40524c00189e8ac2,29,Male,2021-05-03_11h11.18.916,search_v5,2021.1.2,Win32,60.77180188,,,,,,,,,,,,,,,,,,,,,,,,
,,,,,,,,,,,,,,,,a,1,0.78082,space,0.390065,0,1,1,6,1,tex_mid_TA/1.65_r=TA_seed=2.png,,0,,texture,a,mid,5d68c8aa40524c00189e8ac2,29,Male,2021-05-03_11h11.18.916,search_v5,2021.1.2,Win32,60.77180188,,,,,,,,,,,,,,,,,,,,,,,,
,,,,,,,,,,,,,,,,a,1,0.50147,space,0.404535,0,2,2,10,1,tex_hard_TA/1.6_r=TA_seed=1.png,,0,,texture,a,hard,5d68c8aa40524c00189e8ac2,29,Male,2021-05-03_11h11.18.916,search_v5,2021.1.2,Win32,60.77180188,,,,,,,,,,,,,,,,,,,,,,,,
,,,,,,,,,,,,,,,,a,0,0.500355,space,0.639185,0,3,3,1,1,tex_easy_TP/1.7_r=150_phi=315_seed=3.png,,1,,texture,p,easy,5d68c8aa40524c00189e8ac2,29,Male,2021-05-03_11h11.18.916,search_v5,2021.1.2,Win32,60.77180188,,,,,,,,,,,,,,,,,,,,,,,,
,,,,,,,,,,,,,,,,a,0,2.85603,space,0.57448,0,4,4,0,1,tex_easy_TP/1.7_r=150_phi=225_seed=3.png,,1,,texture,p,easy,5d68c8aa40524c00189e8ac2,29,Male,2021-05-03_11h11.18.916,search_v5,2021.1.2,Win32,60.77180188,,,,,,,,,,,,,,,,,,,,,,,,
,,,,,,,,,,,,,,,,a,0,5.516915,space,0.590255,0,5,5,2,1,tex_hard_TP/1.6_r=100_phi=0_seed=1.png,,1,,texture,p,hard,5d68c8aa40524c00189e8ac2,29,Male,2021-05-03_11h11.18.916,search_v5,2021.1.2,Win32,60.77180188,,,,,,,,,,,,,,,,,,,,,,,,
,,,,,,,,,,,,,,,,p,1,0.980705,space,0.569915,0,6,6,3,1,tex_hard_TP/1.6_r=100_phi=270_seed=1.png,,1,,texture,p,hard,5d68c8aa40524c00189e8ac2,29,Male,2021-05-03_11h11.18.916,search_v5,2021.1.2,Win32,60.77180188,,,,,,,,,,,,,,,,,,,,,,,,
,,,,,,,,,,,,,,,,a,0,1.28566,space,0.543775,0,7,7,5,1,tex_mid_TP/1.65_r=100_phi=270_seed=2.png,,1,,texture,p,mid,5d68c8aa40524c00189e8ac2,29,Male,2021-05-03_11h11.18.916,search_v5,2021.1.2,Win32,60.77180188,,,,,,,,,,,,,,,,,,,,,,,,
,,,,,,,,,,,,,,,,p,1,0.8468,space,0.54816,0,8,8,4,1,tex_mid_TP/1.65_r=100_phi=225_seed=2.png,,1,,texture,p,mid,5d68c8aa40524c00189e8ac2,29,Male,2021-05-03_11h11.18.916,search_v5,2021.1.2,Win32,60.77180188,,,,,,,,,,,,,,,,,,,,,,,,
,,,,,,,,,,,,,,,,p,0,0.66171,space,0.626435,0,9,9,11,1,tex_hard_TA/1.6_r=TA_seed=1.png,,0,,texture,a,hard,5d68c8aa40524c00189e8ac2,29,Male,2021-05-03_11h11.18.916,search_v5,2021.1.2,Win32,60.77180188,,,,,,,,,,,,,,,,,,,,,,,,
,,,,,,,,,,,,,,,,a,1,1.310395,space,0.70275,0,10,10,7,1,tex_mid_TA/1.65_r=TA_seed=2.png,,0,,texture,a,mid,5d68c8aa40524c00189e8ac2,29,Male,2021-05-03_11h11.18.916,search_v5,2021.1.2,Win32,60.77180188,,,,,,,,,,,,,,,,,,,,,,,,
,,,,,,,,,,,,,,,,a,1,8.154935,space,0.464595,0,11,11,9,1,tex_easy_TA/1.7_r=TA_seed=3.png,,0,,texture,a,easy,5d68c8aa40524c00189e8ac2,29,Male,2021-05-03_11h11.18.916,search_v5,2021.1.2,Win32,60.77180188,,,,,,,,,,,,,,,,,,,,,,,,
,,,,,,,,,,,,,,,,a,0,2.49189,,,,,,,,tex_easy_TP/1.7_r=200_phi=225_seed=3.png,,1,,texture,p,easy,5d68c8aa40524c00189e8ac2,29,Male,2021-05-03_11h11.18.916,search_v5,2021.1.2,Win32,60.77180188,space,1.46821,space,1.690555,0,0,0,14,1,,,,,,,,,,,,,,,
,,,,,,,,,,,,,,,,p,1,4.870355,,,,,,,,tex_easy_TP/1.7_r=450_phi=315_seed=3.png,,1,,texture,p,easy,5d68c8aa40524c00189e8ac2,29,Male,2021-05-03_11h11.18.916,search_v5,2021.1.2,Win32,60.77180188,,,space,0.550225,0,1,1,34,1,,,,,,,,,,,,,,,
,,,,,,,,,,,,,,,,p,1,3.325195,,,,,,,,tex_mid_TP/1.65_r=100_phi=270_seed=2.png,,1,,texture,p,mid,5d68c8aa40524c00189e8ac2,29,Male,2021-05-03_11h11.18.916,search_v5,2021.1.2,Win32,60.77180188,,,space,0.419115,0,2,2,5,1,,,,,,,,,,,,,,,
,,,,,,,,,,,,,,,,a,0,1.39642,,,,,,,,tex_hard_TP/1.6_r=200_phi=135_seed=1.png,,1,,texture,p,hard,5d68c8aa40524c00189e8ac2,29,Male,2021-05-03_11h11.18.916,search_v5,2021.1.2,Win32,60.77180188,,,space,4.81465,0,3,3,38,1,,,,,,,,,,,,,,,
,,,,,,,,,,,,,,,,p,1,4.85254,,,,,,,,tex_hard_TP/1.6_r=450_phi=90_seed=1.png,,1,,texture,p,hard,5d68c8aa40524c00189e8ac2,29,Male,2021-05-03_11h11.18.916,search_v5,2021.1.2,Win32,60.77180188,,,space,0.525645,0,4,4,54,1,,,,,,,,,,,,,,,
,,,,,,,,,,,,,,,,p,0,1.980045,,,,,,,,tex_hard_TA/1.6_r=TA_seed=1.png,,0,,texture,a,hard,5d68c8aa40524c00189e8ac2,29,Male,2021-05-03_11h11.18.916,search_v5,2021.1.2,Win32,60.77180188,,,space,69.15413,0,5,5,138,1,,,,,,,,,,,,,,,
,,,,,,,,,,,,,,,,p,0,5.38904,,,,,,,,tex_mid_TA/1.65_r=TA_seed=2.png,,0,,texture,a,mid,5d68c8aa40524c00189e8ac2,29,Male,2021-05-03_11h11.18.916,search_v5,2021.1.2,Win32,60.77180188,,,space,8.52573,0,6,6,99,1,,,,,,,,,,,,,,,
,,,,,,,,,,,,,,,,p,0,2.55665,,,,,,,,tex_hard_TA/1.6_r=TA_seed=1.png,,0,,texture,a,hard,5d68c8aa40524c00189e8ac2,29,Male,2021-05-03_11h11.18.916,search_v5,2021.1.2,Win32,60.77180188,,,space,5.343915,0,7,7,127,1,,,,,,,,,,,,,,,
,,,,,,,,,,,,,,,,p,0,13.858075,,,,,,,,tex_hard_TA/1.6_r=TA_seed=1.png,,0,,texture,a,hard,5d68c8aa40524c00189e8ac2,29,Male,2021-05-03_11h11.18.916,search_v5,2021.1.2,Win32,60.77180188,,,space,0.44585,0,8,8,132,1,,,,,,,,,,,,,,,
,,,,,,,,,,,,,,,,p,1,4.12783,,,,,,,,tex_mid_TP/1.65_r=150_phi=45_seed=2.png,,1,,texture,p,mid,5d68c8aa40524c00189e8ac2,29,Male,2021-05-03_11h11.18.916,search_v5,2021.1.2,Win32,60.77180188,,,space,65.477715,0,9,9,59,1,,,,,,,,,,,,,,,
,,,,,,,,,,,,,,,,a,0,3.453645,,,,,,,,tex_mid_TP/1.65_r=50_phi=315_seed=2.png,,1,,texture,p,mid,5d68c8aa40524c00189e8ac2,29,Male,2021-05-03_11h11.18.916,search_v5,2021.1.2,Win32,60.77180188,,,space,1.65926,0,10,10,79,1,,,,,,,,,,,,,,,
,,,,,,,,,,,,,,,,p,1,2.37728,,,,,,,,tex_easy_TP/1.7_r=350_phi=135_seed=3.png,,1,,texture,p,easy,5d68c8aa40524c00189e8ac2,29,Male,2021-05-03_11h11.18.916,search_v5,2021.1.2,Win32,60.77180188,,,space,0.468535,0,11,11,24,1,,,,,,,,,,,,,,,
,,,,,,,,,,,,,,,,p,0,0.82462,,,,,,,,tex_easy_TA/1.7_r=TA_seed=3.png,,0,,texture,a,easy,5d68c8aa40524c00189e8ac2,29,Male,2021-05-03_11h11.18.916,search_v5,2021.1.2,Win32,60.77180188,,,space,2.896345,0,12,12,116,1,,,,,,,,,,,,,,,
,,,,,,,,,,,,,,,,p,0,1.45148,,,,,,,,tex_easy_TA/1.7_r=TA_seed=3.png,,0,,texture,a,easy,5d68c8aa40524c00189e8ac2,29,Male,2021-05-03_11h11.18.916,search_v5,2021.1.2,Win32,60.77180188,,,space,0.904935,0,13,13,122,1,,,,,,,,,,,,,,,
,,,,,,,,,,,,,,,,a,1,2.06172,,,,,,,,tex_easy_TA/1.7_r=TA_seed=3.png,,0,,texture,a,easy,5d68c8aa40524c00189e8ac2,29,Male,2021-05-03_11h11.18.916,search_v5,2021.1.2,Win32,60.77180188,,,space,0.56905,0,14,14,108,1,,,,,,,,,,,,,,,
,,,,,,,,,,,,,,,,a,1,2.31478,,,,,,,,tex_easy_TA/1.7_r=TA_seed=3.png,,0,,texture,a,easy,5d68c8aa40524c00189e8ac2,29,Male,2021-05-03_11h11.18.916,search_v5,2021.1.2,Win32,60.77180188,,,space,0.471555,0,15,15,104,1,,,,,,,,,,,,,,,
,,,,,,,,,,,,,,,,a,1,1.6955,,,,,,,,tex_hard_TA/1.6_r=TA_seed=1.png,,0,,texture,a,hard,5d68c8aa40524c00189e8ac2,29,Male,2021-05-03_11h11.18.916,search_v5,2021.1.2,Win32,60.77180188,,,space,0.55356,0,16,16,143,1,,,,,,,,,,,,,,,
,,,,,,,,,,,,,,,,a,1,0.82991,,,,,,,,tex_hard_TA/1.6_r=TA_seed=1.png,,0,,texture,a,hard,5d68c8aa40524c00189e8ac2,29,Male,2021-05-03_11h11.18.916,search_v5,2021.1.2,Win32,60.77180188,,,space,0.43459,0,17,17,141,1,,,,,,,,,,,,,,,
,,,,,,,,,,,,,,,,a,0,0.79793,,,,,,,,tex_hard_TP/1.6_r=300_phi=225_seed=1.png,,1,,texture,p,hard,5d68c8aa40524c00189e8ac2,29,Male,2021-05-03_11h11.18.916,search_v5,2021.1.2,Win32,60.77180188,,,space,1.54558,0,18,18,44,1,,,,,,,,,,,,,,,
,,,,,,,,,,,,,,,,p,0,89.525455,,,,,,,,tex_easy_TA/1.7_r=TA_seed=3.png,,0,,texture,a,easy,5d68c8aa40524c00189e8ac2,29,Male,2021-05-03_11h11.18.916,search_v5,2021.1.2,Win32,60.77180188,,,space,1.579535,0,19,19,126,1,,,,,,,,,,,,,,,
,,,,,,,,,,,,,,,,a,0,1.6261,,,,,,,,tex_easy_TP/1.7_r=150_phi=90_seed=3.png,,1,,texture,p,easy,5d68c8aa40524c00189e8ac2,29,Male,2021-05-03_11h11.18.916,search_v5,2021.1.2,Win32,60.77180188,,,space,0.218505,0,20,20,12,1,,,,,,,,,,,,,,,
,,,,,,,,,,,,,,,,p,1,2.179755,,,,,,,,tex_easy_TP/1.7_r=150_phi=225_seed=3.png,,1,,texture,p,easy,5d68c8aa40524c00189e8ac2,29,Male,2021-05-03_11h11.18.916,search_v5,2021.1.2,Win32,60.77180188,,,space,0.58347,0,21,21,0,1,,,,,,,,,,,,,,,
,,,,,,,,,,,,,,,,p,0,1.12641,,,,,,,,tex_mid_TA/1.65_r=TA_seed=2.png,,0,,texture,a,mid,5d68c8aa40524c00189e8ac2,29,Male,2021-05-03_11h11.18.916,search_v5,2021.1.2,Win32,60.77180188,,,space,1.04818,0,22,22,81,1,,,,,,,,,,,,,,,
,,,,,,,,,,,,,,,,p,1,5.045345,,,,,,,,tex_mid_TP/1.65_r=300_phi=315_seed=2.png,,1,,texture,p,mid,5d68c8aa40524c00189e8ac2,29,Male,2021-05-03_11h11.18.916,search_v5,2021.1.2,Win32,60.77180188,,,space,0.501645,0,23,23,68,1,,,,,,,,,,,,,,,
,,,,,,,,,,,,,,,,a,0,0.874905,,,,,,,,tex_hard_TP/1.6_r=100_phi=0_seed=1.png,,1,,texture,p,hard,5d68c8aa40524c00189e8ac2,29,Male,2021-05-03_11h11.18.916,search_v5,2021.1.2,Win32,60.77180188,,,space,0.086875,0,24,24,2,1,,,,,,,,,,,,,,,
,,,,,,,,,,,,,,,,a,0,1.12548,,,,,,,,tex_hard_TP/1.6_r=450_phi=135_seed=1.png,,1,,texture,p,hard,5d68c8aa40524c00189e8ac2,29,Male,2021-05-03_11h11.18.916,search_v5,2021.1.2,Win32,60.77180188,,,space,0.385915,0,25,25,52,1,,,,,,,,,,,,,,,
,,,,,,,,,,,,,,,,p,0,1.86062,,,,,,,,tex_hard_TA/1.6_r=TA_seed=1.png,,0,,texture,a,hard,5d68c8aa40524c00189e8ac2,29,Male,2021-05-03_11h11.18.916,search_v5,2021.1.2,Win32,60.77180188,,,space,0.539965,0,26,26,129,1,,,,,,,,,,,,,,,
,,,,,,,,,,,,,,,,a,1,2.70838,,,,,,,,tex_hard_TA/1.6_r=TA_seed=1.png,,0,,texture,a,hard,5d68c8aa40524c00189e8ac2,29,Male,2021-05-03_11h11.18.916,search_v5,2021.1.2,Win32,60.77180188,,,space,0.5483,0,27,27,144,1,,,,,,,,,,,,,,,
,,,,,,,,,,,,,,,,a,1,0.69127,,,,,,,,tex_mid_TA/1.65_r=TA_seed=2.png,,0,,texture,a,mid,5d68c8aa40524c00189e8ac2,29,Male,2021-05-03_11h11.18.916,search_v5,2021.1.2,Win32,60.77180188,,,space,0.48335,0,28,28,6,1,,,,,,,,,,,,,,,
,,,,,,,,,,,,,,,,a,0,0.64091,,,,,,,,tex_mid_TP/1.65_r=450_phi=0_seed=2.png,,1,,texture,p,mid,5d68c8aa40524c00189e8ac2,29,Male,2021-05-03_11h11.18.916,search_v5,2021.1.2,Win32,60.77180188,,,space,1.16617,0,29,29,75,1,,,,,,,,,,,,,,,
,,,,,,,,,,,,,,,,a,0,1.576095,,,,,,,,tex_mid_TP/1.65_r=250_phi=225_seed=2.png,,1,,texture,p,mid,5d68c8aa40524c00189e8ac2,29,Male,2021-05-03_11h11.18.916,search_v5,2021.1.2,Win32,60.77180188,,,space,0.472505,0,30,30,64,1,,,,,,,,,,,,,,,
,,,,,,,,,,,,,,,,p,0,0.846345,,,,,,,,tex_easy_TA/1.7_r=TA_seed=3.png,,0,,texture,a,easy,5d68c8aa40524c00189e8ac2,29,Male,2021-05-03_11h11.18.916,search_v5,2021.1.2,Win32,60.77180188,,,space,0.201475,0,31,31,8,1,,,,,,,,,,,,,,,
,,,,,,,,,,,,,,,,p,0,1.96138,,,,,,,,tex_hard_TA/1.6_r=TA_seed=1.png,,0,,texture,a,hard,5d68c8aa40524c00189e8ac2,29,Male,2021-05-03_11h11.18.916,search_v5,2021.1.2,Win32,60.77180188,,,space,0.39102,0,32,32,145,1,,,,,,,,,,,,,,,
,,,,,,,,,,,,,,,,p,1,1.61634,,,,,,,,tex_mid_TP/1.65_r=300_phi=225_seed=2.png,,1,,texture,p,mid,5d68c8aa40524c00189e8ac2,29,Male,2021-05-03_11h11.18.916,search_v5,2021.1.2,Win32,60.77180188,,,space,0.53682,0,33,33,67,1,,,,,,,,,,,,,,,
,,,,,,,,,,,,,,,,a,1,0.770715,,,,,,,,tex_easy_TA/1.7_r=TA_seed=3.png,,0,,texture,a,easy,5d68c8aa40524c00189e8ac2,29,Male,2021-05-03_11h11.18.916,search_v5,2021.1.2,Win32,60.77180188,,,space,0.48545,0,34,34,114,1,,,,,,,,,,,,,,,
,,,,,,,,,,,,,,,,a,1,0.68559,,,,,,,,tex_mid_TA/1.65_r=TA_seed=2.png,,0,,texture,a,mid,5d68c8aa40524c00189e8ac2,29,Male,2021-05-03_11h11.18.916,search_v5,2021.1.2,Win32,60.77180188,,,space,0.434965,0,35,35,100,1,,,,,,,,,,,,,,,
,,,,,,,,,,,,,,,,a,0,1.745195,,,,,,,,tex_mid_TP/1.65_r=200_phi=225_seed=2.png,,1,,texture,p,mid,5d68c8aa40524c00189e8ac2,29,Male,2021-05-03_11h11.18.916,search_v5,2021.1.2,Win32,60.77180188,,,space,1.42278,0,36,36,60,1,,,,,,,,,,,,,,,
,,,,,,,,,,,,,,,,p,1,1.34117,,,,,,,,tex_easy_TP/1.7_r=300_phi=225_seed=3.png,,1,,texture,p,easy,5d68c8aa40524c00189e8ac2,29,Male,2021-05-03_11h11.18.916,search_v5,2021.1.2,Win32,60.77180188,,,space,0.416725,0,37,37,22,1,,,,,,,,,,,,,,,
,,,,,,,,,,,,,,,,a,0,0.77053,,,,,,,,tex_hard_TP/1.6_r=400_phi=315_seed=1.png,,1,,texture,p,hard,5d68c8aa40524c00189e8ac2,29,Male,2021-05-03_11h11.18.916,search_v5,2021.1.2,Win32,60.77180188,,,space,0.746235,0,38,38,50,1,,,,,,,,,,,,,,,
,,,,,,,,,,,,,,,,a,1,1.037545,,,,,,,,tex_easy_TA/1.7_r=TA_seed=3.png,,0,,texture,a,easy,5d68c8aa40524c00189e8ac2,29,Male,2021-05-03_11h11.18.916,search_v5,2021.1.2,Win32,60.77180188,,,space,0.40626,0,39,39,110,1,,,,,,,,,,,,,,,
,,,,,,,,,,,,,,,,a,1,0.671815,,,,,,,,tex_easy_TA/1.7_r=TA_seed=3.png,,0,,texture,a,easy,5d68c8aa40524c00189e8ac2,29,Male,2021-05-03_11h11.18.916,search_v5,2021.1.2,Win32,60.77180188,,,space,0.37653,0,40,40,117,1,,,,,,,,,,,,,,,
,,,,,,,,,,,,,,,,p,1,0.72621,,,,,,,,tex_mid_TP/1.65_r=200_phi=270_seed=2.png,,1,,texture,p,mid,5d68c8aa40524c00189e8ac2,29,Male,2021-05-03_11h11.18.916,search_v5,2021.1.2,Win32,60.77180188,,,space,0.42417,0,41,41,61,1,,,,,,,,,,,,,,,
,,,,,,,,,,,,,,,,p,0,0.7242,,,,,,,,tex_mid_TA/1.65_r=TA_seed=2.png,,0,,texture,a,mid,5d68c8aa40524c00189e8ac2,29,Male,2021-05-03_11h11.18.916,search_v5,2021.1.2,Win32,60.77180188,,,space,1.383115,0,42,42,82,1,,,,,,,,,,,,,,,
,,,,,,,,,,,,,,,,a,0,1.07401,,,,,,,,tex_hard_TP/1.6_r=400_phi=90_seed=1.png,,1,,texture,p,hard,5d68c8aa40524c00189e8ac2,29,Male,2021-05-03_11h11.18.916,search_v5,2021.1.2,Win32,60.77180188,,,space,0.50253,0,43,43,51,1,,,,,,,,,,,,,,,
,,,,,,,,,,,,,,,,a,0,2.02718,,,,,,,,tex_easy_TP/1.7_r=350_phi=315_seed=3.png,,1,,texture,p,easy,5d68c8aa40524c00189e8ac2,29,Male,2021-05-03_11h11.18.916,search_v5,2021.1.2,Win32,60.77180188,,,space,0.34893,0,44,44,26,1,,,,,,,,,,,,,,,
,,,,,,,,,,,,,,,,p,0,0.978675,,,,,,,,tex_easy_TA/1.7_r=TA_seed=3.png,,0,,texture,a,easy,5d68c8aa40524c00189e8ac2,29,Male,2021-05-03_11h11.18.916,search_v5,2021.1.2,Win32,60.77180188,,,space,2.830895,0,45,45,111,1,,,,,,,,,,,,,,,
,,,,,,,,,,,,,,,,p,1,1.60385,,,,,,,,tex_hard_TP/1.6_r=250_phi=225_seed=1.png,,1,,texture,p,hard,5d68c8aa40524c00189e8ac2,29,Male,2021-05-03_11h11.18.916,search_v5,2021.1.2,Win32,60.77180188,,,space,0.465035,0,46,46,42,1,,,,,,,,,,,,,,,
,,,,,,,,,,,,,,,,p,0,0.69553,,,,,,,,tex_mid_TA/1.65_r=TA_seed=2.png,,0,,texture,a,mid,5d68c8aa40524c00189e8ac2,29,Male,2021-05-03_11h11.18.916,search_v5,2021.1.2,Win32,60.77180188,,,space,0.54257,0,47,47,83,1,,,,,,,,,,,,,,,
,,,,,,,,,,,,,,,,a,0,1.189235,,,,,,,,tex_hard_TP/1.6_r=50_phi=135_seed=1.png,,1,,texture,p,hard,5d68c8aa40524c00189e8ac2,29,Male,2021-05-03_11h11.18.916,search_v5,2021.1.2,Win32,60.77180188,,,space,1.20124,0,48,48,55,1,,,,,,,,,,,,,,,
,,,,,,,,,,,,,,,,a,0,4.77393,,,,,,,,tex_mid_TP/1.65_r=250_phi=45_seed=2.png,,1,,texture,p,mid,5d68c8aa40524c00189e8ac2,29,Male,2021-05-03_11h11.18.916,search_v5,2021.1.2,Win32,60.77180188,,,space,0.60787,0,49,49,65,1,,,,,,,,,,,,,,,
,,,,,,,,,,,,,,,,p,0,2.977775,,,,,,,,tex_hard_TA/1.6_r=TA_seed=1.png,,0,,texture,a,hard,5d68c8aa40524c00189e8ac2,29,Male,2021-05-03_11h11.18.916,search_v5,2021.1.2,Win32,60.77180188,,,space,0.42509,0,50,50,140,1,,,,,,,,,,,,,,,
,,,,,,,,,,,,,,,,p,1,2.028495,,,,,,,,tex_mid_TP/1.65_r=50_phi=270_seed=2.png,,1,,texture,p,mid,5d68c8aa40524c00189e8ac2,29,Male,2021-05-03_11h11.18.916,search_v5,2021.1.2,Win32,60.77180188,,,space,0.254495,0,51,51,78,1,,,,,,,,,,,,,,,
,,,,,,,,,,,,,,,,a,0,1.155645,,,,,,,,tex_hard_TP/1.6_r=300_phi=90_seed=1.png,,1,,texture,p,hard,5d68c8aa40524c00189e8ac2,29,Male,2021-05-03_11h11.18.916,search_v5,2021.1.2,Win32,60.77180188,,,space,0.44906,0,52,52,46,1,,,,,,,,,,,,,,,
,,,,,,,,,,,,,,,,p,1,2.27319,,,,,,,,tex_easy_TP/1.7_r=400_phi=315_seed=3.png,,1,,texture,p,easy,5d68c8aa40524c00189e8ac2,29,Male,2021-05-03_11h11.18.916,search_v5,2021.1.2,Win32,60.77180188,,,space,0.433105,0,53,53,30,1,,,,,,,,,,,,,,,
,,,,,,,,,,,,,,,,a,1,0.9741,,,,,,,,tex_hard_TA/1.6_r=TA_seed=1.png,,0,,texture,a,hard,5d68c8aa40524c00189e8ac2,29,Male,2021-05-03_11h11.18.916,search_v5,2021.1.2,Win32,60.77180188,,,space,0.384725,0,54,54,130,1,,,,,,,,,,,,,,,
,,,,,,,,,,,,,,,,p,0,1.001545,,,,,,,,tex_easy_TA/1.7_r=TA_seed=3.png,,0,,texture,a,easy,5d68c8aa40524c00189e8ac2,29,Male,2021-05-03_11h11.18.916,search_v5,2021.1.2,Win32,60.77180188,,,space,1.09622,0,55,55,120,1,,,,,,,,,,,,,,,
,,,,,,,,,,,,,,,,a,0,1.647745,,,,,,,,tex_hard_TP/1.6_r=350_phi=90_seed=1.png,,1,,texture,p,hard,5d68c8aa40524c00189e8ac2,29,Male,2021-05-03_11h11.18.916,search_v5,2021.1.2,Win32,60.77180188,,,space,0.00325,0,56,56,48,1,,,,,,,,,,,,,,,
,,,,,,,,,,,,,,,,a,0,1.193205,,,,,,,,tex_mid_TP/1.65_r=300_phi=135_seed=2.png,,1,,texture,p,mid,5d68c8aa40524c00189e8ac2,29,Male,2021-05-03_11h11.18.916,search_v5,2021.1.2,Win32,60.77180188,,,space,0.33964,0,57,57,66,1,,,,,,,,,,,,,,,
,,,,,,,,,,,,,,,,p,1,6.41758,,,,,,,,tex_mid_TP/1.65_r=300_phi=90_seed=2.png,,1,,texture,p,mid,5d68c8aa40524c00189e8ac2,29,Male,2021-05-03_11h11.18.916,search_v5,2021.1.2,Win32,60.77180188,,,space,0.4799,0,58,58,69,1,,,,,,,,,,,,,,,
,,,,,,,,,,,,,,,,a,0,4.410885,,,,,,,,tex_hard_TP/1.6_r=150_phi=135_seed=1.png,,1,,texture,p,hard,5d68c8aa40524c00189e8ac2,29,Male,2021-05-03_11h11.18.916,search_v5,2021.1.2,Win32,60.77180188,,,space,0.132655,0,59,59,36,1,,,,,,,,,,,,,,,
,,,,,,,,,,,,,,,,p,1,4.9877,,,,,,,,tex_mid_TP/1.65_r=450_phi=90_seed=2.png,,1,,texture,p,mid,5d68c8aa40524c00189e8ac2,29,Male,2021-05-03_11h11.18.916,search_v5,2021.1.2,Win32,60.77180188,,,space,0.515865,0,60,60,77,1,,,,,,,,,,,,,,,
,,,,,,,,,,,,,,,,p,0,1.464375,,,,,,,,tex_mid_TA/1.65_r=TA_seed=2.png,,0,,texture,a,mid,5d68c8aa40524c00189e8ac2,29,Male,2021-05-03_11h11.18.916,search_v5,2021.1.2,Win32,60.77180188,,,space,0.208115,0,61,61,103,1,,,,,,,,,,,,,,,
,,,,,,,,,,,,,,,,p,1,4.943355,,,,,,,,tex_mid_TP/1.65_r=100_phi=45_seed=2.png,,1,,texture,p,mid,5d68c8aa40524c00189e8ac2,29,Male,2021-05-03_11h11.18.916,search_v5,2021.1.2,Win32,60.77180188,,,space,0.62946,0,62,62,58,1,,,,,,,,,,,,,,,
,,,,,,,,,,,,,,,,a,0,1.11563,,,,,,,,tex_easy_TP/1.7_r=250_phi=90_seed=3.png,,1,,texture,p,easy,5d68c8aa40524c00189e8ac2,29,Male,2021-05-03_11h11.18.916,search_v5,2021.1.2,Win32,60.77180188,,,space,0.38169,0,63,63,20,1,,,,,,,,,,,,,,,
,,,,,,,,,,,,,,,,p,1,2.636665,,,,,,,,tex_mid_TP/1.65_r=350_phi=0_seed=2.png,,1,,texture,p,mid,5d68c8aa40524c00189e8ac2,29,Male,2021-05-03_11h11.18.916,search_v5,2021.1.2,Win32,60.77180188,,,space,0.4789,0,64,64,70,1,,,,,,,,,,,,,,,
,,,,,,,,,,,,,,,,p,0,1.48953,,,,,,,,tex_mid_TA/1.65_r=TA_seed=2.png,,0,,texture,a,mid,5d68c8aa40524c00189e8ac2,29,Male,2021-05-03_11h11.18.916,search_v5,2021.1.2,Win32,60.77180188,,,space,0.04979,0,65,65,85,1,,,,,,,,,,,,,,,
,,,,,,,,,,,,,,,,p,1,2.17057,,,,,,,,tex_easy_TP/1.7_r=200_phi=90_seed=3.png,,1,,texture,p,easy,5d68c8aa40524c00189e8ac2,29,Male,2021-05-03_11h11.18.916,search_v5,2021.1.2,Win32,60.77180188,,,space,0.550605,0,66,66,16,1,,,,,,,,,,,,,,,
,,,,,,,,,,,,,,,,a,0,1.832315,,,,,,,,tex_hard_TP/1.6_r=100_phi=270_seed=1.png,,1,,texture,p,hard,5d68c8aa40524c00189e8ac2,29,Male,2021-05-03_11h11.18.916,search_v5,2021.1.2,Win32,60.77180188,,,space,0.017455,0,67,67,3,1,,,,,,,,,,,,,,,
,,,,,,,,,,,,,,,,a,1,0.854795,,,,,,,,tex_mid_TA/1.65_r=TA_seed=2.png,,0,,texture,a,mid,5d68c8aa40524c00189e8ac2,29,Male,2021-05-03_11h11.18.916,search_v5,2021.1.2,Win32,60.77180188,,,space,0.43228,0,68,68,86,1,,,,,,,,,,,,,,,
,,,,,,,,,,,,,,,,p,0,1.14914,,,,,,,,tex_mid_TA/1.65_r=TA_seed=2.png,,0,,texture,a,mid,5d68c8aa40524c00189e8ac2,29,Male,2021-05-03_11h11.18.916,search_v5,2021.1.2,Win32,60.77180188,,,space,0.220775,0,69,69,102,1,,,,,,,,,,,,,,,
,,,,,,,,,,,,,,,,a,1,0.69302,,,,,,,,tex_mid_TA/1.65_r=TA_seed=2.png,,0,,texture,a,mid,5d68c8aa40524c00189e8ac2,29,Male,2021-05-03_11h11.18.916,search_v5,2021.1.2,Win32,60.77180188,,,space,0.330285,0,70,70,90,1,,,,,,,,,,,,,,,
,,,,,,,,,,,,,,,,a,0,0.767705,,,,,,,,tex_hard_TP/1.6_r=150_phi=90_seed=1.png,,1,,texture,p,hard,5d68c8aa40524c00189e8ac2,29,Male,2021-05-03_11h11.18.916,search_v5,2021.1.2,Win32,60.77180188,,,space,0.352165,0,71,71,37,1,,,,,,,,,,,,,,,
,,,,,,,,,,,,,,,,a,0,6.981385,,,,,,,,tex_mid_TP/1.65_r=350_phi=90_seed=2.png,,1,,texture,p,mid,5d68c8aa40524c00189e8ac2,29,Male,2021-05-03_11h11.18.916,search_v5,2021.1.2,Win32,60.77180188,,,space,0.20096,0,72,72,71,1,,,,,,,,,,,,,,,
,,,,,,,,,,,,,,,,p,0,0.743655,,,,,,,,tex_mid_TA/1.65_r=TA_seed=2.png,,0,,texture,a,mid,5d68c8aa40524c00189e8ac2,29,Male,2021-05-03_11h11.18.916,search_v5,2021.1.2,Win32,60.77180188,,,space,0.654035,0,73,73,98,1,,,,,,,,,,,,,,,
,,,,,,,,,,,,,,,,a,0,1.84036,,,,,,,,tex_mid_TP/1.65_r=400_phi=315_seed=2.png,,1,,texture,p,mid,5d68c8aa40524c00189e8ac2,29,Male,2021-05-03_11h11.18.916,search_v5,2021.1.2,Win32,60.77180188,,,space,6.420725,0,74,74,73,1,,,,,,,,,,,,,,,
,,,,,,,,,,,,,,,,p,0,4.332185,,,,,,,,tex_hard_TA/1.6_r=TA_seed=1.png,,0,,texture,a,hard,5d68c8aa40524c00189e8ac2,29,Male,2021-05-03_11h11.18.916,search_v5,2021.1.2,Win32,60.77180188,,,space,0.43254,0,75,75,146,1,,,,,,,,,,,,,,,
,,,,,,,,,,,,,,,,p,0,2.08199,,,,,,,,tex_hard_TA/1.6_r=TA_seed=1.png,,0,,texture,a,hard,5d68c8aa40524c00189e8ac2,29,Male,2021-05-03_11h11.18.916,search_v5,2021.1.2,Win32,60.77180188,,,space,0.426405,0,76,76,139,1,,,,,,,,,,,,,,,
,,,,,,,,,,,,,,,,p,1,1.01443,,,,,,,,tex_hard_TP/1.6_r=450_phi=315_seed=1.png,,1,,texture,p,hard,5d68c8aa40524c00189e8ac2,29,Male,2021-05-03_11h11.18.916,search_v5,2021.1.2,Win32,60.77180188,,,space,0.399145,0,77,77,53,1,,,,,,,,,,,,,,,
,,,,,,,,,,,,,,,,a,1,0.94339,,,,,,,,tex_easy_TA/1.7_r=TA_seed=3.png,,0,,texture,a,easy,5d68c8aa40524c00189e8ac2,29,Male,2021-05-03_11h11.18.916,search_v5,2021.1.2,Win32,60.77180188,,,space,0.251625,0,78,78,105,1,,,,,,,,,,,,,,,
,,,,,,,,,,,,,,,,a,0,0.60288,,,,,,,,tex_easy_TP/1.7_r=150_phi=315_seed=3.png,,1,,texture,p,easy,5d68c8aa40524c00189e8ac2,29,Male,2021-05-03_11h11.18.916,search_v5,2021.1.2,Win32,60.77180188,,,space,0.34072,0,79,79,1,1,,,,,,,,,,,,,,,
,,,,,,,,,,,,,,,,a,0,1.028165,,,,,,,,tex_mid_TP/1.65_r=200_phi=45_seed=2.png,,1,,texture,p,mid,5d68c8aa40524c00189e8ac2,29,Male,2021-05-03_11h11.18.916,search_v5,2021.1.2,Win32,60.77180188,,,space,0.06,0,80,80,62,1,,,,,,,,,,,,,,,
,,,,,,,,,,,,,,,,a,0,6.65146,,,,,,,,tex_easy_TP/1.7_r=350_phi=225_seed=3.png,,1,,texture,p,easy,5d68c8aa40524c00189e8ac2,29,Male,2021-05-03_11h11.18.916,search_v5,2021.1.2,Win32,60.77180188,,,space,1.217255,0,81,81,25,1,,,,,,,,,,,,,,,
,,,,,,,,,,,,,,,,p,1,2.549885,,,,,,,,tex_easy_TP/1.7_r=400_phi=90_seed=3.png,,1,,texture,p,easy,5d68c8aa40524c00189e8ac2,29,Male,2021-05-03_11h11.18.916,search_v5,2021.1.2,Win32,60.77180188,,,space,0.77556,0,82,82,31,1,,,,,,,,,,,,,,,
,,,,,,,,,,,,,,,,p,0,1.5593,,,,,,,,tex_easy_TA/1.7_r=TA_seed=3.png,,0,,texture,a,easy,5d68c8aa40524c00189e8ac2,29,Male,2021-05-03_11h11.18.916,search_v5,2021.1.2,Win32,60.77180188,,,space,0.071315,0,83,83,112,1,,,,,,,,,,,,,,,
,,,,,,,,,,,,,,,,p,1,2.62316,,,,,,,,tex_hard_TP/1.6_r=300_phi=315_seed=1.png,,1,,texture,p,hard,5d68c8aa40524c00189e8ac2,29,Male,2021-05-03_11h11.18.916,search_v5,2021.1.2,Win32,60.77180188,,,space,0.53139,0,84,84,45,1,,,,,,,,,,,,,,,
,,,,,,,,,,,,,,,,p,1,1.22544,,,,,,,,tex_hard_TP/1.6_r=200_phi=315_seed=1.png,,1,,texture,p,hard,5d68c8aa40524c00189e8ac2,29,Male,2021-05-03_11h11.18.916,search_v5,2021.1.2,Win32,60.77180188,,,space,0.43674,0,85,85,40,1,,,,,,,,,,,,,,,
,,,,,,,,,,,,,,,,a,0,3.2019,,,,,,,,tex_easy_TP/1.7_r=300_phi=135_seed=3.png,,1,,texture,p,easy,5d68c8aa40524c00189e8ac2,29,Male,2021-05-03_11h11.18.916,search_v5,2021.1.2,Win32,60.77180188,,,space,0.45307,0,86,86,21,1,,,,,,,,,,,,,,,
,,,,,,,,,,,,,,,,a,1,3.722425,,,,,,,,tex_hard_TA/1.6_r=TA_seed=1.png,,0,,texture,a,hard,5d68c8aa40524c00189e8ac2,29,Male,2021-05-03_11h11.18.916,search_v5,2021.1.2,Win32,60.77180188,,,space,0.45349,0,87,87,142,1,,,,,,,,,,,,,,,
,,,,,,,,,,,,,,,,p,0,2.597935,,,,,,,,tex_hard_TA/1.6_r=TA_seed=1.png,,0,,texture,a,hard,5d68c8aa40524c00189e8ac2,29,Male,2021-05-03_11h11.18.916,search_v5,2021.1.2,Win32,60.77180188,,,space,0.45187,0,88,88,134,1,,,,,,,,,,,,,,,
,,,,,,,,,,,,,,,,p,0,3.019645,,,,,,,,tex_mid_TA/1.65_r=TA_seed=2.png,,0,,texture,a,mid,5d68c8aa40524c00189e8ac2,29,Male,2021-05-03_11h11.18.916,search_v5,2021.1.2,Win32,60.77180188,,,space,0.316415,0,89,89,97,1,,,,,,,,,,,,,,,
,,,,,,,,,,,,,,,,p,0,3.55257,,,,,,,,tex_mid_TA/1.65_r=TA_seed=2.png,,0,,texture,a,mid,5d68c8aa40524c00189e8ac2,29,Male,2021-05-03_11h11.18.916,search_v5,2021.1.2,Win32,60.77180188,,,space,0.258535,0,90,90,89,1,,,,,,,,,,,,,,,
,,,,,,,,,,,,,,,,p,0,2.44315,,,,,,,,tex_easy_TA/1.7_r=TA_seed=3.png,,0,,texture,a,easy,5d68c8aa40524c00189e8ac2,29,Male,2021-05-03_11h11.18.916,search_v5,2021.1.2,Win32,60.77180188,,,space,4.98001,0,91,91,121,1,,,,,,,,,,,,,,,
,,,,,,,,,,,,,,,,p,1,3.820795,,,,,,,,tex_easy_TP/1.7_r=200_phi=315_seed=3.png,,1,,texture,p,easy,5d68c8aa40524c00189e8ac2,29,Male,2021-05-03_11h11.18.916,search_v5,2021.1.2,Win32,60.77180188,,,space,0.47143,0,92,92,15,1,,,,,,,,,,,,,,,
,,,,,,,,,,,,,,,,p,1,4.201505,,,,,,,,tex_easy_TP/1.7_r=200_phi=135_seed=3.png,,1,,texture,p,easy,5d68c8aa40524c00189e8ac2,29,Male,2021-05-03_11h11.18.916,search_v5,2021.1.2,Win32,60.77180188,,,space,0.533715,0,93,93,13,1,,,,,,,,,,,,,,,
,,,,,,,,,,,,,,,,a,1,4.317225,,,,,,,,tex_hard_TA/1.6_r=TA_seed=1.png,,0,,texture,a,hard,5d68c8aa40524c00189e8ac2,29,Male,2021-05-03_11h11.18.916,search_v5,2021.1.2,Win32,60.77180188,,,space,0.48266,0,94,94,133,1,,,,,,,,,,,,,,,
,,,,,,,,,,,,,,,,p,1,2.72535,,,,,,,,tex_mid_TP/1.65_r=100_phi=225_seed=2.png,,1,,texture,p,mid,5d68c8aa40524c00189e8ac2,29,Male,2021-05-03_11h11.18.916,search_v5,2021.1.2,Win32,60.77180188,,,space,0.501715,0,95,95,4,1,,,,,,,,,,,,,,,
,,,,,,,,,,,,,,,,a,1,3.860575,,,,,,,,tex_mid_TA/1.65_r=TA_seed=2.png,,0,,texture,a,mid,5d68c8aa40524c00189e8ac2,29,Male,2021-05-03_11h11.18.916,search_v5,2021.1.2,Win32,60.77180188,,,space,0.441895,0,96,96,92,1,,,,,,,,,,,,,,,
,,,,,,,,,,,,,,,,p,0,1.961925,,,,,,,,tex_easy_TA/1.7_r=TA_seed=3.png,,0,,texture,a,easy,5d68c8aa40524c00189e8ac2,29,Male,2021-05-03_11h11.18.916,search_v5,2021.1.2,Win32,60.77180188,,,space,0.389515,0,97,97,125,1,,,,,,,,,,,,,,,
,,,,,,,,,,,,,,,,a,1,1.05506,,,,,,,,tex_mid_TA/1.65_r=TA_seed=2.png,,0,,texture,a,mid,5d68c8aa40524c00189e8ac2,29,Male,2021-05-03_11h11.18.916,search_v5,2021.1.2,Win32,60.77180188,,,space,0.42986,0,98,98,87,1,,,,,,,,,,,,,,,
,,,,,,,,,,,,,,,,p,0,2.55049,,,,,,,,tex_mid_TA/1.65_r=TA_seed=2.png,,0,,texture,a,mid,5d68c8aa40524c00189e8ac2,29,Male,2021-05-03_11h11.18.916,search_v5,2021.1.2,Win32,60.77180188,,,space,1.087235,0,99,99,91,1,,,,,,,,,,,,,,,
,,,,,,,,,,,,,,,,p,1,2.074445,,,,,,,,tex_easy_TP/1.7_r=400_phi=135_seed=3.png,,1,,texture,p,easy,5d68c8aa40524c00189e8ac2,29,Male,2021-05-03_11h11.18.916,search_v5,2021.1.2,Win32,60.77180188,,,space,0.4043,0,100,100,28,1,,,,,,,,,,,,,,,
,,,,,,,,,,,,,,,,p,1,1.17727,,,,,,,,tex_easy_TP/1.7_r=300_phi=315_seed=3.png,,1,,texture,p,easy,5d68c8aa40524c00189e8ac2,29,Male,2021-05-03_11h11.18.916,search_v5,2021.1.2,Win32,60.77180188,,,space,0.416485,0,101,101,23,1,,,,,,,,,,,,,,,
,,,,,,,,,,,,,,,,p,1,0.73151,,,,,,,,tex_easy_TP/1.7_r=350_phi=90_seed=3.png,,1,,texture,p,easy,5d68c8aa40524c00189e8ac2,29,Male,2021-05-03_11h11.18.916,search_v5,2021.1.2,Win32,60.77180188,,,space,0.364855,0,102,102,27,1,,,,,,,,,,,,,,,
,,,,,,,,,,,,,,,,p,0,0.571635,,,,,,,,tex_easy_TA/1.7_r=TA_seed=3.png,,0,,texture,a,easy,5d68c8aa40524c00189e8ac2,29,Male,2021-05-03_11h11.18.916,search_v5,2021.1.2,Win32,60.77180188,,,space,0.29968,0,103,103,123,1,,,,,,,,,,,,,,,
,,,,,,,,,,,,,,,,p,1,1.44525,,,,,,,,tex_hard_TP/1.6_r=100_phi=90_seed=1.png,,1,,texture,p,hard,5d68c8aa40524c00189e8ac2,29,Male,2021-05-03_11h11.18.916,search_v5,2021.1.2,Win32,60.77180188,,,space,0.502955,0,104,104,35,1,,,,,,,,,,,,,,,
,,,,,,,,,,,,,,,,p,1,0.774885,,,,,,,,tex_hard_TP/1.6_r=250_phi=315_seed=1.png,,1,,texture,p,hard,5d68c8aa40524c00189e8ac2,29,Male,2021-05-03_11h11.18.916,search_v5,2021.1.2,Win32,60.77180188,,,space,0.38243,0,105,105,43,1,,,,,,,,,,,,,,,
,,,,,,,,,,,,,,,,a,1,1.26921,,,,,,,,tex_easy_TA/1.7_r=TA_seed=3.png,,0,,texture,a,easy,5d68c8aa40524c00189e8ac2,29,Male,2021-05-03_11h11.18.916,search_v5,2021.1.2,Win32,60.77180188,,,space,0.44967,0,106,106,119,1,,,,,,,,,,,,,,,
,,,,,,,,,,,,,,,,p,0,1.58842,,,,,,,,tex_mid_TA/1.65_r=TA_seed=2.png,,0,,texture,a,mid,5d68c8aa40524c00189e8ac2,29,Male,2021-05-03_11h11.18.916,search_v5,2021.1.2,Win32,60.77180188,,,space,0.5027,0,107,107,93,1,,,,,,,,,,,,,,,
,,,,,,,,,,,,,,,,p,0,2.173365,,,,,,,,tex_easy_TA/1.7_r=TA_seed=3.png,,0,,texture,a,easy,5d68c8aa40524c00189e8ac2,29,Male,2021-05-03_11h11.18.916,search_v5,2021.1.2,Win32,60.77180188,,,space,0.178105,0,108,108,106,1,,,,,,,,,,,,,,,
,,,,,,,,,,,,,,,,a,0,1.716425,,,,,,,,tex_easy_TP/1.7_r=400_phi=225_seed=3.png,,1,,texture,p,easy,5d68c8aa40524c00189e8ac2,29,Male,2021-05-03_11h11.18.916,search_v5,2021.1.2,Win32,60.77180188,,,space,0.359055,0,109,109,29,1,,,,,,,,,,,,,,,
,,,,,,,,,,,,,,,,p,1,2.07956,,,,,,,,tex_hard_TP/1.6_r=400_phi=225_seed=1.png,,1,,texture,p,hard,5d68c8aa40524c00189e8ac2,29,Male,2021-05-03_11h11.18.916,search_v5,2021.1.2,Win32,60.77180188,,,space,0.51564,0,110,110,49,1,,,,,,,,,,,,,,,
,,,,,,,,,,,,,,,,p,1,0.749535,,,,,,,,tex_hard_TP/1.6_r=250_phi=135_seed=1.png,,1,,texture,p,hard,5d68c8aa40524c00189e8ac2,29,Male,2021-05-03_11h11.18.916,search_v5,2021.1.2,Win32,60.77180188,,,space,0.41725,0,111,111,41,1,,,,,,,,,,,,,,,
,,,,,,,,,,,,,,,,a,1,1.15331,,,,,,,,tex_hard_TA/1.6_r=TA_seed=1.png,,0,,texture,a,hard,5d68c8aa40524c00189e8ac2,29,Male,2021-05-03_11h11.18.916,search_v5,2021.1.2,Win32,60.77180188,,,space,0.4653,0,112,112,136,1,,,,,,,,,,,,,,,
,,,,,,,,,,,,,,,,a,0,0.856815,,,,,,,,tex_easy_TP/1.7_r=450_phi=225_seed=3.png,,1,,texture,p,easy,5d68c8aa40524c00189e8ac2,29,Male,2021-05-03_11h11.18.916,search_v5,2021.1.2,Win32,60.77180188,,,space,0.298835,0,113,113,33,1,,,,,,,,,,,,,,,
,,,,,,,,,,,,,,,,p,0,2.034355,,,,,,,,tex_easy_TA/1.7_r=TA_seed=3.png,,0,,texture,a,easy,5d68c8aa40524c00189e8ac2,29,Male,2021-05-03_11h11.18.916,search_v5,2021.1.2,Win32,60.77180188,,,space,0.3561,0,114,114,9,1,,,,,,,,,,,,,,,
,,,,,,,,,,,,,,,,a,1,1.624225,,,,,,,,tex_mid_TA/1.65_r=TA_seed=2.png,,0,,texture,a,mid,5d68c8aa40524c00189e8ac2,29,Male,2021-05-03_11h11.18.916,search_v5,2021.1.2,Win32,60.77180188,,,space,0.491145,0,115,115,96,1,,,,,,,,,,,,,,,
,,,,,,,,,,,,,,,,a,1,3.30786,,,,,,,,tex_easy_TA/1.7_r=TA_seed=3.png,,0,,texture,a,easy,5d68c8aa40524c00189e8ac2,29,Male,2021-05-03_11h11.18.916,search_v5,2021.1.2,Win32,60.77180188,,,space,0.449705,0,116,116,115,1,,,,,,,,,,,,,,,
,,,,,,,,,,,,,,,,p,0,1.808775,,,,,,,,tex_mid_TA/1.65_r=TA_seed=2.png,,0,,texture,a,mid,5d68c8aa40524c00189e8ac2,29,Male,2021-05-03_11h11.18.916,search_v5,2021.1.2,Win32,60.77180188,,,space,0.35085,0,117,117,95,1,,,,,,,,,,,,,,,
,,,,,,,,,,,,,,,,a,1,0.73703,,,,,,,,tex_easy_TA/1.7_r=TA_seed=3.png,,0,,texture,a,easy,5d68c8aa40524c00189e8ac2,29,Male,2021-05-03_11h11.18.916,search_v5,2021.1.2,Win32,60.77180188,,,space,0.57367,0,118,118,124,1,,,,,,,,,,,,,,,
,,,,,,,,,,,,,,,,p,1,1.23485,,,,,,,,tex_hard_TP/1.6_r=200_phi=225_seed=1.png,,1,,texture,p,hard,5d68c8aa40524c00189e8ac2,29,Male,2021-05-03_11h11.18.916,search_v5,2021.1.2,Win32,60.77180188,,,space,0.518805,0,119,119,39,1,,,,,,,,,,,,,,,
,,,,,,,,,,,,,,,,a,1,1.920175,,,,,,,,tex_mid_TA/1.65_r=TA_seed=2.png,,0,,texture,a,mid,5d68c8aa40524c00189e8ac2,29,Male,2021-05-03_11h11.18.916,search_v5,2021.1.2,Win32,60.77180188,,,space,0.43728,0,120,120,7,1,,,,,,,,,,,,,,,
,,,,,,,,,,,,,,,,p,1,0.94462,,,,,,,,tex_easy_TP/1.7_r=250_phi=135_seed=3.png,,1,,texture,p,easy,5d68c8aa40524c00189e8ac2,29,Male,2021-05-03_11h11.18.916,search_v5,2021.1.2,Win32,60.77180188,,,space,0.322145,0,121,121,17,1,,,,,,,,,,,,,,,
,,,,,,,,,,,,,,,,p,0,1.30725,,,,,,,,tex_easy_TA/1.7_r=TA_seed=3.png,,0,,texture,a,easy,5d68c8aa40524c00189e8ac2,29,Male,2021-05-03_11h11.18.916,search_v5,2021.1.2,Win32,60.77180188,,,space,0.282225,0,122,122,113,1,,,,,,,,,,,,,,,
,,,,,,,,,,,,,,,,a,0,3.56552,,,,,,,,tex_easy_TP/1.7_r=250_phi=315_seed=3.png,,1,,texture,p,easy,5d68c8aa40524c00189e8ac2,29,Male,2021-05-03_11h11.18.916,search_v5,2021.1.2,Win32,60.77180188,,,space,0.362545,0,123,123,19,1,,,,,,,,,,,,,,,
,,,,,,,,,,,,,,,,p,0,3.278555,,,,,,,,tex_easy_TA/1.7_r=TA_seed=3.png,,0,,texture,a,easy,5d68c8aa40524c00189e8ac2,29,Male,2021-05-03_11h11.18.916,search_v5,2021.1.2,Win32,60.77180188,,,space,0.393725,0,124,124,109,1,,,,,,,,,,,,,,,
,,,,,,,,,,,,,,,,p,0,1.99267,,,,,,,,tex_hard_TA/1.6_r=TA_seed=1.png,,0,,texture,a,hard,5d68c8aa40524c00189e8ac2,29,Male,2021-05-03_11h11.18.916,search_v5,2021.1.2,Win32,60.77180188,,,space,0.349285,0,125,125,137,1,,,,,,,,,,,,,,,
,,,,,,,,,,,,,,,,a,0,0.90182,,,,,,,,tex_hard_TP/1.6_r=350_phi=315_seed=1.png,,1,,texture,p,hard,5d68c8aa40524c00189e8ac2,29,Male,2021-05-03_11h11.18.916,search_v5,2021.1.2,Win32,60.77180188,,,space,0.56842,0,126,126,47,1,,,,,,,,,,,,,,,
,,,,,,,,,,,,,,,,p,0,0.553395,,,,,,,,tex_easy_TA/1.7_r=TA_seed=3.png,,0,,texture,a,easy,5d68c8aa40524c00189e8ac2,29,Male,2021-05-03_11h11.18.916,search_v5,2021.1.2,Win32,60.77180188,,,space,0.07332,0,127,127,107,1,,,,,,,,,,,,,,,
,,,,,,,,,,,,,,,,a,1,0.80554,,,,,,,,tex_mid_TA/1.65_r=TA_seed=2.png,,0,,texture,a,mid,5d68c8aa40524c00189e8ac2,29,Male,2021-05-03_11h11.18.916,search_v5,2021.1.2,Win32,60.77180188,,,space,0.46987,0,128,128,101,1,,,,,,,,,,,,,,,
,,,,,,,,,,,,,,,,a,0,0.723725,,,,,,,,tex_mid_TP/1.65_r=50_phi=45_seed=2.png,,1,,texture,p,mid,5d68c8aa40524c00189e8ac2,29,Male,2021-05-03_11h11.18.916,search_v5,2021.1.2,Win32,60.77180188,,,space,0.28668,0,129,129,80,1,,,,,,,,,,,,,,,
,,,,,,,,,,,,,,,,a,1,1.952645,,,,,,,,tex_mid_TA/1.65_r=TA_seed=2.png,,0,,texture,a,mid,5d68c8aa40524c00189e8ac2,29,Male,2021-05-03_11h11.18.916,search_v5,2021.1.2,Win32,60.77180188,,,space,0.28109,0,130,130,88,1,,,,,,,,,,,,,,,
,,,,,,,,,,,,,,,,p,0,0.82893,,,,,,,,tex_hard_TA/1.6_r=TA_seed=1.png,,0,,texture,a,hard,5d68c8aa40524c00189e8ac2,29,Male,2021-05-03_11h11.18.916,search_v5,2021.1.2,Win32,60.77180188,,,space,0.046265,0,131,131,148,1,,,,,,,,,,,,,,,
,,,,,,,,,,,,,,,,a,1,1.139955,,,,,,,,tex_hard_TA/1.6_r=TA_seed=1.png,,0,,texture,a,hard,5d68c8aa40524c00189e8ac2,29,Male,2021-05-03_11h11.18.916,search_v5,2021.1.2,Win32,60.77180188,,,space,0.39052,0,132,132,11,1,,,,,,,,,,,,,,,
,,,,,,,,,,,,,,,,a,1,1.1126,,,,,,,,tex_mid_TA/1.65_r=TA_seed=2.png,,0,,texture,a,mid,5d68c8aa40524c00189e8ac2,29,Male,2021-05-03_11h11.18.916,search_v5,2021.1.2,Win32,60.77180188,,,space,0.40332,0,133,133,94,1,,,,,,,,,,,,,,,
,,,,,,,,,,,,,,,,a,1,2.181975,,,,,,,,tex_hard_TA/1.6_r=TA_seed=1.png,,0,,texture,a,hard,5d68c8aa40524c00189e8ac2,29,Male,2021-05-03_11h11.18.916,search_v5,2021.1.2,Win32,60.77180188,,,space,0.407825,0,134,134,135,1,,,,,,,,,,,,,,,
,,,,,,,,,,,,,,,,a,0,1.400655,,,,,,,,tex_mid_TP/1.65_r=450_phi=135_seed=2.png,,1,,texture,p,mid,5d68c8aa40524c00189e8ac2,29,Male,2021-05-03_11h11.18.916,search_v5,2021.1.2,Win32,60.77180188,,,space,0.38492,0,135,135,76,1,,,,,,,,,,,,,,,
,,,,,,,,,,,,,,,,a,0,1.77827,,,,,,,,tex_mid_TP/1.65_r=250_phi=180_seed=2.png,,1,,texture,p,mid,5d68c8aa40524c00189e8ac2,29,Male,2021-05-03_11h11.18.916,search_v5,2021.1.2,Win32,60.77180188,,,space,0.117645,0,136,136,63,1,,,,,,,,,,,,,,,
,,,,,,,,,,,,,,,,a,0,1.4736,,,,,,,,tex_easy_TP/1.7_r=450_phi=135_seed=3.png,,1,,texture,p,easy,5d68c8aa40524c00189e8ac2,29,Male,2021-05-03_11h11.18.916,search_v5,2021.1.2,Win32,60.77180188,,,space,0.163825,0,137,137,32,1,,,,,,,,,,,,,,,
,,,,,,,,,,,,,,,,a,1,0.785555,,,,,,,,tex_hard_TA/1.6_r=TA_seed=1.png,,0,,texture,a,hard,5d68c8aa40524c00189e8ac2,29,Male,2021-05-03_11h11.18.916,search_v5,2021.1.2,Win32,60.77180188,,,space,0.51267,0,138,138,128,1,,,,,,,,,,,,,,,
,,,,,,,,,,,,,,,,p,1,1.092155,,,,,,,,tex_hard_TP/1.6_r=50_phi=225_seed=1.png,,1,,texture,p,hard,5d68c8aa40524c00189e8ac2,29,Male,2021-05-03_11h11.18.916,search_v5,2021.1.2,Win32,60.77180188,,,space,0.41505,0,139,139,56,1,,,,,,,,,,,,,,,
,,,,,,,,,,,,,,,,p,1,1.28152,,,,,,,,tex_easy_TP/1.7_r=250_phi=225_seed=3.png,,1,,texture,p,easy,5d68c8aa40524c00189e8ac2,29,Male,2021-05-03_11h11.18.916,search_v5,2021.1.2,Win32,60.77180188,,,space,0.342975,0,140,140,18,1,,,,,,,,,,,,,,,
,,,,,,,,,,,,,,,,a,0,0.895655,,,,,,,,tex_mid_TP/1.65_r=400_phi=0_seed=2.png,,1,,texture,p,mid,5d68c8aa40524c00189e8ac2,29,Male,2021-05-03_11h11.18.916,search_v5,2021.1.2,Win32,60.77180188,,,space,0.316265,0,141,141,72,1,,,,,,,,,,,,,,,
,,,,,,,,,,,,,,,,p,0,0.534905,,,,,,,,tex_hard_TA/1.6_r=TA_seed=1.png,,0,,texture,a,hard,5d68c8aa40524c00189e8ac2,29,Male,2021-05-03_11h11.18.916,search_v5,2021.1.2,Win32,60.77180188,,,space,0.37444,0,142,142,149,1,,,,,,,,,,,,,,,
,,,,,,,,,,,,,,,,a,0,2.55782,,,,,,,,tex_mid_TP/1.65_r=400_phi=45_seed=2.png,,1,,texture,p,mid,5d68c8aa40524c00189e8ac2,29,Male,2021-05-03_11h11.18.916,search_v5,2021.1.2,Win32,60.77180188,,,space,0.412315,0,143,143,74,1,,,,,,,,,,,,,,,
,,,,,,,,,,,,,,,,p,0,3.226525,,,,,,,,tex_hard_TA/1.6_r=TA_seed=1.png,,0,,texture,a,hard,5d68c8aa40524c00189e8ac2,29,Male,2021-05-03_11h11.18.916,search_v5,2021.1.2,Win32,60.77180188,,,space,0.250895,0,144,144,131,1,,,,,,,,,,,,,,,
,,,,,,,,,,,,,,,,a,1,1.09325,,,,,,,,tex_mid_TA/1.65_r=TA_seed=2.png,,0,,texture,a,mid,5d68c8aa40524c00189e8ac2,29,Male,2021-05-03_11h11.18.916,search_v5,2021.1.2,Win32,60.77180188,,,space,0.42377,0,145,145,84,1,,,,,,,,,,,,,,,
,,,,,,,,,,,,,,,,a,1,0.93495,,,,,,,,tex_easy_TA/1.7_r=TA_seed=3.png,,0,,texture,a,easy,5d68c8aa40524c00189e8ac2,29,Male,2021-05-03_11h11.18.916,search_v5,2021.1.2,Win32,60.77180188,,,space,0.441795,0,146,146,118,1,,,,,,,,,,,,,,,
,,,,,,,,,,,,,,,,p,0,1.25744,,,,,,,,tex_hard_TA/1.6_r=TA_seed=1.png,,0,,texture,a,hard,5d68c8aa40524c00189e8ac2,29,Male,2021-05-03_11h11.18.916,search_v5,2021.1.2,Win32,60.77180188,,,space,0.085955,0,147,147,10,1,,,,,,,,,,,,,,,
,,,,,,,,,,,,,,,,a,1,4.312925,,,,,,,,tex_hard_TA/1.6_r=TA_seed=1.png,,0,,texture,a,hard,5d68c8aa40524c00189e8ac2,29,Male,2021-05-03_11h11.18.916,search_v5,2021.1.2,Win32,60.77180188,,,space,0.342825,0,148,148,147,1,,,,,,,,,,,,,,,
,,,,,,,,,,,,,,,,p,1,2.800795,,,,,,,,tex_hard_TP/1.6_r=50_phi=315_seed=1.png,,1,,texture,p,hard,5d68c8aa40524c00189e8ac2,29,Male,2021-05-03_11h11.18.916,search_v5,2021.1.2,Win32,60.77180188,,,space,0.464385,0,149,149,57,1,,,,,,,,,,,,,,,
,,,,,,,,,,,,,,,,,,,,,,,,,,,,,,,,,5d68c8aa40524c00189e8ac2,29,Male,2021-05-03_11h11.18.916,search_v5,2021.1.2,Win32,60.77180188,,,,,,,,,,0,1,1,1,1,condText.xlsx,texture,Look for a circular shape and indicate if it is present or absent in the array. If it is present press 'p' and if absent press 'a'. Press SPACE to start.,texture_example.jpg,,,,egText.xlsx,,
,,,,,,,,,,,,space,11.163445,space,6.272685,a,1,4.425645,space,0.59108,0,0,0,9,1,line_mid_TA/10_2_NaN_none_absent.jpg,,0,,line,a,mid,5d68c8aa40524c00189e8ac2,29,Male,2021-05-03_11h11.18.916,search_v5,2021.1.2,Win32,60.77180188,,,,,,,,,,,,,,,,,,,,,,,,
,,,,,,,,,,,,,,,,a,1,3.721505,space,0.531855,0,1,1,8,1,line_mid_TA/10_1_NaN_none_absent.jpg,,0,,line,a,mid,5d68c8aa40524c00189e8ac2,29,Male,2021-05-03_11h11.18.916,search_v5,2021.1.2,Win32,60.77180188,,,,,,,,,,,,,,,,,,,,,,,,
,,,,,,,,,,,,,,,,p,1,2.147225,space,0.546845,0,2,2,3,1,line_easy_TP/11_2_0.5236_all_right_col_14_row_9.jpg,,1,,line,p,easy,5d68c8aa40524c00189e8ac2,29,Male,2021-05-03_11h11.18.916,search_v5,2021.1.2,Win32,60.77180188,,,,,,,,,,,,,,,,,,,,,,,,
,,,,,,,,,,,,,,,,p,1,1.177715,space,0.465785,0,3,3,10,1,line_mid_TP/9_2_1.1424_none_right_col_20_row_1.jpg,,1,,line,p,mid,5d68c8aa40524c00189e8ac2,29,Male,2021-05-03_11h11.18.916,search_v5,2021.1.2,Win32,60.77180188,,,,,,,,,,,,,,,,,,,,,,,,
,,,,,,,,,,,,,,,,a,1,3.402675,space,0.480475,0,4,4,0,1,line_easy_TA/10_3_NaN_all_absent.jpg,,0,,line,a,easy,5d68c8aa40524c00189e8ac2,29,Male,2021-05-03_11h11.18.916,search_v5,2021.1.2,Win32,60.77180188,,,,,,,,,,,,,,,,,,,,,,,,
,,,,,,,,,,,,,,,,p,0,1.348885,space,0.770835,0,5,5,4,1,line_hard_TA/10_4_NaN_none_absent.jpg,,0,,line,a,hard,5d68c8aa40524c00189e8ac2,29,Male,2021-05-03_11h11.18.916,search_v5,2021.1.2,Win32,60.77180188,,,,,,,,,,,,,,,,,,,,,,,,
,,,,,,,,,,,,,,,,a,0,6.058055,space,0.598925,0,6,6,7,1,line_hard_TP/11_4_2.0944_none_right_col_18_row_11.jpg,,1,,line,p,hard,5d68c8aa40524c00189e8ac2,29,Male,2021-05-03_11h11.18.916,search_v5,2021.1.2,Win32,60.77180188,,,,,,,,,,,,,,,,,,,,,,,,
,,,,,,,,,,,,,,,,p,1,1.129435,space,0.33989,0,7,7,11,1,line_mid_TP/9_3_1.1424_none_left_col_10_row_8.jpg,,1,,line,p,mid,5d68c8aa40524c00189e8ac2,29,Male,2021-05-03_11h11.18.916,search_v5,2021.1.2,Win32,60.77180188,,,,,,,,,,,,,,,,,,,,,,,,
,,,,,,,,,,,,,,,,a,0,4.180615,space,0.34671,0,8,8,6,1,line_hard_TP/10_1_2.0944_none_left_col_10_row_11.jpg,,1,,line,p,hard,5d68c8aa40524c00189e8ac2,29,Male,2021-05-03_11h11.18.916,search_v5,2021.1.2,Win32,60.77180188,,,,,,,,,,,,,,,,,,,,,,,,
,,,,,,,,,,,,,,,,a,1,2.2012,space,0.41099,0,9,9,5,1,line_hard_TA/11_3_NaN_none_absent.jpg,,0,,line,a,hard,5d68c8aa40524c00189e8ac2,29,Male,2021-05-03_11h11.18.916,search_v5,2021.1.2,Win32,60.77180188,,,,,,,,,,,,,,,,,,,,,,,,
,,,,,,,,,,,,,,,,p,1,0.911235,space,0.381815,0,10,10,2,1,line_easy_TP/10_2_0.5236_all_right_col_18_row_7.jpg,,1,,line,p,easy,5d68c8aa40524c00189e8ac2,29,Male,2021-05-03_11h11.18.916,search_v5,2021.1.2,Win32,60.77180188,,,,,,,,,,,,,,,,,,,,,,,,
,,,,,,,,,,,,,,,,a,1,3.261065,space,0.29783,0,11,11,1,1,line_easy_TA/11_1_NaN_all_absent.jpg,,0,,line,a,easy,5d68c8aa40524c00189e8ac2,29,Male,2021-05-03_11h11.18.916,search_v5,2021.1.2,Win32,60.77180188,,,,,,,,,,,,,,,,,,,,,,,,
,,,,,,,,,,,,,,,,p,1,1.022035,,,,,,,,line_easy_TP/22_2_0.5236_all_left_col_10_row_14.jpg,,1,,line,p,easy,5d68c8aa40524c00189e8ac2,29,Male,2021-05-03_11h11.18.916,search_v5,2021.1.2,Win32,60.77180188,space,0.894045,space,0.374155,0,0,0,46,1,,,,,,,,,,,,,,,
,,,,,,,,,,,,,,,,p,1,0.71233,,,,,,,,line_easy_TP/7_4_0.5236_all_left_col_6_row_11.jpg,,1,,line,p,easy,5d68c8aa40524c00189e8ac2,29,Male,2021-05-03_11h11.18.916,search_v5,2021.1.2,Win32,60.77180188,,,space,0.468105,0,1,1,54,1,,,,,,,,,,,,,,,
,,,,,,,,,,,,,,,,a,0,4.35061,,,,,,,,line_hard_TP/12_4_2.0944_none_right_col_17_row_12.jpg,,1,,line,p,hard,5d68c8aa40524c00189e8ac2,29,Male,2021-05-03_11h11.18.916,search_v5,2021.1.2,Win32,60.77180188,,,space,0.23848,0,2,2,82,1,,,,,,,,,,,,,,,
,,,,,,,,,,,,,,,,a,1,7.865195,,,,,,,,line_mid_TA/7_1_NaN_all_absent.jpg,,0,,line,a,mid,5d68c8aa40524c00189e8ac2,29,Male,2021-05-03_11h11.18.916,search_v5,2021.1.2,Win32,60.77180188,,,space,0.428355,0,3,3,122,1,,,,,,,,,,,,,,,
,,,,,,,,,,,,,,,,a,0,6.65592,,,,,,,,line_hard_TP/5_0_2.0944_none_right_col_17_row_1.jpg,,1,,line,p,hard,5d68c8aa40524c00189e8ac2,29,Male,2021-05-03_11h11.18.916,search_v5,2021.1.2,Win32,60.77180188,,,space,0.20675,0,4,4,97,1,,,,,,,,,,,,,,,
,,,,,,,,,,,,,,,,p,1,4.91951,,,,,,,,line_mid_TP/5_1_1.1424_none_right_col_20_row_16.jpg,,1,,line,p,mid,5d68c8aa40524c00189e8ac2,29,Male,2021-05-03_11h11.18.916,search_v5,2021.1.2,Win32,60.77180188,,,space,0.345925,0,5,5,139,1,,,,,,,,,,,,,,,
,,,,,,,,,,,,,,,,p,1,0.8015,,,,,,,,line_mid_TP/1_4_1.1424_none_left_col_7_row_9.jpg,,1,,line,p,mid,5d68c8aa40524c00189e8ac2,29,Male,2021-05-03_11h11.18.916,search_v5,2021.1.2,Win32,60.77180188,,,space,0.23425,0,6,6,129,1,,,,,,,,,,,,,,,
,,,,,,,,,,,,,,,,p,1,1.02866,,,,,,,,line_mid_TP/2_4_1.1424_none_right_col_18_row_13.jpg,,1,,line,p,mid,5d68c8aa40524c00189e8ac2,29,Male,2021-05-03_11h11.18.916,search_v5,2021.1.2,Win32,60.77180188,,,space,0.298635,0,7,7,133,1,,,,,,,,,,,,,,,
,,,,,,,,,,,,,,,,a,1,9.387685,,,,,,,,line_mid_TA/1_2_NaN_all_absent.jpg,,0,,line,a,mid,5d68c8aa40524c00189e8ac2,29,Male,2021-05-03_11h11.18.916,search_v5,2021.1.2,Win32,60.77180188,,,space,0.411125,0,8,8,110,1,,,,,,,,,,,,,,,
,,,,,,,,,,,,,,,,a,1,13.62849,,,,,,,,line_mid_TA/5_4_NaN_none_absent.jpg,,0,,line,a,mid,5d68c8aa40524c00189e8ac2,29,Male,2021-05-03_11h11.18.916,search_v5,2021.1.2,Win32,60.77180188,,,space,0.372935,0,9,9,120,1,,,,,,,,,,,,,,,
,,,,,,,,,,,,,,,,a,0,14.226195,,,,,,,,line_hard_TP/18_1_2.0944_none_left_col_4_row_3.jpg,,1,,line,p,hard,5d68c8aa40524c00189e8ac2,29,Male,2021-05-03_11h11.18.916,search_v5,2021.1.2,Win32,60.77180188,,,space,0.024345,0,10,10,87,1,,,,,,,,,,,,,,,
,,,,,,,,,,,,,,,,a,1,19.04782,,,,,,,,line_mid_TA/10_2_NaN_none_absent.jpg,,0,,line,a,mid,5d68c8aa40524c00189e8ac2,29,Male,2021-05-03_11h11.18.916,search_v5,2021.1.2,Win32,60.77180188,,,space,0.253675,0,11,11,9,1,,,,,,,,,,,,,,,
,,,,,,,,,,,,,,,,a,1,10.913035,,,,,,,,line_hard_TA/13_1_NaN_none_absent.jpg,,0,,line,a,hard,5d68c8aa40524c00189e8ac2,29,Male,2021-05-03_11h11.18.916,search_v5,2021.1.2,Win32,60.77180188,,,space,0.422335,0,12,12,58,1,,,,,,,,,,,,,,,
,,,,,,,,,,,,,,,,p,0,2.374835,,,,,,,,line_hard_TA/1_3_NaN_none_absent.jpg,,0,,line,a,hard,5d68c8aa40524c00189e8ac2,29,Male,2021-05-03_11h11.18.916,search_v5,2021.1.2,Win32,60.77180188,,,space,0.27089,0,13,13,66,1,,,,,,,,,,,,,,,
,,,,,,,,,,,,,,,,a,0,7.953195,,,,,,,,line_hard_TP/9_3_2.0944_none_right_col_16_row_16.jpg,,1,,line,p,hard,5d68c8aa40524c00189e8ac2,29,Male,2021-05-03_11h11.18.916,search_v5,2021.1.2,Win32,60.77180188,,,space,0.07333,0,14,14,103,1,,,,,,,,,,,,,,,
,,,,,,,,,,,,,,,,p,1,0.80701,,,,,,,,line_easy_TP/6_4_0.5236_all_right_col_18_row_7.jpg,,1,,line,p,easy,5d68c8aa40524c00189e8ac2,29,Male,2021-05-03_11h11.18.916,search_v5,2021.1.2,Win32,60.77180188,,,space,0.294005,0,15,15,52,1,,,,,,,,,,,,,,,
,,,,,,,,,,,,,,,,p,1,0.507985,,,,,,,,line_easy_TP/1_1_0.5236_all_left_col_8_row_5.jpg,,1,,line,p,easy,5d68c8aa40524c00189e8ac2,29,Male,2021-05-03_11h11.18.916,search_v5,2021.1.2,Win32,60.77180188,,,space,0.107675,0,16,16,44,1,,,,,,,,,,,,,,,
,,,,,,,,,,,,,,,,a,0,8.51327,,,,,,,,line_hard_TP/11_4_2.0944_none_right_col_18_row_11.jpg,,1,,line,p,hard,5d68c8aa40524c00189e8ac2,29,Male,2021-05-03_11h11.18.916,search_v5,2021.1.2,Win32,60.77180188,,,space,0.2605,0,17,17,7,1,,,,,,,,,,,,,,,
,,,,,,,,,,,,,,,,p,1,0.680735,,,,,,,,line_easy_TP/7_2_0.5236_all_right_col_14_row_5.jpg,,1,,line,p,easy,5d68c8aa40524c00189e8ac2,29,Male,2021-05-03_11h11.18.916,search_v5,2021.1.2,Win32,60.77180188,,,space,0.21341,0,18,18,53,1,,,,,,,,,,,,,,,
,,,,,,,,,,,,,,,,p,1,9.54588,,,,,,,,line_hard_TP/2_1_2.0944_none_right_col_16_row_14.jpg,,1,,line,p,hard,5d68c8aa40524c00189e8ac2,29,Male,2021-05-03_11h11.18.916,search_v5,2021.1.2,Win32,60.77180188,,,space,0.41234,0,19,19,95,1,,,,,,,,,,,,,,,
,,,,,,,,,,,,,,,,p,1,13.723915,,,,,,,,line_mid_TP/3_1_1.1424_none_left_col_10_row_2.jpg,,1,,line,p,mid,5d68c8aa40524c00189e8ac2,29,Male,2021-05-03_11h11.18.916,search_v5,2021.1.2,Win32,60.77180188,,,space,0.266605,0,20,20,134,1,,,,,,,,,,,,,,,
,,,,,,,,,,,,,,,,a,0,11.46132,,,,,,,,line_hard_TP/8_3_2.0944_none_left_col_8_row_2.jpg,,1,,line,p,hard,5d68c8aa40524c00189e8ac2,29,Male,2021-05-03_11h11.18.916,search_v5,2021.1.2,Win32,60.77180188,,,space,0.164065,0,21,21,101,1,,,,,,,,,,,,,,,
,,,,,,,,,,,,,,,,p,1,10.01065,,,,,,,,line_mid_TP/6_4_1.7453_all_left_col_6_row_5.jpg,,1,,line,p,mid,5d68c8aa40524c00189e8ac2,29,Male,2021-05-03_11h11.18.916,search_v5,2021.1.2,Win32,60.77180188,,,space,0.727175,0,22,22,144,1,,,,,,,,,,,,,,,
,,,,,,,,,,,,,,,,p,1,0.763695,,,,,,,,line_easy_TP/11_2_0.5236_all_right_col_14_row_9.jpg,,1,,line,p,easy,5d68c8aa40524c00189e8ac2,29,Male,2021-05-03_11h11.18.916,search_v5,2021.1.2,Win32,60.77180188,,,space,0.25193,0,23,23,3,1,,,,,,,,,,,,,,,
,,,,,,,,,,,,,,,,p,1,0.60343,,,,,,,,line_easy_TP/6_3_0.5236_all_left_col_10_row_2.jpg,,1,,line,p,easy,5d68c8aa40524c00189e8ac2,29,Male,2021-05-03_11h11.18.916,search_v5,2021.1.2,Win32,60.77180188,,,space,0.217,0,24,24,51,1,,,,,,,,,,,,,,,
,,,,,,,,,,,,,,,,p,1,0.60063,,,,,,,,line_easy_TP/12_1_0.5236_all_right_col_15_row_4.jpg,,1,,line,p,easy,5d68c8aa40524c00189e8ac2,29,Male,2021-05-03_11h11.18.916,search_v5,2021.1.2,Win32,60.77180188,,,space,0.13388,0,25,25,35,1,,,,,,,,,,,,,,,
,,,,,,,,,,,,,,,,a,1,3.483045,,,,,,,,line_easy_TA/9_1_NaN_all_absent.jpg,,0,,line,a,easy,5d68c8aa40524c00189e8ac2,29,Male,2021-05-03_11h11.18.916,search_v5,2021.1.2,Win32,60.77180188,,,space,0.430455,0,26,26,34,1,,,,,,,,,,,,,,,
,,,,,,,,,,,,,,,,a,1,2.56653,,,,,,,,line_easy_TA/23_4_NaN_all_absent.jpg,,0,,line,a,easy,5d68c8aa40524c00189e8ac2,29,Male,2021-05-03_11h11.18.916,search_v5,2021.1.2,Win32,60.77180188,,,space,0.27037,0,27,27,22,1,,,,,,,,,,,,,,,
,,,,,,,,,,,,,,,,a,1,19.458335,,,,,,,,line_hard_TA/20_2_NaN_none_absent.jpg,,0,,line,a,hard,5d68c8aa40524c00189e8ac2,29,Male,2021-05-03_11h11.18.916,search_v5,2021.1.2,Win32,60.77180188,,,space,0.306185,0,28,28,69,1,,,,,,,,,,,,,,,
,,,,,,,,,,,,,,,,a,1,9.84704,,,,,,,,line_mid_TA/3_3_NaN_all_absent.jpg,,0,,line,a,mid,5d68c8aa40524c00189e8ac2,29,Male,2021-05-03_11h11.18.916,search_v5,2021.1.2,Win32,60.77180188,,,space,0.315855,0,29,29,115,1,,,,,,,,,,,,,,,
,,,,,,,,,,,,,,,,p,1,0.720685,,,,,,,,line_easy_TP/19_1_0.5236_all_left_col_6_row_1.jpg,,1,,line,p,easy,5d68c8aa40524c00189e8ac2,29,Male,2021-05-03_11h11.18.916,search_v5,2021.1.2,Win32,60.77180188,,,space,0.21647,0,30,30,41,1,,,,,,,,,,,,,,,
,,,,,,,,,,,,,,,,p,1,0.52793,,,,,,,,line_easy_TP/10_2_0.5236_all_right_col_18_row_7.jpg,,1,,line,p,easy,5d68c8aa40524c00189e8ac2,29,Male,2021-05-03_11h11.18.916,search_v5,2021.1.2,Win32,60.77180188,,,space,0.11663,0,31,31,2,1,,,,,,,,,,,,,,,
,,,,,,,,,,,,,,,,a,1,11.32867,,,,,,,,line_hard_TA/15_3_NaN_none_absent.jpg,,0,,line,a,hard,5d68c8aa40524c00189e8ac2,29,Male,2021-05-03_11h11.18.916,search_v5,2021.1.2,Win32,60.77180188,,,space,0.422225,0,32,32,62,1,,,,,,,,,,,,,,,
,,,,,,,,,,,,,,,,a,0,11.23988,,,,,,,,line_hard_TP/21_3_2.0944_none_right_col_15_row_13.jpg,,1,,line,p,hard,5d68c8aa40524c00189e8ac2,29,Male,2021-05-03_11h11.18.916,search_v5,2021.1.2,Win32,60.77180188,,,space,0.03751,0,33,33,92,1,,,,,,,,,,,,,,,
,,,,,,,,,,,,,,,,a,1,7.35685,,,,,,,,line_mid_TA/10_1_NaN_none_absent.jpg,,0,,line,a,mid,5d68c8aa40524c00189e8ac2,29,Male,2021-05-03_11h11.18.916,search_v5,2021.1.2,Win32,60.77180188,,,space,0.332395,0,34,34,8,1,,,,,,,,,,,,,,,
,,,,,,,,,,,,,,,,a,1,11.203125,,,,,,,,line_mid_TA/11_2_NaN_all_absent.jpg,,0,,line,a,mid,5d68c8aa40524c00189e8ac2,29,Male,2021-05-03_11h11.18.916,search_v5,2021.1.2,Win32,60.77180188,,,space,0.48653,0,35,35,106,1,,,,,,,,,,,,,,,
,,,,,,,,,,,,,,,,p,1,0.96675,,,,,,,,line_mid_TP/4_4_1.1424_none_left_col_3_row_10.jpg,,1,,line,p,mid,5d68c8aa40524c00189e8ac2,29,Male,2021-05-03_11h11.18.916,search_v5,2021.1.2,Win32,60.77180188,,,space,0.22791,0,36,36,137,1,,,,,,,,,,,,,,,
,,,,,,,,,,,,,,,,a,1,16.915725,,,,,,,,line_mid_TA/8_2_NaN_all_absent.jpg,,0,,line,a,mid,5d68c8aa40524c00189e8ac2,29,Male,2021-05-03_11h11.18.916,search_v5,2021.1.2,Win32,60.77180188,,,space,0.51004,0,37,37,123,1,,,,,,,,,,,,,,,
,,,,,,,,,,,,,,,,p,1,0.84649,,,,,,,,line_mid_TP/1_1_1.1424_none_right_col_21_row_2.jpg,,1,,line,p,mid,5d68c8aa40524c00189e8ac2,29,Male,2021-05-03_11h11.18.916,search_v5,2021.1.2,Win32,60.77180188,,,space,0.189045,0,38,38,128,1,,,,,,,,,,,,,,,
,,,,,,,,,,,,,,,,a,1,17.633275,,,,,,,,line_hard_TA/10_4_NaN_none_absent.jpg,,0,,line,a,hard,5d68c8aa40524c00189e8ac2,29,Male,2021-05-03_11h11.18.916,search_v5,2021.1.2,Win32,60.77180188,,,space,0.451335,0,39,39,4,1,,,,,,,,,,,,,,,
,,,,,,,,,,,,,,,,p,1,1.430915,,,,,,,,line_hard_TP/20_4_2.0944_none_left_col_9_row_16.jpg,,1,,line,p,hard,5d68c8aa40524c00189e8ac2,29,Male,2021-05-03_11h11.18.916,search_v5,2021.1.2,Win32,60.77180188,,,space,0.18422,0,40,40,91,1,,,,,,,,,,,,,,,
,,,,,,,,,,,,,,,,p,1,0.94979,,,,,,,,line_easy_TP/8_1_0.5236_all_right_col_14_row_4.jpg,,1,,line,p,easy,5d68c8aa40524c00189e8ac2,29,Male,2021-05-03_11h11.18.916,search_v5,2021.1.2,Win32,60.77180188,,,space,0.139785,0,41,41,55,1,,,,,,,,,,,,,,,
,,,,,,,,,,,,,,,,a,1,6.968145,,,,,,,,line_easy_TA/7_1_NaN_all_absent.jpg,,0,,line,a,easy,5d68c8aa40524c00189e8ac2,29,Male,2021-05-03_11h11.18.916,search_v5,2021.1.2,Win32,60.77180188,,,space,0.19108,0,42,42,32,1,,,,,,,,,,,,,,,
,,,,,,,,,,,,,,,,a,1,6.54446,,,,,,,,line_mid_TA/4_0_NaN_none_absent.jpg,,0,,line,a,mid,5d68c8aa40524c00189e8ac2,29,Male,2021-05-03_11h11.18.916,search_v5,2021.1.2,Win32,60.77180188,,,space,0.433335,0,43,43,117,1,,,,,,,,,,,,,,,
,,,,,,,,,,,,,,,,a,0,13.278745,,,,,,,,line_hard_TP/14_3_2.0944_none_right_col_19_row_11.jpg,,1,,line,p,hard,5d68c8aa40524c00189e8ac2,29,Male,2021-05-03_11h11.18.916,search_v5,2021.1.2,Win32,60.77180188,,,space,0.10286,0,44,44,84,1,,,,,,,,,,,,,,,
,,,,,,,,,,,,,,,,a,1,9.341635,,,,,,,,line_mid_TA/12_1_NaN_all_absent.jpg,,0,,line,a,mid,5d68c8aa40524c00189e8ac2,29,Male,2021-05-03_11h11.18.916,search_v5,2021.1.2,Win32,60.77180188,,,space,0.46983,0,45,45,109,1,,,,,,,,,,,,,,,
,,,,,,,,,,,,,,,,p,1,0.75019,,,,,,,,line_mid_TP/6_0_1.1424_none_left_col_8_row_9.jpg,,1,,line,p,mid,5d68c8aa40524c00189e8ac2,29,Male,2021-05-03_11h11.18.916,search_v5,2021.1.2,Win32,60.77180188,,,space,0.22158,0,46,46,141,1,,,,,,,,,,,,,,,
,,,,,,,,,,,,,,,,a,1,10.65083,,,,,,,,line_hard_TA/11_3_NaN_none_absent.jpg,,0,,line,a,hard,5d68c8aa40524c00189e8ac2,29,Male,2021-05-03_11h11.18.916,search_v5,2021.1.2,Win32,60.77180188,,,space,0.462465,0,47,47,5,1,,,,,,,,,,,,,,,
,,,,,,,,,,,,,,,,p,1,4.36409,,,,,,,,line_mid_TP/2_1_1.7453_all_right_col_14_row_16.jpg,,1,,line,p,mid,5d68c8aa40524c00189e8ac2,29,Male,2021-05-03_11h11.18.916,search_v5,2021.1.2,Win32,60.77180188,,,space,0.249655,0,48,48,131,1,,,,,,,,,,,,,,,
,,,,,,,,,,,,,,,,a,1,2.20762,,,,,,,,line_easy_TA/15_2_NaN_all_absent.jpg,,0,,line,a,easy,5d68c8aa40524c00189e8ac2,29,Male,2021-05-03_11h11.18.916,search_v5,2021.1.2,Win32,60.77180188,,,space,0.289305,0,49,49,13,1,,,,,,,,,,,,,,,
,,,,,,,,,,,,,,,,a,1,8.87378,,,,,,,,line_mid_TA/3_0_NaN_all_absent.jpg,,0,,line,a,mid,5d68c8aa40524c00189e8ac2,29,Male,2021-05-03_11h11.18.916,search_v5,2021.1.2,Win32,60.77180188,,,space,0.3094,0,50,50,113,1,,,,,,,,,,,,,,,
,,,,,,,,,,,,,,,,p,1,0.681825,,,,,,,,line_easy_TP/2_0_0.5236_all_right_col_16_row_4.jpg,,1,,line,p,easy,5d68c8aa40524c00189e8ac2,29,Male,2021-05-03_11h11.18.916,search_v5,2021.1.2,Win32,60.77180188,,,space,0.144975,0,51,51,47,1,,,,,,,,,,,,,,,
,,,,,,,,,,,,,,,,a,1,1.145845,,,,,,,,line_easy_TA/3_4_NaN_all_absent.jpg,,0,,line,a,easy,5d68c8aa40524c00189e8ac2,29,Male,2021-05-03_11h11.18.916,search_v5,2021.1.2,Win32,60.77180188,,,space,0.10697,0,52,52,27,1,,,,,,,,,,,,,,,
,,,,,,,,,,,,,,,,p,1,0.869585,,,,,,,,line_easy_TP/18_2_0.5236_all_right_col_15_row_1.jpg,,1,,line,p,easy,5d68c8aa40524c00189e8ac2,29,Male,2021-05-03_11h11.18.916,search_v5,2021.1.2,Win32,60.77180188,,,space,0.11106,0,53,53,39,1,,,,,,,,,,,,,,,
,,,,,,,,,,,,,,,,a,1,7.830785,,,,,,,,line_hard_TA/16_4_NaN_none_absent.jpg,,0,,line,a,hard,5d68c8aa40524c00189e8ac2,29,Male,2021-05-03_11h11.18.916,search_v5,2021.1.2,Win32,60.77180188,,,space,0.469705,0,54,54,64,1,,,,,,,,,,,,,,,
,,,,,,,,,,,,,,,,a,1,5.815245,,,,,,,,line_mid_TA/11_1_NaN_none_absent.jpg,,0,,line,a,mid,5d68c8aa40524c00189e8ac2,29,Male,2021-05-03_11h11.18.916,search_v5,2021.1.2,Win32,60.77180188,,,space,0.19865,0,55,55,105,1,,,,,,,,,,,,,,,
,,,,,,,,,,,,,,,,a,1,9.817195,,,,,,,,line_mid_TA/8_4_NaN_all_absent.jpg,,0,,line,a,mid,5d68c8aa40524c00189e8ac2,29,Male,2021-05-03_11h11.18.916,search_v5,2021.1.2,Win32,60.77180188,,,space,0.42071,0,56,56,125,1,,,,,,,,,,,,,,,
,,,,,,,,,,,,,,,,a,1,1.116725,,,,,,,,line_easy_TA/3_1_NaN_all_absent.jpg,,0,,line,a,easy,5d68c8aa40524c00189e8ac2,29,Male,2021-05-03_11h11.18.916,search_v5,2021.1.2,Win32,60.77180188,,,space,0.14908,0,57,57,26,1,,,,,,,,,,,,,,,
,,,,,,,,,,,,,,,,a,1,1.827495,,,,,,,,line_easy_TA/2_4_NaN_all_absent.jpg,,0,,line,a,easy,5d68c8aa40524c00189e8ac2,29,Male,2021-05-03_11h11.18.916,search_v5,2021.1.2,Win32,60.77180188,,,space,0.16661,0,58,58,24,1,,,,,,,,,,,,,,,
,,,,,,,,,,,,,,,,a,0,10.179855,,,,,,,,line_mid_TP/4_1_1.7453_all_left_col_4_row_6.jpg,,1,,line,p,mid,5d68c8aa40524c00189e8ac2,29,Male,2021-05-03_11h11.18.916,search_v5,2021.1.2,Win32,60.77180188,,,space,0.07854,0,59,59,135,1,,,,,,,,,,,,,,,
,,,,,,,,,,,,,,,,p,1,0.9972,,,,,,,,line_hard_TP/12_2_2.0944_none_right_col_13_row_8.jpg,,1,,line,p,hard,5d68c8aa40524c00189e8ac2,29,Male,2021-05-03_11h11.18.916,search_v5,2021.1.2,Win32,60.77180188,,,space,0.160045,0,60,60,81,1,,,,,,,,,,,,,,,
,,,,,,,,,,,,,,,,p,1,0.95023,,,,,,,,line_mid_TP/2_3_1.1424_none_right_col_21_row_15.jpg,,1,,line,p,mid,5d68c8aa40524c00189e8ac2,29,Male,2021-05-03_11h11.18.916,search_v5,2021.1.2,Win32,60.77180188,,,space,0.101465,0,61,61,132,1,,,,,,,,,,,,,,,
,,,,,,,,,,,,,,,,a,1,6.88109,,,,,,,,line_hard_TA/3_2_NaN_none_absent.jpg,,0,,line,a,hard,5d68c8aa40524c00189e8ac2,29,Male,2021-05-03_11h11.18.916,search_v5,2021.1.2,Win32,60.77180188,,,space,0.153825,0,62,62,76,1,,,,,,,,,,,,,,,
,,,,,,,,,,,,,,,,a,1,0.861805,,,,,,,,line_easy_TA/16_1_NaN_all_absent.jpg,,0,,line,a,easy,5d68c8aa40524c00189e8ac2,29,Male,2021-05-03_11h11.18.916,search_v5,2021.1.2,Win32,60.77180188,,,space,0.069625,0,63,63,14,1,,,,,,,,,,,,,,,
,,,,,,,,,,,,,,,,a,1,6.790715,,,,,,,,line_mid_TA/3_2_NaN_none_absent.jpg,,0,,line,a,mid,5d68c8aa40524c00189e8ac2,29,Male,2021-05-03_11h11.18.916,search_v5,2021.1.2,Win32,60.77180188,,,space,0.43198,0,64,64,114,1,,,,,,,,,,,,,,,
,,,,,,,,,,,,,,,,a,1,5.203585,,,,,,,,line_mid_TA/2_2_NaN_none_absent.jpg,,0,,line,a,mid,5d68c8aa40524c00189e8ac2,29,Male,2021-05-03_11h11.18.916,search_v5,2021.1.2,Win32,60.77180188,,,space,0.291015,0,65,65,112,1,,,,,,,,,,,,,,,
,,,,,,,,,,,,,,,,a,0,7.26201,,,,,,,,line_hard_TP/6_2_2.0944_none_left_col_10_row_2.jpg,,1,,line,p,hard,5d68c8aa40524c00189e8ac2,29,Male,2021-05-03_11h11.18.916,search_v5,2021.1.2,Win32,60.77180188,,,space,0.06592,0,66,66,99,1,,,,,,,,,,,,,,,
,,,,,,,,,,,,,,,,p,1,7.875745,,,,,,,,line_mid_TP/7_3_1.7453_all_right_col_15_row_2.jpg,,1,,line,p,mid,5d68c8aa40524c00189e8ac2,29,Male,2021-05-03_11h11.18.916,search_v5,2021.1.2,Win32,60.77180188,,,space,0.284135,0,67,67,146,1,,,,,,,,,,,,,,,
,,,,,,,,,,,,,,,,p,1,0.96593,,,,,,,,line_mid_TP/8_1_1.1424_none_left_col_6_row_14.jpg,,1,,line,p,mid,5d68c8aa40524c00189e8ac2,29,Male,2021-05-03_11h11.18.916,search_v5,2021.1.2,Win32,60.77180188,,,space,0.31623,0,68,68,148,1,,,,,,,,,,,,,,,
,,,,,,,,,,,,,,,,a,1,17.64675,,,,,,,,line_hard_TA/6_1_NaN_none_absent.jpg,,0,,line,a,hard,5d68c8aa40524c00189e8ac2,29,Male,2021-05-03_11h11.18.916,search_v5,2021.1.2,Win32,60.77180188,,,space,0.367085,0,69,69,80,1,,,,,,,,,,,,,,,
,,,,,,,,,,,,,,,,a,1,11.306255,,,,,,,,line_hard_TA/1_4_NaN_none_absent.jpg,,0,,line,a,hard,5d68c8aa40524c00189e8ac2,29,Male,2021-05-03_11h11.18.916,search_v5,2021.1.2,Win32,60.77180188,,,space,0.227285,0,70,70,67,1,,,,,,,,,,,,,,,
,,,,,,,,,,,,,,,,a,0,13.199915,,,,,,,,line_hard_TP/8_2_2.0944_none_left_col_4_row_12.jpg,,1,,line,p,hard,5d68c8aa40524c00189e8ac2,29,Male,2021-05-03_11h11.18.916,search_v5,2021.1.2,Win32,60.77180188,,,space,0.349405,0,71,71,100,1,,,,,,,,,,,,,,,
,,,,,,,,,,,,,,,,a,1,1.39389,,,,,,,,line_easy_TA/21_4_NaN_all_absent.jpg,,0,,line,a,easy,5d68c8aa40524c00189e8ac2,29,Male,2021-05-03_11h11.18.916,search_v5,2021.1.2,Win32,60.77180188,,,space,0.138335,0,72,72,21,1,,,,,,,,,,,,,,,
,,,,,,,,,,,,,,,,p,1,0.93312,,,,,,,,line_mid_TP/6_2_1.1424_none_left_col_2_row_6.jpg,,1,,line,p,mid,5d68c8aa40524c00189e8ac2,29,Male,2021-05-03_11h11.18.916,search_v5,2021.1.2,Win32,60.77180188,,,space,0.14065,0,73,73,142,1,,,,,,,,,,,,,,,
,,,,,,,,,,,,,,,,p,1,0.867325,,,,,,,,line_easy_TP/13_3_0.5236_all_left_col_4_row_12.jpg,,1,,line,p,easy,5d68c8aa40524c00189e8ac2,29,Male,2021-05-03_11h11.18.916,search_v5,2021.1.2,Win32,60.77180188,,,space,0.08335,0,74,74,36,1,,,,,,,,,,,,,,,
,,,,,,,,,,,,,,,,a,1,13.68583,,,,,,,,line_mid_TA/4_2_NaN_all_absent.jpg,,0,,line,a,mid,5d68c8aa40524c00189e8ac2,29,Male,2021-05-03_11h11.18.916,search_v5,2021.1.2,Win32,60.77180188,,,space,0.202065,0,75,75,118,1,,,,,,,,,,,,,,,
,,,,,,,,,,,,,,,,a,0,9.99564,,,,,,,,line_mid_TP/1_0_1.7453_all_right_col_13_row_9.jpg,,1,,line,p,mid,5d68c8aa40524c00189e8ac2,29,Male,2021-05-03_11h11.18.916,search_v5,2021.1.2,Win32,60.77180188,,,space,0.09897,0,76,76,127,1,,,,,,,,,,,,,,,
,,,,,,,,,,,,,,,,p,1,4.09752,,,,,,,,line_mid_TP/4_3_1.7453_all_left_col_9_row_4.jpg,,1,,line,p,mid,5d68c8aa40524c00189e8ac2,29,Male,2021-05-03_11h11.18.916,search_v5,2021.1.2,Win32,60.77180188,,,space,0.15501,0,77,77,136,1,,,,,,,,,,,,,,,
,,,,,,,,,,,,,,,,p,1,0.79221,,,,,,,,line_mid_TP/9_2_1.1424_none_right_col_20_row_1.jpg,,1,,line,p,mid,5d68c8aa40524c00189e8ac2,29,Male,2021-05-03_11h11.18.916,search_v5,2021.1.2,Win32,60.77180188,,,space,0.08369,0,78,78,10,1,,,,,,,,,,,,,,,
,,,,,,,,,,,,,,,,a,0,7.97878,,,,,,,,line_hard_TP/14_1_2.0944_none_right_col_15_row_6.jpg,,1,,line,p,hard,5d68c8aa40524c00189e8ac2,29,Male,2021-05-03_11h11.18.916,search_v5,2021.1.2,Win32,60.77180188,,,space,0.17509,0,79,79,83,1,,,,,,,,,,,,,,,
,,,,,,,,,,,,,,,,a,1,1.215615,,,,,,,,line_easy_TA/12_3_NaN_all_absent.jpg,,0,,line,a,easy,5d68c8aa40524c00189e8ac2,29,Male,2021-05-03_11h11.18.916,search_v5,2021.1.2,Win32,60.77180188,,,space,0.097895,0,80,80,12,1,,,,,,,,,,,,,,,
,,,,,,,,,,,,,,,,p,1,0.824825,,,,,,,,line_easy_TP/3_3_0.5236_all_right_col_15_row_10.jpg,,1,,line,p,easy,5d68c8aa40524c00189e8ac2,29,Male,2021-05-03_11h11.18.916,search_v5,2021.1.2,Win32,60.77180188,,,space,0.09043,0,81,81,48,1,,,,,,,,,,,,,,,
,,,,,,,,,,,,,,,,a,1,7.165545,,,,,,,,line_mid_TA/8_3_NaN_all_absent.jpg,,0,,line,a,mid,5d68c8aa40524c00189e8ac2,29,Male,2021-05-03_11h11.18.916,search_v5,2021.1.2,Win32,60.77180188,,,space,0.179675,0,82,82,124,1,,,,,,,,,,,,,,,
,,,,,,,,,,,,,,,,p,1,2.78046,,,,,,,,line_hard_TP/18_4_2.0944_none_left_col_4_row_9.jpg,,1,,line,p,hard,5d68c8aa40524c00189e8ac2,29,Male,2021-05-03_11h11.18.916,search_v5,2021.1.2,Win32,60.77180188,,,space,0.273745,0,83,83,88,1,,,,,,,,,,,,,,,
,,,,,,,,,,,,,,,,a,1,10.07469,,,,,,,,line_hard_TA/13_2_NaN_none_absent.jpg,,0,,line,a,hard,5d68c8aa40524c00189e8ac2,29,Male,2021-05-03_11h11.18.916,search_v5,2021.1.2,Win32,60.77180188,,,space,0.42092,0,84,84,59,1,,,,,,,,,,,,,,,
,,,,,,,,,,,,,,,,a,1,1.757225,,,,,,,,line_easy_TA/1_2_NaN_all_absent.jpg,,0,,line,a,easy,5d68c8aa40524c00189e8ac2,29,Male,2021-05-03_11h11.18.916,search_v5,2021.1.2,Win32,60.77180188,,,space,0.156705,0,85,85,19,1,,,,,,,,,,,,,,,
,,,,,,,,,,,,,,,,p,1,6.4946,,,,,,,,line_hard_TP/17_1_2.0944_none_right_col_18_row_9.jpg,,1,,line,p,hard,5d68c8aa40524c00189e8ac2,29,Male,2021-05-03_11h11.18.916,search_v5,2021.1.2,Win32,60.77180188,,,space,0.226655,0,86,86,85,1,,,,,,,,,,,,,,,
,,,,,,,,,,,,,,,,a,1,1.09231,,,,,,,,line_easy_TA/4_4_NaN_all_absent.jpg,,0,,line,a,easy,5d68c8aa40524c00189e8ac2,29,Male,2021-05-03_11h11.18.916,search_v5,2021.1.2,Win32,60.77180188,,,space,0.17778,0,87,87,29,1,,,,,,,,,,,,,,,
