key_resp_6.keys,key_resp_6.rt,key_resp_7.keys,key_resp_7.rt,key_resp_8.keys,key_resp_8.rt,key_resp_10.keys,key_resp_10.rt,key_resp_9.keys,key_resp_9.rt,key_resp_14.keys,key_resp_14.rt,key_resp_3.keys,key_resp_3.rt,key_resp_5.keys,key_resp_5.rt,key_resp.keys,key_resp.corr,key_resp.rt,key_resp_12.keys,key_resp_12.rt,practice.thisRepN,practice.thisTrialN,practice.thisN,practice.thisIndex,practice.ran,ImageFile,tarPos,targPres,numDist,targetName,correctAns,difficulty,participant,age,sex,date,expName,psychopyVersion,OS,frameRate,key_resp_13.keys,key_resp_13.rt,key_resp_4.keys,key_resp_4.rt,trials.thisRepN,trials.thisTrialN,trials.thisN,trials.thisIndex,trials.ran,trials_2.thisRepN,trials_2.thisTrialN,trials_2.thisN,trials_2.thisIndex,trials_2.ran,condsFile,targName,instructionText,stimExample,posit,size,stimSize,practiceFile,key_resp_15.keys,key_resp_15.rt
space,25.207405,space,9.910195,space,8.31433,space,195.709335,space,8.713245,space,49.662255,space,12.40573,space,8.59855,p,0,0.911695,space,8.80727,0,0,0,6,1,0_targ_4_dist_green/trial1.png,,0,4,greenverival,a,easy,5f0633361308dd16f7f4039c,26,female,2021-05-03_10h57.04.808,search_v5,2021.1.2,MacIntel,59.97720866,,,,,,,,,,,,,,,,,,,,,,,,
,,,,,,,,,,,,,,,,p,1,2.23106,space,3.438975,0,1,1,0,1,3_dist_green/trial1.png,,1,3,greenverival,p,easy,5f0633361308dd16f7f4039c,26,female,2021-05-03_10h57.04.808,search_v5,2021.1.2,MacIntel,59.97720866,,,,,,,,,,,,,,,,,,,,,,,,
,,,,,,,,,,,,,,,,p,1,1.21619,space,0.835375,0,2,2,3,1,9_dist_green/trial2.png,,1,9,greenverival,p,mid,5f0633361308dd16f7f4039c,26,female,2021-05-03_10h57.04.808,search_v5,2021.1.2,MacIntel,59.97720866,,,,,,,,,,,,,,,,,,,,,,,,
,,,,,,,,,,,,,,,,p,1,1.01831,space,0.585865,0,3,3,4,1,15_dist_green/trial1.png,,1,15,greenverival,p,hard,5f0633361308dd16f7f4039c,26,female,2021-05-03_10h57.04.808,search_v5,2021.1.2,MacIntel,59.97720866,,,,,,,,,,,,,,,,,,,,,,,,
,,,,,,,,,,,,,,,,a,1,1.752005,space,0.65585,0,4,4,8,1,0_targ_10_dist_green/trial1.png,,0,10,greenverival,a,mid,5f0633361308dd16f7f4039c,26,female,2021-05-03_10h57.04.808,search_v5,2021.1.2,MacIntel,59.97720866,,,,,,,,,,,,,,,,,,,,,,,,
,,,,,,,,,,,,,,,,a,1,1.93409,space,0.6185,0,5,5,9,1,0_targ_10_dist_green/trial2.png,,0,10,greenverival,a,mid,5f0633361308dd16f7f4039c,26,female,2021-05-03_10h57.04.808,search_v5,2021.1.2,MacIntel,59.97720866,,,,,,,,,,,,,,,,,,,,,,,,
,,,,,,,,,,,,,,,,p,1,0.808195,space,0.46508,0,6,6,1,1,3_dist_green/trial2.png,,1,3,greenverival,p,easy,5f0633361308dd16f7f4039c,26,female,2021-05-03_10h57.04.808,search_v5,2021.1.2,MacIntel,59.97720866,,,,,,,,,,,,,,,,,,,,,,,,
,,,,,,,,,,,,,,,,a,1,1.2552,space,0.437415,0,7,7,11,1,0_targ_16_dist_green/trial2.png,,0,16,greenverival,a,hard,5f0633361308dd16f7f4039c,26,female,2021-05-03_10h57.04.808,search_v5,2021.1.2,MacIntel,59.97720866,,,,,,,,,,,,,,,,,,,,,,,,
,,,,,,,,,,,,,,,,p,1,0.942765,space,0.367425,0,8,8,5,1,15_dist_green/trial2.png,,1,15,greenverival,p,hard,5f0633361308dd16f7f4039c,26,female,2021-05-03_10h57.04.808,search_v5,2021.1.2,MacIntel,59.97720866,,,,,,,,,,,,,,,,,,,,,,,,
,,,,,,,,,,,,,,,,a,1,0.78891,space,0.31233,0,9,9,7,1,0_targ_4_dist_green/trial2.png,,0,4,greenverival,a,easy,5f0633361308dd16f7f4039c,26,female,2021-05-03_10h57.04.808,search_v5,2021.1.2,MacIntel,59.97720866,,,,,,,,,,,,,,,,,,,,,,,,
,,,,,,,,,,,,,,,,p,1,0.881455,space,0.30197,0,10,10,2,1,9_dist_green/trial1.png,,1,9,greenverival,p,mid,5f0633361308dd16f7f4039c,26,female,2021-05-03_10h57.04.808,search_v5,2021.1.2,MacIntel,59.97720866,,,,,,,,,,,,,,,,,,,,,,,,
,,,,,,,,,,,,,,,,a,1,0.94863,space,0.228625,0,11,11,10,1,0_targ_16_dist_green/trial1.png,,0,16,greenverival,a,hard,5f0633361308dd16f7f4039c,26,female,2021-05-03_10h57.04.808,search_v5,2021.1.2,MacIntel,59.97720866,,,,,,,,,,,,,,,,,,,,,,,,
,,,,,,,,,,,,,,,,a,1,1.254775,,,,,,,,0_targ_16_dist_green/trial2.png,,0,16,greenverival,a,hard,5f0633361308dd16f7f4039c,26,female,2021-05-03_10h57.04.808,search_v5,2021.1.2,MacIntel,59.97720866,space,3.02294,space,1.12327,0,0,0,11,1,,,,,,,,,,,,,,,
,,,,,,,,,,,,,,,,p,1,1.24549,,,,,,,,3_dist_green/trial10.png,,1,3,greenverival,p,easy,5f0633361308dd16f7f4039c,26,female,2021-05-03_10h57.04.808,search_v5,2021.1.2,MacIntel,59.97720866,,,space,0.387055,0,1,1,19,1,,,,,,,,,,,,,,,
,,,,,,,,,,,,,,,,a,1,1.0234,,,,,,,,0_targ_10_dist_green/trial16.png,,0,10,greenverival,a,mid,5f0633361308dd16f7f4039c,26,female,2021-05-03_10h57.04.808,search_v5,2021.1.2,MacIntel,59.97720866,,,space,0.26108,0,2,2,117,1,,,,,,,,,,,,,,,
,,,,,,,,,,,,,,,,a,1,0.64597,,,,,,,,0_targ_4_dist_green/trial5.png,,0,4,greenverival,a,easy,5f0633361308dd16f7f4039c,26,female,2021-05-03_10h57.04.808,search_v5,2021.1.2,MacIntel,59.97720866,,,space,0.235175,0,3,3,83,1,,,,,,,,,,,,,,,
,,,,,,,,,,,,,,,,p,1,0.81388,,,,,,,,9_dist_green/trial11.png,,1,9,greenverival,p,mid,5f0633361308dd16f7f4039c,26,female,2021-05-03_10h57.04.808,search_v5,2021.1.2,MacIntel,59.97720866,,,space,0.222775,0,4,4,43,1,,,,,,,,,,,,,,,
,,,,,,,,,,,,,,,,p,1,1.11459,,,,,,,,15_dist_green/trial12.png,,1,15,greenverival,p,hard,5f0633361308dd16f7f4039c,26,female,2021-05-03_10h57.04.808,search_v5,2021.1.2,MacIntel,59.97720866,,,space,0.342155,0,5,5,67,1,,,,,,,,,,,,,,,
,,,,,,,,,,,,,,,,a,1,1.09431,,,,,,,,0_targ_16_dist_green/trial16.png,,0,16,greenverival,a,hard,5f0633361308dd16f7f4039c,26,female,2021-05-03_10h57.04.808,search_v5,2021.1.2,MacIntel,59.97720866,,,space,0.352665,0,6,6,140,1,,,,,,,,,,,,,,,
,,,,,,,,,,,,,,,,a,1,0.703505,,,,,,,,0_targ_4_dist_green/trial23.png,,0,4,greenverival,a,easy,5f0633361308dd16f7f4039c,26,female,2021-05-03_10h57.04.808,search_v5,2021.1.2,MacIntel,59.97720866,,,space,0.22966,0,7,7,101,1,,,,,,,,,,,,,,,
,,,,,,,,,,,,,,,,p,1,0.745495,,,,,,,,15_dist_green/trial23.png,,1,15,greenverival,p,hard,5f0633361308dd16f7f4039c,26,female,2021-05-03_10h57.04.808,search_v5,2021.1.2,MacIntel,59.97720866,,,space,0.235275,0,8,8,78,1,,,,,,,,,,,,,,,
,,,,,,,,,,,,,,,,p,1,0.701375,,,,,,,,9_dist_green/trial18.png,,1,9,greenverival,p,mid,5f0633361308dd16f7f4039c,26,female,2021-05-03_10h57.04.808,search_v5,2021.1.2,MacIntel,59.97720866,,,space,0.202265,0,9,9,50,1,,,,,,,,,,,,,,,
,,,,,,,,,,,,,,,,a,1,0.63325,,,,,,,,0_targ_4_dist_green/trial17.png,,0,4,greenverival,a,easy,5f0633361308dd16f7f4039c,26,female,2021-05-03_10h57.04.808,search_v5,2021.1.2,MacIntel,59.97720866,,,space,0.194865,0,10,10,95,1,,,,,,,,,,,,,,,
,,,,,,,,,,,,,,,,p,1,0.710515,,,,,,,,3_dist_green/trial16.png,,1,3,greenverival,p,easy,5f0633361308dd16f7f4039c,26,female,2021-05-03_10h57.04.808,search_v5,2021.1.2,MacIntel,59.97720866,,,space,0.170605,0,11,11,25,1,,,,,,,,,,,,,,,
,,,,,,,,,,,,,,,,a,1,0.86837,,,,,,,,0_targ_16_dist_green/trial9.png,,0,16,greenverival,a,hard,5f0633361308dd16f7f4039c,26,female,2021-05-03_10h57.04.808,search_v5,2021.1.2,MacIntel,59.97720866,,,space,0.2146,0,12,12,133,1,,,,,,,,,,,,,,,
,,,,,,,,,,,,,,,,p,1,0.74638,,,,,,,,9_dist_green/trial14.png,,1,9,greenverival,p,mid,5f0633361308dd16f7f4039c,26,female,2021-05-03_10h57.04.808,search_v5,2021.1.2,MacIntel,59.97720866,,,space,0.185695,0,13,13,46,1,,,,,,,,,,,,,,,
,,,,,,,,,,,,,,,,p,1,0.73682,,,,,,,,3_dist_green/trial21.png,,1,3,greenverival,p,easy,5f0633361308dd16f7f4039c,26,female,2021-05-03_10h57.04.808,search_v5,2021.1.2,MacIntel,59.97720866,,,space,0.16897,0,14,14,30,1,,,,,,,,,,,,,,,
,,,,,,,,,,,,,,,,p,1,0.736275,,,,,,,,3_dist_green/trial7.png,,1,3,greenverival,p,easy,5f0633361308dd16f7f4039c,26,female,2021-05-03_10h57.04.808,search_v5,2021.1.2,MacIntel,59.97720866,,,space,0.192975,0,15,15,16,1,,,,,,,,,,,,,,,
,,,,,,,,,,,,,,,,a,1,0.66647,,,,,,,,0_targ_4_dist_green/trial1.png,,0,4,greenverival,a,easy,5f0633361308dd16f7f4039c,26,female,2021-05-03_10h57.04.808,search_v5,2021.1.2,MacIntel,59.97720866,,,space,0.166535,0,16,16,6,1,,,,,,,,,,,,,,,
,,,,,,,,,,,,,,,,p,1,1.37903,,,,,,,,9_dist_green/trial9.png,,1,9,greenverival,p,mid,5f0633361308dd16f7f4039c,26,female,2021-05-03_10h57.04.808,search_v5,2021.1.2,MacIntel,59.97720866,,,space,0.19042,0,17,17,41,1,,,,,,,,,,,,,,,
,,,,,,,,,,,,,,,,a,1,0.811555,,,,,,,,0_targ_10_dist_green/trial6.png,,0,10,greenverival,a,mid,5f0633361308dd16f7f4039c,26,female,2021-05-03_10h57.04.808,search_v5,2021.1.2,MacIntel,59.97720866,,,space,0.160195,0,18,18,107,1,,,,,,,,,,,,,,,
,,,,,,,,,,,,,,,,a,1,0.72518,,,,,,,,0_targ_16_dist_green/trial14.png,,0,16,greenverival,a,hard,5f0633361308dd16f7f4039c,26,female,2021-05-03_10h57.04.808,search_v5,2021.1.2,MacIntel,59.97720866,,,space,0.16219,0,19,19,138,1,,,,,,,,,,,,,,,
,,,,,,,,,,,,,,,,a,1,0.8459,,,,,,,,0_targ_16_dist_green/trial7.png,,0,16,greenverival,a,hard,5f0633361308dd16f7f4039c,26,female,2021-05-03_10h57.04.808,search_v5,2021.1.2,MacIntel,59.97720866,,,space,0.15313,0,20,20,131,1,,,,,,,,,,,,,,,
,,,,,,,,,,,,,,,,p,1,0.68475,,,,,,,,3_dist_green/trial18.png,,1,3,greenverival,p,easy,5f0633361308dd16f7f4039c,26,female,2021-05-03_10h57.04.808,search_v5,2021.1.2,MacIntel,59.97720866,,,space,0.12879,0,21,21,27,1,,,,,,,,,,,,,,,
,,,,,,,,,,,,,,,,a,1,1.003415,,,,,,,,0_targ_16_dist_green/trial19.png,,0,16,greenverival,a,hard,5f0633361308dd16f7f4039c,26,female,2021-05-03_10h57.04.808,search_v5,2021.1.2,MacIntel,59.97720866,,,space,0.17012,0,22,22,143,1,,,,,,,,,,,,,,,
,,,,,,,,,,,,,,,,p,1,0.69253,,,,,,,,15_dist_green/trial14.png,,1,15,greenverival,p,hard,5f0633361308dd16f7f4039c,26,female,2021-05-03_10h57.04.808,search_v5,2021.1.2,MacIntel,59.97720866,,,space,0.14655,0,23,23,69,1,,,,,,,,,,,,,,,
,,,,,,,,,,,,,,,,a,1,0.78924,,,,,,,,0_targ_16_dist_green/trial20.png,,0,16,greenverival,a,hard,5f0633361308dd16f7f4039c,26,female,2021-05-03_10h57.04.808,search_v5,2021.1.2,MacIntel,59.97720866,,,space,0.16614,0,24,24,144,1,,,,,,,,,,,,,,,
,,,,,,,,,,,,,,,,a,1,0.77018,,,,,,,,0_targ_10_dist_green/trial19.png,,0,10,greenverival,a,mid,5f0633361308dd16f7f4039c,26,female,2021-05-03_10h57.04.808,search_v5,2021.1.2,MacIntel,59.97720866,,,space,0.171325,0,25,25,120,1,,,,,,,,,,,,,,,
,,,,,,,,,,,,,,,,a,1,0.842415,,,,,,,,0_targ_10_dist_green/trial1.png,,0,10,greenverival,a,mid,5f0633361308dd16f7f4039c,26,female,2021-05-03_10h57.04.808,search_v5,2021.1.2,MacIntel,59.97720866,,,space,0.17034,0,26,26,8,1,,,,,,,,,,,,,,,
,,,,,,,,,,,,,,,,a,1,0.74135,,,,,,,,0_targ_10_dist_green/trial5.png,,0,10,greenverival,a,mid,5f0633361308dd16f7f4039c,26,female,2021-05-03_10h57.04.808,search_v5,2021.1.2,MacIntel,59.97720866,,,space,0.218895,0,27,27,106,1,,,,,,,,,,,,,,,
,,,,,,,,,,,,,,,,p,1,0.75177,,,,,,,,9_dist_green/trial20.png,,1,9,greenverival,p,mid,5f0633361308dd16f7f4039c,26,female,2021-05-03_10h57.04.808,search_v5,2021.1.2,MacIntel,59.97720866,,,space,0.11893,0,28,28,52,1,,,,,,,,,,,,,,,
,,,,,,,,,,,,,,,,p,1,0.756765,,,,,,,,9_dist_green/trial25.png,,1,9,greenverival,p,mid,5f0633361308dd16f7f4039c,26,female,2021-05-03_10h57.04.808,search_v5,2021.1.2,MacIntel,59.97720866,,,space,0.11834,0,29,29,57,1,,,,,,,,,,,,,,,
,,,,,,,,,,,,,,,,a,1,0.781615,,,,,,,,0_targ_16_dist_green/trial22.png,,0,16,greenverival,a,hard,5f0633361308dd16f7f4039c,26,female,2021-05-03_10h57.04.808,search_v5,2021.1.2,MacIntel,59.97720866,,,space,0.098205,0,30,30,146,1,,,,,,,,,,,,,,,
,,,,,,,,,,,,,,,,p,1,0.704115,,,,,,,,15_dist_green/trial6.png,,1,15,greenverival,p,hard,5f0633361308dd16f7f4039c,26,female,2021-05-03_10h57.04.808,search_v5,2021.1.2,MacIntel,59.97720866,,,space,0.0922,0,31,31,61,1,,,,,,,,,,,,,,,
,,,,,,,,,,,,,,,,p,1,0.68172,,,,,,,,3_dist_green/trial9.png,,1,3,greenverival,p,easy,5f0633361308dd16f7f4039c,26,female,2021-05-03_10h57.04.808,search_v5,2021.1.2,MacIntel,59.97720866,,,space,0.06903,0,32,32,18,1,,,,,,,,,,,,,,,
,,,,,,,,,,,,,,,,a,1,0.7374,,,,,,,,0_targ_16_dist_green/trial10.png,,0,16,greenverival,a,hard,5f0633361308dd16f7f4039c,26,female,2021-05-03_10h57.04.808,search_v5,2021.1.2,MacIntel,59.97720866,,,space,0.19255,0,33,33,134,1,,,,,,,,,,,,,,,
,,,,,,,,,,,,,,,,a,1,0.891105,,,,,,,,0_targ_10_dist_green/trial11.png,,0,10,greenverival,a,mid,5f0633361308dd16f7f4039c,26,female,2021-05-03_10h57.04.808,search_v5,2021.1.2,MacIntel,59.97720866,,,space,0.19454,0,34,34,112,1,,,,,,,,,,,,,,,
,,,,,,,,,,,,,,,,a,1,0.738285,,,,,,,,0_targ_10_dist_green/trial24.png,,0,10,greenverival,a,mid,5f0633361308dd16f7f4039c,26,female,2021-05-03_10h57.04.808,search_v5,2021.1.2,MacIntel,59.97720866,,,space,0.19216,0,35,35,125,1,,,,,,,,,,,,,,,
,,,,,,,,,,,,,,,,p,1,0.672035,,,,,,,,3_dist_green/trial23.png,,1,3,greenverival,p,easy,5f0633361308dd16f7f4039c,26,female,2021-05-03_10h57.04.808,search_v5,2021.1.2,MacIntel,59.97720866,,,space,0.104545,0,36,36,32,1,,,,,,,,,,,,,,,
,,,,,,,,,,,,,,,,p,1,0.83988,,,,,,,,15_dist_green/trial25.png,,1,15,greenverival,p,hard,5f0633361308dd16f7f4039c,26,female,2021-05-03_10h57.04.808,search_v5,2021.1.2,MacIntel,59.97720866,,,space,0.13624,0,37,37,80,1,,,,,,,,,,,,,,,
,,,,,,,,,,,,,,,,a,1,0.716335,,,,,,,,0_targ_16_dist_green/trial18.png,,0,16,greenverival,a,hard,5f0633361308dd16f7f4039c,26,female,2021-05-03_10h57.04.808,search_v5,2021.1.2,MacIntel,59.97720866,,,space,0.103,0,38,38,142,1,,,,,,,,,,,,,,,
,,,,,,,,,,,,,,,,a,1,0.915305,,,,,,,,0_targ_4_dist_green/trial3.png,,0,4,greenverival,a,easy,5f0633361308dd16f7f4039c,26,female,2021-05-03_10h57.04.808,search_v5,2021.1.2,MacIntel,59.97720866,,,space,0.10295,0,39,39,81,1,,,,,,,,,,,,,,,
,,,,,,,,,,,,,,,,p,1,0.94611,,,,,,,,15_dist_green/trial3.png,,1,15,greenverival,p,hard,5f0633361308dd16f7f4039c,26,female,2021-05-03_10h57.04.808,search_v5,2021.1.2,MacIntel,59.97720866,,,space,0.076755,0,40,40,58,1,,,,,,,,,,,,,,,
,,,,,,,,,,,,,,,,a,1,0.870635,,,,,,,,0_targ_10_dist_green/trial7.png,,0,10,greenverival,a,mid,5f0633361308dd16f7f4039c,26,female,2021-05-03_10h57.04.808,search_v5,2021.1.2,MacIntel,59.97720866,,,space,0.160065,0,41,41,108,1,,,,,,,,,,,,,,,
,,,,,,,,,,,,,,,,p,1,0.77634,,,,,,,,15_dist_green/trial13.png,,1,15,greenverival,p,hard,5f0633361308dd16f7f4039c,26,female,2021-05-03_10h57.04.808,search_v5,2021.1.2,MacIntel,59.97720866,,,space,0.118645,0,42,42,68,1,,,,,,,,,,,,,,,
,,,,,,,,,,,,,,,,p,1,0.90042,,,,,,,,3_dist_green/trial5.png,,1,3,greenverival,p,easy,5f0633361308dd16f7f4039c,26,female,2021-05-03_10h57.04.808,search_v5,2021.1.2,MacIntel,59.97720866,,,space,0.11111,0,43,43,14,1,,,,,,,,,,,,,,,
,,,,,,,,,,,,,,,,p,1,0.87183,,,,,,,,15_dist_green/trial5.png,,1,15,greenverival,p,hard,5f0633361308dd16f7f4039c,26,female,2021-05-03_10h57.04.808,search_v5,2021.1.2,MacIntel,59.97720866,,,space,0.07905,0,44,44,60,1,,,,,,,,,,,,,,,
,,,,,,,,,,,,,,,,a,1,0.942765,,,,,,,,0_targ_10_dist_green/trial9.png,,0,10,greenverival,a,mid,5f0633361308dd16f7f4039c,26,female,2021-05-03_10h57.04.808,search_v5,2021.1.2,MacIntel,59.97720866,,,space,0.138885,0,45,45,110,1,,,,,,,,,,,,,,,
,,,,,,,,,,,,,,,,a,1,0.875155,,,,,,,,0_targ_4_dist_green/trial6.png,,0,4,greenverival,a,easy,5f0633361308dd16f7f4039c,26,female,2021-05-03_10h57.04.808,search_v5,2021.1.2,MacIntel,59.97720866,,,space,0.10994,0,46,46,94,1,,,,,,,,,,,,,,,
,,,,,,,,,,,,,,,,p,1,0.7017,,,,,,,,15_dist_green/trial10.png,,1,15,greenverival,p,hard,5f0633361308dd16f7f4039c,26,female,2021-05-03_10h57.04.808,search_v5,2021.1.2,MacIntel,59.97720866,,,space,0.139685,0,47,47,65,1,,,,,,,,,,,,,,,
,,,,,,,,,,,,,,,,p,1,0.72573,,,,,,,,15_dist_green/trial17.png,,1,15,greenverival,p,hard,5f0633361308dd16f7f4039c,26,female,2021-05-03_10h57.04.808,search_v5,2021.1.2,MacIntel,59.97720866,,,space,0.10227,0,48,48,72,1,,,,,,,,,,,,,,,
,,,,,,,,,,,,,,,,a,1,0.94833,,,,,,,,0_targ_10_dist_green/trial13.png,,0,10,greenverival,a,mid,5f0633361308dd16f7f4039c,26,female,2021-05-03_10h57.04.808,search_v5,2021.1.2,MacIntel,59.97720866,,,space,0.09468,0,49,49,114,1,,,,,,,,,,,,,,,
,,,,,,,,,,,,,,,,p,1,0.74443,,,,,,,,3_dist_green/trial22.png,,1,3,greenverival,p,easy,5f0633361308dd16f7f4039c,26,female,2021-05-03_10h57.04.808,search_v5,2021.1.2,MacIntel,59.97720866,,,space,0.121225,0,50,50,31,1,,,,,,,,,,,,,,,
,,,,,,,,,,,,,,,,p,1,0.687685,,,,,,,,9_dist_green/trial23.png,,1,9,greenverival,p,mid,5f0633361308dd16f7f4039c,26,female,2021-05-03_10h57.04.808,search_v5,2021.1.2,MacIntel,59.97720866,,,space,0.13619,0,51,51,55,1,,,,,,,,,,,,,,,
,,,,,,,,,,,,,,,,a,1,0.75417,,,,,,,,0_targ_10_dist_green/trial3.png,,0,10,greenverival,a,mid,5f0633361308dd16f7f4039c,26,female,2021-05-03_10h57.04.808,search_v5,2021.1.2,MacIntel,59.97720866,,,space,0.11671,0,52,52,104,1,,,,,,,,,,,,,,,
,,,,,,,,,,,,,,,,a,1,0.673695,,,,,,,,0_targ_4_dist_green/trial12.png,,0,4,greenverival,a,easy,5f0633361308dd16f7f4039c,26,female,2021-05-03_10h57.04.808,search_v5,2021.1.2,MacIntel,59.97720866,,,space,0.077545,0,53,53,90,1,,,,,,,,,,,,,,,
,,,,,,,,,,,,,,,,a,1,0.95861,,,,,,,,0_targ_10_dist_green/trial25.png,,0,10,greenverival,a,mid,5f0633361308dd16f7f4039c,26,female,2021-05-03_10h57.04.808,search_v5,2021.1.2,MacIntel,59.97720866,,,space,0.08584,0,54,54,126,1,,,,,,,,,,,,,,,
,,,,,,,,,,,,,,,,p,1,0.663365,,,,,,,,3_dist_green/trial13.png,,1,3,greenverival,p,easy,5f0633361308dd16f7f4039c,26,female,2021-05-03_10h57.04.808,search_v5,2021.1.2,MacIntel,59.97720866,,,space,0.1028,0,55,55,22,1,,,,,,,,,,,,,,,
,,,,,,,,,,,,,,,,p,1,0.63566,,,,,,,,3_dist_green/trial24.png,,1,3,greenverival,p,easy,5f0633361308dd16f7f4039c,26,female,2021-05-03_10h57.04.808,search_v5,2021.1.2,MacIntel,59.97720866,,,space,0.07633,0,56,56,33,1,,,,,,,,,,,,,,,
,,,,,,,,,,,,,,,,p,1,0.877685,,,,,,,,15_dist_green/trial1.png,,1,15,greenverival,p,hard,5f0633361308dd16f7f4039c,26,female,2021-05-03_10h57.04.808,search_v5,2021.1.2,MacIntel,59.97720866,,,space,0.09079,0,57,57,4,1,,,,,,,,,,,,,,,
,,,,,,,,,,,,,,,,a,1,0.727775,,,,,,,,0_targ_4_dist_green/trial6.png,,0,4,greenverival,a,easy,5f0633361308dd16f7f4039c,26,female,2021-05-03_10h57.04.808,search_v5,2021.1.2,MacIntel,59.97720866,,,space,0.09908,0,58,58,84,1,,,,,,,,,,,,,,,
,,,,,,,,,,,,,,,,p,1,0.74571,,,,,,,,9_dist_green/trial2.png,,1,9,greenverival,p,mid,5f0633361308dd16f7f4039c,26,female,2021-05-03_10h57.04.808,search_v5,2021.1.2,MacIntel,59.97720866,,,space,0.054475,0,59,59,3,1,,,,,,,,,,,,,,,
,,,,,,,,,,,,,,,,p,1,0.763315,,,,,,,,9_dist_green/trial17.png,,1,9,greenverival,p,mid,5f0633361308dd16f7f4039c,26,female,2021-05-03_10h57.04.808,search_v5,2021.1.2,MacIntel,59.97720866,,,space,0.07777,0,60,60,49,1,,,,,,,,,,,,,,,
,,,,,,,,,,,,,,,,p,1,0.73422,,,,,,,,15_dist_green/trial16.png,,1,15,greenverival,p,hard,5f0633361308dd16f7f4039c,26,female,2021-05-03_10h57.04.808,search_v5,2021.1.2,MacIntel,59.97720866,,,space,0.069305,0,61,61,71,1,,,,,,,,,,,,,,,
,,,,,,,,,,,,,,,,a,1,0.68342,,,,,,,,0_targ_16_dist_green/trial25.png,,0,16,greenverival,a,hard,5f0633361308dd16f7f4039c,26,female,2021-05-03_10h57.04.808,search_v5,2021.1.2,MacIntel,59.97720866,,,space,0.05976,0,62,62,149,1,,,,,,,,,,,,,,,
,,,,,,,,,,,,,,,,p,1,0.673975,,,,,,,,15_dist_green/trial11.png,,1,15,greenverival,p,hard,5f0633361308dd16f7f4039c,26,female,2021-05-03_10h57.04.808,search_v5,2021.1.2,MacIntel,59.97720866,,,space,0.08502,0,63,63,66,1,,,,,,,,,,,,,,,
,,,,,,,,,,,,,,,,a,1,0.816625,,,,,,,,0_targ_4_dist_green/trial14.png,,0,4,greenverival,a,easy,5f0633361308dd16f7f4039c,26,female,2021-05-03_10h57.04.808,search_v5,2021.1.2,MacIntel,59.97720866,,,space,0.12794,0,64,64,92,1,,,,,,,,,,,,,,,
,,,,,,,,,,,,,,,,a,1,0.809235,,,,,,,,0_targ_4_dist_green/trial13.png,,0,4,greenverival,a,easy,5f0633361308dd16f7f4039c,26,female,2021-05-03_10h57.04.808,search_v5,2021.1.2,MacIntel,59.97720866,,,space,0.06121,0,65,65,91,1,,,,,,,,,,,,,,,
,,,,,,,,,,,,,,,,a,1,0.77051,,,,,,,,0_targ_10_dist_green/trial8.png,,0,10,greenverival,a,mid,5f0633361308dd16f7f4039c,26,female,2021-05-03_10h57.04.808,search_v5,2021.1.2,MacIntel,59.97720866,,,space,0.058135,0,66,66,109,1,,,,,,,,,,,,,,,
,,,,,,,,,,,,,,,,p,1,0.644335,,,,,,,,3_dist_green/trial19.png,,1,3,greenverival,p,easy,5f0633361308dd16f7f4039c,26,female,2021-05-03_10h57.04.808,search_v5,2021.1.2,MacIntel,59.97720866,,,space,0.06881,0,67,67,28,1,,,,,,,,,,,,,,,
,,,,,,,,,,,,,,,,a,1,0.778915,,,,,,,,0_targ_10_dist_green/trial10.png,,0,10,greenverival,a,mid,5f0633361308dd16f7f4039c,26,female,2021-05-03_10h57.04.808,search_v5,2021.1.2,MacIntel,59.97720866,,,space,0.062495,0,68,68,111,1,,,,,,,,,,,,,,,
,,,,,,,,,,,,,,,,p,1,0.83325,,,,,,,,3_dist_green/trial12.png,,1,3,greenverival,p,easy,5f0633361308dd16f7f4039c,26,female,2021-05-03_10h57.04.808,search_v5,2021.1.2,MacIntel,59.97720866,,,space,0.0697,0,69,69,21,1,,,,,,,,,,,,,,,
,,,,,,,,,,,,,,,,p,1,0.914855,,,,,,,,3_dist_green/trial4.png,,1,3,greenverival,p,easy,5f0633361308dd16f7f4039c,26,female,2021-05-03_10h57.04.808,search_v5,2021.1.2,MacIntel,59.97720866,,,space,0.084605,0,70,70,13,1,,,,,,,,,,,,,,,
,,,,,,,,,,,,,,,,p,1,0.701215,,,,,,,,9_dist_green/trial8.png,,1,9,greenverival,p,mid,5f0633361308dd16f7f4039c,26,female,2021-05-03_10h57.04.808,search_v5,2021.1.2,MacIntel,59.97720866,,,space,0.040935,0,71,71,40,1,,,,,,,,,,,,,,,
,,,,,,,,,,,,,,,,p,1,0.560225,,,,,,,,15_dist_green/trial4.png,,1,15,greenverival,p,hard,5f0633361308dd16f7f4039c,26,female,2021-05-03_10h57.04.808,search_v5,2021.1.2,MacIntel,59.97720866,,,space,0.04517,0,72,72,59,1,,,,,,,,,,,,,,,
,,,,,,,,,,,,,,,,p,1,0.62746,,,,,,,,15_dist_green/trial19.png,,1,15,greenverival,p,hard,5f0633361308dd16f7f4039c,26,female,2021-05-03_10h57.04.808,search_v5,2021.1.2,MacIntel,59.97720866,,,space,0.06922,0,73,73,74,1,,,,,,,,,,,,,,,
,,,,,,,,,,,,,,,,a,1,0.7773,,,,,,,,0_targ_16_dist_green/trial8.png,,0,16,greenverival,a,hard,5f0633361308dd16f7f4039c,26,female,2021-05-03_10h57.04.808,search_v5,2021.1.2,MacIntel,59.97720866,,,space,0.092845,0,74,74,132,1,,,,,,,,,,,,,,,
,,,,,,,,,,,,,,,,p,1,0.69199,,,,,,,,3_dist_green/trial17.png,,1,3,greenverival,p,easy,5f0633361308dd16f7f4039c,26,female,2021-05-03_10h57.04.808,search_v5,2021.1.2,MacIntel,59.97720866,,,space,0.077275,0,75,75,26,1,,,,,,,,,,,,,,,
,,,,,,,,,,,,,,,,a,1,0.751115,,,,,,,,0_targ_4_dist_green/trial22.png,,0,4,greenverival,a,easy,5f0633361308dd16f7f4039c,26,female,2021-05-03_10h57.04.808,search_v5,2021.1.2,MacIntel,59.97720866,,,space,0.094045,0,76,76,100,1,,,,,,,,,,,,,,,
,,,,,,,,,,,,,,,,a,1,0.697175,,,,,,,,0_targ_10_dist_green/trial21.png,,0,10,greenverival,a,mid,5f0633361308dd16f7f4039c,26,female,2021-05-03_10h57.04.808,search_v5,2021.1.2,MacIntel,59.97720866,,,space,0.033325,0,77,77,122,1,,,,,,,,,,,,,,,
,,,,,,,,,,,,,,,,p,1,0.70367,,,,,,,,9_dist_green/trial15.png,,1,9,greenverival,p,mid,5f0633361308dd16f7f4039c,26,female,2021-05-03_10h57.04.808,search_v5,2021.1.2,MacIntel,59.97720866,,,space,0.10483,0,78,78,47,1,,,,,,,,,,,,,,,
,,,,,,,,,,,,,,,,p,1,0.77236,,,,,,,,3_dist_green/trial25.png,,1,3,greenverival,p,easy,5f0633361308dd16f7f4039c,26,female,2021-05-03_10h57.04.808,search_v5,2021.1.2,MacIntel,59.97720866,,,space,0.08987,0,79,79,34,1,,,,,,,,,,,,,,,
,,,,,,,,,,,,,,,,p,1,0.79408,,,,,,,,9_dist_green/trial6.png,,1,9,greenverival,p,mid,5f0633361308dd16f7f4039c,26,female,2021-05-03_10h57.04.808,search_v5,2021.1.2,MacIntel,59.97720866,,,space,0.06624,0,80,80,38,1,,,,,,,,,,,,,,,
,,,,,,,,,,,,,,,,a,1,0.670345,,,,,,,,0_targ_4_dist_green/trial25.png,,0,4,greenverival,a,easy,5f0633361308dd16f7f4039c,26,female,2021-05-03_10h57.04.808,search_v5,2021.1.2,MacIntel,59.97720866,,,space,0.067955,0,81,81,103,1,,,,,,,,,,,,,,,
,,,,,,,,,,,,,,,,a,1,1.350095,,,,,,,,0_targ_16_dist_green/trial23.png,,0,16,greenverival,a,hard,5f0633361308dd16f7f4039c,26,female,2021-05-03_10h57.04.808,search_v5,2021.1.2,MacIntel,59.97720866,,,space,0.066795,0,82,82,147,1,,,,,,,,,,,,,,,
,,,,,,,,,,,,,,,,p,1,0.71137,,,,,,,,15_dist_green/trial18.png,,1,15,greenverival,p,hard,5f0633361308dd16f7f4039c,26,female,2021-05-03_10h57.04.808,search_v5,2021.1.2,MacIntel,59.97720866,,,space,0.06799,0,83,83,73,1,,,,,,,,,,,,,,,
,,,,,,,,,,,,,,,,a,1,0.601625,,,,,,,,0_targ_4_dist_green/trial24.png,,0,4,greenverival,a,easy,5f0633361308dd16f7f4039c,26,female,2021-05-03_10h57.04.808,search_v5,2021.1.2,MacIntel,59.97720866,,,space,0.03547,0,84,84,102,1,,,,,,,,,,,,,,,
,,,,,,,,,,,,,,,,p,1,0.646345,,,,,,,,3_dist_green/trial3.png,,1,3,greenverival,p,easy,5f0633361308dd16f7f4039c,26,female,2021-05-03_10h57.04.808,search_v5,2021.1.2,MacIntel,59.97720866,,,space,0.07936,0,85,85,12,1,,,,,,,,,,,,,,,
,,,,,,,,,,,,,,,,p,1,0.665285,,,,,,,,9_dist_green/trial24.png,,1,9,greenverival,p,mid,5f0633361308dd16f7f4039c,26,female,2021-05-03_10h57.04.808,search_v5,2021.1.2,MacIntel,59.97720866,,,space,0.069845,0,86,86,56,1,,,,,,,,,,,,,,,
,,,,,,,,,,,,,,,,a,1,0.83298,,,,,,,,0_targ_16_dist_green/trial13.png,,0,16,greenverival,a,hard,5f0633361308dd16f7f4039c,26,female,2021-05-03_10h57.04.808,search_v5,2021.1.2,MacIntel,59.97720866,,,space,0.057795,0,87,87,137,1,,,,,,,,,,,,,,,
,,,,,,,,,,,,,,,,a,1,0.86686,,,,,,,,0_targ_4_dist_green/trial20.png,,0,4,greenverival,a,easy,5f0633361308dd16f7f4039c,26,female,2021-05-03_10h57.04.808,search_v5,2021.1.2,MacIntel,59.97720866,,,space,0.036745,0,88,88,98,1,,,,,,,,,,,,,,,
,,,,,,,,,,,,,,,,a,1,0.62775,,,,,,,,0_targ_4_dist_green/trial7.png,,0,4,greenverival,a,easy,5f0633361308dd16f7f4039c,26,female,2021-05-03_10h57.04.808,search_v5,2021.1.2,MacIntel,59.97720866,,,space,0.05199,0,89,89,85,1,,,,,,,,,,,,,,,
,,,,,,,,,,,,,,,,a,1,1.170885,,,,,,,,0_targ_16_dist_green/trial11.png,,0,16,greenverival,a,hard,5f0633361308dd16f7f4039c,26,female,2021-05-03_10h57.04.808,search_v5,2021.1.2,MacIntel,59.97720866,,,space,0.05874,0,90,90,135,1,,,,,,,,,,,,,,,
,,,,,,,,,,,,,,,,a,1,2.13483,,,,,,,,0_targ_4_dist_green/trial9.png,,0,4,greenverival,a,easy,5f0633361308dd16f7f4039c,26,female,2021-05-03_10h57.04.808,search_v5,2021.1.2,MacIntel,59.97720866,,,space,0.88916,0,91,91,87,1,,,,,,,,,,,,,,,
,,,,,,,,,,,,,,,,a,1,1.18383,,,,,,,,0_targ_10_dist_green/trial12.png,,0,10,greenverival,a,mid,5f0633361308dd16f7f4039c,26,female,2021-05-03_10h57.04.808,search_v5,2021.1.2,MacIntel,59.97720866,,,space,0.4443,0,92,92,113,1,,,,,,,,,,,,,,,
,,,,,,,,,,,,,,,,a,1,0.6768,,,,,,,,0_targ_4_dist_green/trial15.png,,0,4,greenverival,a,easy,5f0633361308dd16f7f4039c,26,female,2021-05-03_10h57.04.808,search_v5,2021.1.2,MacIntel,59.97720866,,,space,0.14299,0,93,93,93,1,,,,,,,,,,,,,,,
,,,,,,,,,,,,,,,,a,1,0.582145,,,,,,,,0_targ_4_dist_green/trial4.png,,0,4,greenverival,a,easy,5f0633361308dd16f7f4039c,26,female,2021-05-03_10h57.04.808,search_v5,2021.1.2,MacIntel,59.97720866,,,space,0.080555,0,94,94,82,1,,,,,,,,,,,,,,,
,,,,,,,,,,,,,,,,p,1,0.612585,,,,,,,,9_dist_green/trial13.png,,1,9,greenverival,p,mid,5f0633361308dd16f7f4039c,26,female,2021-05-03_10h57.04.808,search_v5,2021.1.2,MacIntel,59.97720866,,,space,0.07785,0,95,95,45,1,,,,,,,,,,,,,,,
,,,,,,,,,,,,,,,,p,1,0.6897,,,,,,,,15_dist_green/trial22.png,,1,15,greenverival,p,hard,5f0633361308dd16f7f4039c,26,female,2021-05-03_10h57.04.808,search_v5,2021.1.2,MacIntel,59.97720866,,,space,0.07114,0,96,96,77,1,,,,,,,,,,,,,,,
,,,,,,,,,,,,,,,,a,1,0.71316,,,,,,,,0_targ_16_dist_green/trial15.png,,0,16,greenverival,a,hard,5f0633361308dd16f7f4039c,26,female,2021-05-03_10h57.04.808,search_v5,2021.1.2,MacIntel,59.97720866,,,space,0.047635,0,97,97,139,1,,,,,,,,,,,,,,,
,,,,,,,,,,,,,,,,p,1,0.627555,,,,,,,,15_dist_green/trial7.png,,1,15,greenverival,p,hard,5f0633361308dd16f7f4039c,26,female,2021-05-03_10h57.04.808,search_v5,2021.1.2,MacIntel,59.97720866,,,space,0.06806,0,98,98,62,1,,,,,,,,,,,,,,,
,,,,,,,,,,,,,,,,a,1,0.86164,,,,,,,,0_targ_10_dist_green/trial2.png,,0,10,greenverival,a,mid,5f0633361308dd16f7f4039c,26,female,2021-05-03_10h57.04.808,search_v5,2021.1.2,MacIntel,59.97720866,,,space,0.033165,0,99,99,9,1,,,,,,,,,,,,,,,
,,,,,,,,,,,,,,,,a,1,0.70057,,,,,,,,0_targ_4_dist_green/trial10.png,,0,4,greenverival,a,easy,5f0633361308dd16f7f4039c,26,female,2021-05-03_10h57.04.808,search_v5,2021.1.2,MacIntel,59.97720866,,,space,0.058115,0,100,100,88,1,,,,,,,,,,,,,,,
,,,,,,,,,,,,,,,,a,1,0.68718,,,,,,,,0_targ_10_dist_green/trial4.png,,0,10,greenverival,a,mid,5f0633361308dd16f7f4039c,26,female,2021-05-03_10h57.04.808,search_v5,2021.1.2,MacIntel,59.97720866,,,space,0.06776,0,101,101,105,1,,,,,,,,,,,,,,,
,,,,,,,,,,,,,,,,p,1,0.713735,,,,,,,,9_dist_green/trial12.png,,1,9,greenverival,p,mid,5f0633361308dd16f7f4039c,26,female,2021-05-03_10h57.04.808,search_v5,2021.1.2,MacIntel,59.97720866,,,space,0.08486,0,102,102,44,1,,,,,,,,,,,,,,,
,,,,,,,,,,,,,,,,a,1,0.771785,,,,,,,,0_targ_16_dist_green/trial24.png,,0,16,greenverival,a,hard,5f0633361308dd16f7f4039c,26,female,2021-05-03_10h57.04.808,search_v5,2021.1.2,MacIntel,59.97720866,,,space,0.084285,0,103,103,148,1,,,,,,,,,,,,,,,
,,,,,,,,,,,,,,,,a,1,0.96291,,,,,,,,0_targ_10_dist_green/trial17.png,,0,10,greenverival,a,mid,5f0633361308dd16f7f4039c,26,female,2021-05-03_10h57.04.808,search_v5,2021.1.2,MacIntel,59.97720866,,,space,0.070135,0,104,104,118,1,,,,,,,,,,,,,,,
,,,,,,,,,,,,,,,,a,1,0.70077,,,,,,,,0_targ_4_dist_green/trial2.png,,0,4,greenverival,a,easy,5f0633361308dd16f7f4039c,26,female,2021-05-03_10h57.04.808,search_v5,2021.1.2,MacIntel,59.97720866,,,space,0.056815,0,105,105,7,1,,,,,,,,,,,,,,,
,,,,,,,,,,,,,,,,a,1,1.24512,,,,,,,,0_targ_10_dist_green/trial18.png,,0,10,greenverival,a,mid,5f0633361308dd16f7f4039c,26,female,2021-05-03_10h57.04.808,search_v5,2021.1.2,MacIntel,59.97720866,,,space,0.061555,0,106,106,119,1,,,,,,,,,,,,,,,
,,,,,,,,,,,,,,,,p,1,0.77607,,,,,,,,15_dist_green/trial2.png,,1,15,greenverival,p,hard,5f0633361308dd16f7f4039c,26,female,2021-05-03_10h57.04.808,search_v5,2021.1.2,MacIntel,59.97720866,,,space,0.08135,0,107,107,5,1,,,,,,,,,,,,,,,
,,,,,,,,,,,,,,,,p,1,0.800485,,,,,,,,15_dist_green/trial21.png,,1,15,greenverival,p,hard,5f0633361308dd16f7f4039c,26,female,2021-05-03_10h57.04.808,search_v5,2021.1.2,MacIntel,59.97720866,,,space,0.05703,0,108,108,76,1,,,,,,,,,,,,,,,
,,,,,,,,,,,,,,,,p,1,0.594985,,,,,,,,3_dist_green/trial15.png,,1,3,greenverival,p,easy,5f0633361308dd16f7f4039c,26,female,2021-05-03_10h57.04.808,search_v5,2021.1.2,MacIntel,59.97720866,,,space,0.066385,0,109,109,24,1,,,,,,,,,,,,,,,
,,,,,,,,,,,,,,,,a,1,0.71076,,,,,,,,0_targ_10_dist_green/trial15.png,,0,10,greenverival,a,mid,5f0633361308dd16f7f4039c,26,female,2021-05-03_10h57.04.808,search_v5,2021.1.2,MacIntel,59.97720866,,,space,0.051945,0,110,110,116,1,,,,,,,,,,,,,,,
,,,,,,,,,,,,,,,,p,1,0.57067,,,,,,,,3_dist_green/trial20.png,,1,3,greenverival,p,easy,5f0633361308dd16f7f4039c,26,female,2021-05-03_10h57.04.808,search_v5,2021.1.2,MacIntel,59.97720866,,,space,0.058385,0,111,111,29,1,,,,,,,,,,,,,,,
,,,,,,,,,,,,,,,,a,1,0.758895,,,,,,,,0_targ_16_dist_green/trial17.png,,0,16,greenverival,a,hard,5f0633361308dd16f7f4039c,26,female,2021-05-03_10h57.04.808,search_v5,2021.1.2,MacIntel,59.97720866,,,space,0.05102,0,112,112,141,1,,,,,,,,,,,,,,,
,,,,,,,,,,,,,,,,p,1,0.88692,,,,,,,,3_dist_green/trial1.png,,1,3,greenverival,p,easy,5f0633361308dd16f7f4039c,26,female,2021-05-03_10h57.04.808,search_v5,2021.1.2,MacIntel,59.97720866,,,space,0.06703,0,113,113,0,1,,,,,,,,,,,,,,,
,,,,,,,,,,,,,,,,p,1,0.61324,,,,,,,,3_dist_green/trial2.png,,1,3,greenverival,p,easy,5f0633361308dd16f7f4039c,26,female,2021-05-03_10h57.04.808,search_v5,2021.1.2,MacIntel,59.97720866,,,space,0.07125,0,114,114,1,1,,,,,,,,,,,,,,,
,,,,,,,,,,,,,,,,a,1,0.88352,,,,,,,,0_targ_4_dist_green/trial11.png,,0,4,greenverival,a,easy,5f0633361308dd16f7f4039c,26,female,2021-05-03_10h57.04.808,search_v5,2021.1.2,MacIntel,59.97720866,,,space,0.05056,0,115,115,89,1,,,,,,,,,,,,,,,
,,,,,,,,,,,,,,,,p,1,0.66489,,,,,,,,9_dist_green/trial16.png,,1,9,greenverival,p,mid,5f0633361308dd16f7f4039c,26,female,2021-05-03_10h57.04.808,search_v5,2021.1.2,MacIntel,59.97720866,,,space,0.04961,0,116,116,48,1,,,,,,,,,,,,,,,
,,,,,,,,,,,,,,,,a,1,0.72257,,,,,,,,0_targ_10_dist_green/trial20.png,,0,10,greenverival,a,mid,5f0633361308dd16f7f4039c,26,female,2021-05-03_10h57.04.808,search_v5,2021.1.2,MacIntel,59.97720866,,,space,0.039005,0,117,117,121,1,,,,,,,,,,,,,,,
,,,,,,,,,,,,,,,,a,1,0.712135,,,,,,,,0_targ_16_dist_green/trial1.png,,0,16,greenverival,a,hard,5f0633361308dd16f7f4039c,26,female,2021-05-03_10h57.04.808,search_v5,2021.1.2,MacIntel,59.97720866,,,space,0.034355,0,118,118,10,1,,,,,,,,,,,,,,,
,,,,,,,,,,,,,,,,p,1,0.695655,,,,,,,,3_dist_green/trial11.png,,1,3,greenverival,p,easy,5f0633361308dd16f7f4039c,26,female,2021-05-03_10h57.04.808,search_v5,2021.1.2,MacIntel,59.97720866,,,space,0.07659,0,119,119,20,1,,,,,,,,,,,,,,,
,,,,,,,,,,,,,,,,a,1,1.9479,,,,,,,,0_targ_4_dist_green/trial21.png,,0,4,greenverival,a,easy,5f0633361308dd16f7f4039c,26,female,2021-05-03_10h57.04.808,search_v5,2021.1.2,MacIntel,59.97720866,,,space,0.044165,0,120,120,99,1,,,,,,,,,,,,,,,
,,,,,,,,,,,,,,,,p,1,0.70964,,,,,,,,9_dist_green/trial22.png,,1,9,greenverival,p,mid,5f0633361308dd16f7f4039c,26,female,2021-05-03_10h57.04.808,search_v5,2021.1.2,MacIntel,59.97720866,,,space,0.07018,0,121,121,54,1,,,,,,,,,,,,,,,
,,,,,,,,,,,,,,,,p,1,0.864845,,,,,,,,9_dist_green/trial4.png,,1,9,greenverival,p,mid,5f0633361308dd16f7f4039c,26,female,2021-05-03_10h57.04.808,search_v5,2021.1.2,MacIntel,59.97720866,,,space,0.04445,0,122,122,36,1,,,,,,,,,,,,,,,
,,,,,,,,,,,,,,,,a,1,1.146055,,,,,,,,0_targ_16_dist_green/trial6.png,,0,16,greenverival,a,hard,5f0633361308dd16f7f4039c,26,female,2021-05-03_10h57.04.808,search_v5,2021.1.2,MacIntel,59.97720866,,,space,0.04574,0,123,123,130,1,,,,,,,,,,,,,,,
,,,,,,,,,,,,,,,,a,1,0.70201,,,,,,,,0_targ_4_dist_green/trial18.png,,0,4,greenverival,a,easy,5f0633361308dd16f7f4039c,26,female,2021-05-03_10h57.04.808,search_v5,2021.1.2,MacIntel,59.97720866,,,space,0.05907,0,124,124,96,1,,,,,,,,,,,,,,,
,,,,,,,,,,,,,,,,p,1,0.643935,,,,,,,,3_dist_green/trial14.png,,1,3,greenverival,p,easy,5f0633361308dd16f7f4039c,26,female,2021-05-03_10h57.04.808,search_v5,2021.1.2,MacIntel,59.97720866,,,space,0.047325,0,125,125,23,1,,,,,,,,,,,,,,,
,,,,,,,,,,,,,,,,a,1,1.317555,,,,,,,,0_targ_4_dist_green/trial19.png,,0,4,greenverival,a,easy,5f0633361308dd16f7f4039c,26,female,2021-05-03_10h57.04.808,search_v5,2021.1.2,MacIntel,59.97720866,,,space,0.038085,0,126,126,97,1,,,,,,,,,,,,,,,
,,,,,,,,,,,,,,,,a,1,1.67015,,,,,,,,0_targ_16_dist_green/trial3.png,,0,16,greenverival,a,hard,5f0633361308dd16f7f4039c,26,female,2021-05-03_10h57.04.808,search_v5,2021.1.2,MacIntel,59.97720866,,,space,0.067835,0,127,127,127,1,,,,,,,,,,,,,,,
,,,,,,,,,,,,,,,,p,1,0.713535,,,,,,,,9_dist_green/trial5.png,,1,9,greenverival,p,mid,5f0633361308dd16f7f4039c,26,female,2021-05-03_10h57.04.808,search_v5,2021.1.2,MacIntel,59.97720866,,,space,0.058165,0,128,128,37,1,,,,,,,,,,,,,,,
,,,,,,,,,,,,,,,,p,1,0.70076,,,,,,,,15_dist_green/trial24.png,,1,15,greenverival,p,hard,5f0633361308dd16f7f4039c,26,female,2021-05-03_10h57.04.808,search_v5,2021.1.2,MacIntel,59.97720866,,,space,0.071195,0,129,129,79,1,,,,,,,,,,,,,,,
,,,,,,,,,,,,,,,,a,1,0.867835,,,,,,,,0_targ_16_dist_green/trial21.png,,0,16,greenverival,a,hard,5f0633361308dd16f7f4039c,26,female,2021-05-03_10h57.04.808,search_v5,2021.1.2,MacIntel,59.97720866,,,space,0.059785,0,130,130,145,1,,,,,,,,,,,,,,,
,,,,,,,,,,,,,,,,p,1,0.976245,,,,,,,,15_dist_green/trial9.png,,1,15,greenverival,p,hard,5f0633361308dd16f7f4039c,26,female,2021-05-03_10h57.04.808,search_v5,2021.1.2,MacIntel,59.97720866,,,space,0.06867,0,131,131,64,1,,,,,,,,,,,,,,,
,,,,,,,,,,,,,,,,p,1,0.9367,,,,,,,,9_dist_green/trial21.png,,1,9,greenverival,p,mid,5f0633361308dd16f7f4039c,26,female,2021-05-03_10h57.04.808,search_v5,2021.1.2,MacIntel,59.97720866,,,space,0.057275,0,132,132,53,1,,,,,,,,,,,,,,,
,,,,,,,,,,,,,,,,a,1,0.782795,,,,,,,,0_targ_10_dist_green/trial23.png,,0,10,greenverival,a,mid,5f0633361308dd16f7f4039c,26,female,2021-05-03_10h57.04.808,search_v5,2021.1.2,MacIntel,59.97720866,,,space,0.026095,0,133,133,124,1,,,,,,,,,,,,,,,
,,,,,,,,,,,,,,,,a,1,1.348115,,,,,,,,0_targ_10_dist_green/trial14.png,,0,10,greenverival,a,mid,5f0633361308dd16f7f4039c,26,female,2021-05-03_10h57.04.808,search_v5,2021.1.2,MacIntel,59.97720866,,,space,0.07083,0,134,134,115,1,,,,,,,,,,,,,,,
,,,,,,,,,,,,,,,,p,1,1.212415,,,,,,,,9_dist_green/trial19.png,,1,9,greenverival,p,mid,5f0633361308dd16f7f4039c,26,female,2021-05-03_10h57.04.808,search_v5,2021.1.2,MacIntel,59.97720866,,,space,0.0579,0,135,135,51,1,,,,,,,,,,,,,,,
,,,,,,,,,,,,,,,,a,1,0.67673,,,,,,,,0_targ_4_dist_green/trial8.png,,0,4,greenverival,a,easy,5f0633361308dd16f7f4039c,26,female,2021-05-03_10h57.04.808,search_v5,2021.1.2,MacIntel,59.97720866,,,space,0.06271,0,136,136,86,1,,,,,,,,,,,,,,,
,,,,,,,,,,,,,,,,a,1,1.20323,,,,,,,,0_targ_16_dist_green/trial12.png,,0,16,greenverival,a,hard,5f0633361308dd16f7f4039c,26,female,2021-05-03_10h57.04.808,search_v5,2021.1.2,MacIntel,59.97720866,,,space,0.027245,0,137,137,136,1,,,,,,,,,,,,,,,
,,,,,,,,,,,,,,,,p,1,0.75059,,,,,,,,3_dist_green/trial8.png,,1,3,greenverival,p,easy,5f0633361308dd16f7f4039c,26,female,2021-05-03_10h57.04.808,search_v5,2021.1.2,MacIntel,59.97720866,,,space,0.075405,0,138,138,17,1,,,,,,,,,,,,,,,
,,,,,,,,,,,,,,,,p,1,0.7355,,,,,,,,15_dist_green/trial8.png,,1,15,greenverival,p,hard,5f0633361308dd16f7f4039c,26,female,2021-05-03_10h57.04.808,search_v5,2021.1.2,MacIntel,59.97720866,,,space,0.06879,0,139,139,63,1,,,,,,,,,,,,,,,
,,,,,,,,,,,,,,,,p,1,0.760265,,,,,,,,9_dist_green/trial1.png,,1,9,greenverival,p,mid,5f0633361308dd16f7f4039c,26,female,2021-05-03_10h57.04.808,search_v5,2021.1.2,MacIntel,59.97720866,,,space,0.069945,0,140,140,2,1,,,,,,,,,,,,,,,
,,,,,,,,,,,,,,,,p,1,0.863355,,,,,,,,15_dist_green/trial15.png,,1,15,greenverival,p,hard,5f0633361308dd16f7f4039c,26,female,2021-05-03_10h57.04.808,search_v5,2021.1.2,MacIntel,59.97720866,,,space,0.06889,0,141,141,70,1,,,,,,,,,,,,,,,
,,,,,,,,,,,,,,,,p,1,0.70292,,,,,,,,9_dist_green/trial7.png,,1,9,greenverival,p,mid,5f0633361308dd16f7f4039c,26,female,2021-05-03_10h57.04.808,search_v5,2021.1.2,MacIntel,59.97720866,,,space,0.083935,0,142,142,39,1,,,,,,,,,,,,,,,
,,,,,,,,,,,,,,,,p,1,0.611445,,,,,,,,9_dist_green/trial10.png,,1,9,greenverival,p,mid,5f0633361308dd16f7f4039c,26,female,2021-05-03_10h57.04.808,search_v5,2021.1.2,MacIntel,59.97720866,,,space,0.067745,0,143,143,42,1,,,,,,,,,,,,,,,
,,,,,,,,,,,,,,,,p,1,0.711045,,,,,,,,3_dist_green/trial6.png,,1,3,greenverival,p,easy,5f0633361308dd16f7f4039c,26,female,2021-05-03_10h57.04.808,search_v5,2021.1.2,MacIntel,59.97720866,,,space,0.06146,0,144,144,15,1,,,,,,,,,,,,,,,
,,,,,,,,,,,,,,,,p,1,1.14643,,,,,,,,9_dist_green/trial3.png,,1,9,greenverival,p,mid,5f0633361308dd16f7f4039c,26,female,2021-05-03_10h57.04.808,search_v5,2021.1.2,MacIntel,59.97720866,,,space,0.051185,0,145,145,35,1,,,,,,,,,,,,,,,
,,,,,,,,,,,,,,,,a,1,0.793585,,,,,,,,0_targ_10_dist_green/trial22.png,,0,10,greenverival,a,mid,5f0633361308dd16f7f4039c,26,female,2021-05-03_10h57.04.808,search_v5,2021.1.2,MacIntel,59.97720866,,,space,0.068745,0,146,146,123,1,,,,,,,,,,,,,,,
,,,,,,,,,,,,,,,,a,1,0.83501,,,,,,,,0_targ_16_dist_green/trial5.png,,0,16,greenverival,a,hard,5f0633361308dd16f7f4039c,26,female,2021-05-03_10h57.04.808,search_v5,2021.1.2,MacIntel,59.97720866,,,space,0.069715,0,147,147,129,1,,,,,,,,,,,,,,,
,,,,,,,,,,,,,,,,p,1,0.715205,,,,,,,,15_dist_green/trial20.png,,1,15,greenverival,p,hard,5f0633361308dd16f7f4039c,26,female,2021-05-03_10h57.04.808,search_v5,2021.1.2,MacIntel,59.97720866,,,space,0.06051,0,148,148,75,1,,,,,,,,,,,,,,,
,,,,,,,,,,,,,,,,a,1,0.8647,,,,,,,,0_targ_16_dist_green/trial4.png,,0,16,greenverival,a,hard,5f0633361308dd16f7f4039c,26,female,2021-05-03_10h57.04.808,search_v5,2021.1.2,MacIntel,59.97720866,,,space,0.032615,0,149,149,128,1,,,,,,,,,,,,,,,
,,,,,,,,,,,,,,,,,,,,,,,,,,,,,,,,,5f0633361308dd16f7f4039c,26,female,2021-05-03_10h57.04.808,search_v5,2021.1.2,MacIntel,59.97720866,,,,,,,,,,0,0,0,0,1,conGreen.xlsx,green vertical,Look for green vertical bar (target) and indicate if it is present or absent in the array. If green vertical target is present press 'p' and if absent press 'a'. Press SPACE to start.,green_bar_example.jpg,,,,egGreen.xlsx,,
,,,,,,,,,,,,space,4.90411,space,7.619885,a,1,6.265255,space,0.716915,0,0,0,9,1,tex_easy_TA/1.7_r=TA_seed=3.png,,0,,texture,a,easy,5f0633361308dd16f7f4039c,26,female,2021-05-03_10h57.04.808,search_v5,2021.1.2,MacIntel,59.97720866,,,,,,,,,,,,,,,,,,,,,,,,
,,,,,,,,,,,,,,,,p,1,1.57891,space,0.50448,0,1,1,1,1,tex_easy_TP/1.7_r=150_phi=315_seed=3.png,,1,,texture,p,easy,5f0633361308dd16f7f4039c,26,female,2021-05-03_10h57.04.808,search_v5,2021.1.2,MacIntel,59.97720866,,,,,,,,,,,,,,,,,,,,,,,,
,,,,,,,,,,,,,,,,a,0,4.478315,space,1.76655,0,2,2,3,1,tex_hard_TP/1.6_r=100_phi=270_seed=1.png,,1,,texture,p,hard,5f0633361308dd16f7f4039c,26,female,2021-05-03_10h57.04.808,search_v5,2021.1.2,MacIntel,59.97720866,,,,,,,,,,,,,,,,,,,,,,,,
,,,,,,,,,,,,,,,,p,0,7.620425,space,1.215075,0,3,3,7,1,tex_mid_TA/1.65_r=TA_seed=2.png,,0,,texture,a,mid,5f0633361308dd16f7f4039c,26,female,2021-05-03_10h57.04.808,search_v5,2021.1.2,MacIntel,59.97720866,,,,,,,,,,,,,,,,,,,,,,,,
,,,,,,,,,,,,,,,,a,1,11.349755,space,0.552805,0,4,4,11,1,tex_hard_TA/1.6_r=TA_seed=1.png,,0,,texture,a,hard,5f0633361308dd16f7f4039c,26,female,2021-05-03_10h57.04.808,search_v5,2021.1.2,MacIntel,59.97720866,,,,,,,,,,,,,,,,,,,,,,,,
,,,,,,,,,,,,,,,,a,1,7.666465,space,0.382555,0,5,5,10,1,tex_hard_TA/1.6_r=TA_seed=1.png,,0,,texture,a,hard,5f0633361308dd16f7f4039c,26,female,2021-05-03_10h57.04.808,search_v5,2021.1.2,MacIntel,59.97720866,,,,,,,,,,,,,,,,,,,,,,,,
,,,,,,,,,,,,,,,,p,1,1.08403,space,0.44644,0,6,6,5,1,tex_mid_TP/1.65_r=100_phi=270_seed=2.png,,1,,texture,p,mid,5f0633361308dd16f7f4039c,26,female,2021-05-03_10h57.04.808,search_v5,2021.1.2,MacIntel,59.97720866,,,,,,,,,,,,,,,,,,,,,,,,
,,,,,,,,,,,,,,,,p,1,0.690015,space,0.13587,0,7,7,4,1,tex_mid_TP/1.65_r=100_phi=225_seed=2.png,,1,,texture,p,mid,5f0633361308dd16f7f4039c,26,female,2021-05-03_10h57.04.808,search_v5,2021.1.2,MacIntel,59.97720866,,,,,,,,,,,,,,,,,,,,,,,,
,,,,,,,,,,,,,,,,a,0,3.30535,space,1.12866,0,8,8,2,1,tex_hard_TP/1.6_r=100_phi=0_seed=1.png,,1,,texture,p,hard,5f0633361308dd16f7f4039c,26,female,2021-05-03_10h57.04.808,search_v5,2021.1.2,MacIntel,59.97720866,,,,,,,,,,,,,,,,,,,,,,,,
,,,,,,,,,,,,,,,,a,1,8.62692,space,0.424455,0,9,9,8,1,tex_easy_TA/1.7_r=TA_seed=3.png,,0,,texture,a,easy,5f0633361308dd16f7f4039c,26,female,2021-05-03_10h57.04.808,search_v5,2021.1.2,MacIntel,59.97720866,,,,,,,,,,,,,,,,,,,,,,,,
,,,,,,,,,,,,,,,,a,1,9.171985,space,0.402835,0,10,10,6,1,tex_mid_TA/1.65_r=TA_seed=2.png,,0,,texture,a,mid,5f0633361308dd16f7f4039c,26,female,2021-05-03_10h57.04.808,search_v5,2021.1.2,MacIntel,59.97720866,,,,,,,,,,,,,,,,,,,,,,,,
,,,,,,,,,,,,,,,,p,1,0.710865,space,0.31496,0,11,11,0,1,tex_easy_TP/1.7_r=150_phi=225_seed=3.png,,1,,texture,p,easy,5f0633361308dd16f7f4039c,26,female,2021-05-03_10h57.04.808,search_v5,2021.1.2,MacIntel,59.97720866,,,,,,,,,,,,,,,,,,,,,,,,
,,,,,,,,,,,,,,,,a,1,5.407065,,,,,,,,tex_hard_TA/1.6_r=TA_seed=1.png,,0,,texture,a,hard,5f0633361308dd16f7f4039c,26,female,2021-05-03_10h57.04.808,search_v5,2021.1.2,MacIntel,59.97720866,space,3.501325,space,0.338575,0,0,0,149,1,,,,,,,,,,,,,,,
,,,,,,,,,,,,,,,,p,1,0.93998,,,,,,,,tex_mid_TP/1.65_r=350_phi=0_seed=2.png,,1,,texture,p,mid,5f0633361308dd16f7f4039c,26,female,2021-05-03_10h57.04.808,search_v5,2021.1.2,MacIntel,59.97720866,,,space,0.27135,0,1,1,70,1,,,,,,,,,,,,,,,
,,,,,,,,,,,,,,,,a,1,2.399785,,,,,,,,tex_easy_TA/1.7_r=TA_seed=3.png,,0,,texture,a,easy,5f0633361308dd16f7f4039c,26,female,2021-05-03_10h57.04.808,search_v5,2021.1.2,MacIntel,59.97720866,,,space,0.338275,0,2,2,114,1,,,,,,,,,,,,,,,
,,,,,,,,,,,,,,,,a,1,2.634485,,,,,,,,tex_mid_TA/1.65_r=TA_seed=2.png,,0,,texture,a,mid,5f0633361308dd16f7f4039c,26,female,2021-05-03_10h57.04.808,search_v5,2021.1.2,MacIntel,59.97720866,,,space,0.33765,0,3,3,92,1,,,,,,,,,,,,,,,
,,,,,,,,,,,,,,,,a,1,3.0911,,,,,,,,tex_easy_TA/1.7_r=TA_seed=3.png,,0,,texture,a,easy,5f0633361308dd16f7f4039c,26,female,2021-05-03_10h57.04.808,search_v5,2021.1.2,MacIntel,59.97720866,,,space,0.39216,0,4,4,116,1,,,,,,,,,,,,,,,
,,,,,,,,,,,,,,,,p,1,0.86542,,,,,,,,tex_mid_TP/1.65_r=400_phi=315_seed=2.png,,1,,texture,p,mid,5f0633361308dd16f7f4039c,26,female,2021-05-03_10h57.04.808,search_v5,2021.1.2,MacIntel,59.97720866,,,space,0.14212,0,5,5,73,1,,,,,,,,,,,,,,,
,,,,,,,,,,,,,,,,p,1,4.09363,,,,,,,,tex_hard_TP/1.6_r=150_phi=135_seed=1.png,,1,,texture,p,hard,5f0633361308dd16f7f4039c,26,female,2021-05-03_10h57.04.808,search_v5,2021.1.2,MacIntel,59.97720866,,,space,0.401955,0,6,6,36,1,,,,,,,,,,,,,,,
,,,,,,,,,,,,,,,,p,1,1.079365,,,,,,,,tex_easy_TP/1.7_r=350_phi=315_seed=3.png,,1,,texture,p,easy,5f0633361308dd16f7f4039c,26,female,2021-05-03_10h57.04.808,search_v5,2021.1.2,MacIntel,59.97720866,,,space,0.10314,0,7,7,26,1,,,,,,,,,,,,,,,
,,,,,,,,,,,,,,,,a,0,4.11962,,,,,,,,tex_hard_TP/1.6_r=100_phi=90_seed=1.png,,1,,texture,p,hard,5f0633361308dd16f7f4039c,26,female,2021-05-03_10h57.04.808,search_v5,2021.1.2,MacIntel,59.97720866,,,space,1.09171,0,8,8,35,1,,,,,,,,,,,,,,,
,,,,,,,,,,,,,,,,p,0,2.60017,,,,,,,,tex_hard_TA/1.6_r=TA_seed=1.png,,0,,texture,a,hard,5f0633361308dd16f7f4039c,26,female,2021-05-03_10h57.04.808,search_v5,2021.1.2,MacIntel,59.97720866,,,space,1.9724,0,9,9,139,1,,,,,,,,,,,,,,,
,,,,,,,,,,,,,,,,p,1,1.215515,,,,,,,,tex_easy_TP/1.7_r=250_phi=315_seed=3.png,,1,,texture,p,easy,5f0633361308dd16f7f4039c,26,female,2021-05-03_10h57.04.808,search_v5,2021.1.2,MacIntel,59.97720866,,,space,0.299215,0,10,10,19,1,,,,,,,,,,,,,,,
,,,,,,,,,,,,,,,,p,1,0.79955,,,,,,,,tex_easy_TP/1.7_r=200_phi=225_seed=3.png,,1,,texture,p,easy,5f0633361308dd16f7f4039c,26,female,2021-05-03_10h57.04.808,search_v5,2021.1.2,MacIntel,59.97720866,,,space,0.16268,0,11,11,14,1,,,,,,,,,,,,,,,
,,,,,,,,,,,,,,,,a,0,6.002475,,,,,,,,tex_hard_TP/1.6_r=400_phi=315_seed=1.png,,1,,texture,p,hard,5f0633361308dd16f7f4039c,26,female,2021-05-03_10h57.04.808,search_v5,2021.1.2,MacIntel,59.97720866,,,space,3.502085,0,12,12,50,1,,,,,,,,,,,,,,,
,,,,,,,,,,,,,,,,p,1,0.82935,,,,,,,,tex_easy_TP/1.7_r=300_phi=225_seed=3.png,,1,,texture,p,easy,5f0633361308dd16f7f4039c,26,female,2021-05-03_10h57.04.808,search_v5,2021.1.2,MacIntel,59.97720866,,,space,0.29655,0,13,13,22,1,,,,,,,,,,,,,,,
,,,,,,,,,,,,,,,,p,1,0.667685,,,,,,,,tex_easy_TP/1.7_r=250_phi=135_seed=3.png,,1,,texture,p,easy,5f0633361308dd16f7f4039c,26,female,2021-05-03_10h57.04.808,search_v5,2021.1.2,MacIntel,59.97720866,,,space,0.12524,0,14,14,17,1,,,,,,,,,,,,,,,
,,,,,,,,,,,,,,,,p,1,1.08129,,,,,,,,tex_mid_TP/1.65_r=50_phi=270_seed=2.png,,1,,texture,p,mid,5f0633361308dd16f7f4039c,26,female,2021-05-03_10h57.04.808,search_v5,2021.1.2,MacIntel,59.97720866,,,space,0.101415,0,15,15,78,1,,,,,,,,,,,,,,,
,,,,,,,,,,,,,,,,p,1,1.100975,,,,,,,,tex_easy_TP/1.7_r=400_phi=90_seed=3.png,,1,,texture,p,easy,5f0633361308dd16f7f4039c,26,female,2021-05-03_10h57.04.808,search_v5,2021.1.2,MacIntel,59.97720866,,,space,0.105,0,16,16,31,1,,,,,,,,,,,,,,,
,,,,,,,,,,,,,,,,a,1,7.399625,,,,,,,,tex_mid_TA/1.65_r=TA_seed=2.png,,0,,texture,a,mid,5f0633361308dd16f7f4039c,26,female,2021-05-03_10h57.04.808,search_v5,2021.1.2,MacIntel,59.97720866,,,space,0.449435,0,17,17,7,1,,,,,,,,,,,,,,,
,,,,,,,,,,,,,,,,p,0,6.98124,,,,,,,,tex_easy_TA/1.7_r=TA_seed=3.png,,0,,texture,a,easy,5f0633361308dd16f7f4039c,26,female,2021-05-03_10h57.04.808,search_v5,2021.1.2,MacIntel,59.97720866,,,space,2.12722,0,18,18,113,1,,,,,,,,,,,,,,,
,,,,,,,,,,,,,,,,p,1,0.91123,,,,,,,,tex_easy_TP/1.7_r=200_phi=135_seed=3.png,,1,,texture,p,easy,5f0633361308dd16f7f4039c,26,female,2021-05-03_10h57.04.808,search_v5,2021.1.2,MacIntel,59.97720866,,,space,0.100205,0,19,19,13,1,,,,,,,,,,,,,,,
,,,,,,,,,,,,,,,,p,1,0.691515,,,,,,,,tex_easy_TP/1.7_r=150_phi=225_seed=3.png,,1,,texture,p,easy,5f0633361308dd16f7f4039c,26,female,2021-05-03_10h57.04.808,search_v5,2021.1.2,MacIntel,59.97720866,,,space,0.060335,0,20,20,0,1,,,,,,,,,,,,,,,
,,,,,,,,,,,,,,,,p,1,1.04034,,,,,,,,tex_easy_TP/1.7_r=350_phi=135_seed=3.png,,1,,texture,p,easy,5f0633361308dd16f7f4039c,26,female,2021-05-03_10h57.04.808,search_v5,2021.1.2,MacIntel,59.97720866,,,space,0.069875,0,21,21,24,1,,,,,,,,,,,,,,,
,,,,,,,,,,,,,,,,a,1,4.31942,,,,,,,,tex_mid_TA/1.65_r=TA_seed=2.png,,0,,texture,a,mid,5f0633361308dd16f7f4039c,26,female,2021-05-03_10h57.04.808,search_v5,2021.1.2,MacIntel,59.97720866,,,space,0.45956,0,22,22,88,1,,,,,,,,,,,,,,,
,,,,,,,,,,,,,,,,a,0,4.8852,,,,,,,,tex_hard_TP/1.6_r=50_phi=135_seed=1.png,,1,,texture,p,hard,5f0633361308dd16f7f4039c,26,female,2021-05-03_10h57.04.808,search_v5,2021.1.2,MacIntel,59.97720866,,,space,0.79252,0,23,23,55,1,,,,,,,,,,,,,,,
,,,,,,,,,,,,,,,,p,1,1.49961,,,,,,,,tex_easy_TP/1.7_r=250_phi=90_seed=3.png,,1,,texture,p,easy,5f0633361308dd16f7f4039c,26,female,2021-05-03_10h57.04.808,search_v5,2021.1.2,MacIntel,59.97720866,,,space,0.454145,0,24,24,20,1,,,,,,,,,,,,,,,
,,,,,,,,,,,,,,,,a,0,11.36026,,,,,,,,tex_hard_TP/1.6_r=450_phi=315_seed=1.png,,1,,texture,p,hard,5f0633361308dd16f7f4039c,26,female,2021-05-03_10h57.04.808,search_v5,2021.1.2,MacIntel,59.97720866,,,space,1.168,0,25,25,53,1,,,,,,,,,,,,,,,
,,,,,,,,,,,,,,,,p,1,1.29596,,,,,,,,tex_easy_TP/1.7_r=250_phi=225_seed=3.png,,1,,texture,p,easy,5f0633361308dd16f7f4039c,26,female,2021-05-03_10h57.04.808,search_v5,2021.1.2,MacIntel,59.97720866,,,space,0.33458,0,26,26,18,1,,,,,,,,,,,,,,,
,,,,,,,,,,,,,,,,a,1,4.93998,,,,,,,,tex_mid_TA/1.65_r=TA_seed=2.png,,0,,texture,a,mid,5f0633361308dd16f7f4039c,26,female,2021-05-03_10h57.04.808,search_v5,2021.1.2,MacIntel,59.97720866,,,space,0.36861,0,27,27,86,1,,,,,,,,,,,,,,,
,,,,,,,,,,,,,,,,p,1,4.98959,,,,,,,,tex_hard_TP/1.6_r=50_phi=225_seed=1.png,,1,,texture,p,hard,5f0633361308dd16f7f4039c,26,female,2021-05-03_10h57.04.808,search_v5,2021.1.2,MacIntel,59.97720866,,,space,0.40384,0,28,28,56,1,,,,,,,,,,,,,,,
,,,,,,,,,,,,,,,,p,1,1.30187,,,,,,,,tex_easy_TP/1.7_r=200_phi=90_seed=3.png,,1,,texture,p,easy,5f0633361308dd16f7f4039c,26,female,2021-05-03_10h57.04.808,search_v5,2021.1.2,MacIntel,59.97720866,,,space,0.06717,0,29,29,16,1,,,,,,,,,,,,,,,
,,,,,,,,,,,,,,,,p,1,0.986125,,,,,,,,tex_easy_TP/1.7_r=450_phi=225_seed=3.png,,1,,texture,p,easy,5f0633361308dd16f7f4039c,26,female,2021-05-03_10h57.04.808,search_v5,2021.1.2,MacIntel,59.97720866,,,space,0.050805,0,30,30,33,1,,,,,,,,,,,,,,,
,,,,,,,,,,,,,,,,a,1,6.98504,,,,,,,,tex_hard_TA/1.6_r=TA_seed=1.png,,0,,texture,a,hard,5f0633361308dd16f7f4039c,26,female,2021-05-03_10h57.04.808,search_v5,2021.1.2,MacIntel,59.97720866,,,space,0.33725,0,31,31,146,1,,,,,,,,,,,,,,,
,,,,,,,,,,,,,,,,a,1,5.21596,,,,,,,,tex_easy_TA/1.7_r=TA_seed=3.png,,0,,texture,a,easy,5f0633361308dd16f7f4039c,26,female,2021-05-03_10h57.04.808,search_v5,2021.1.2,MacIntel,59.97720866,,,space,0.337215,0,32,32,118,1,,,,,,,,,,,,,,,
,,,,,,,,,,,,,,,,p,1,0.73429,,,,,,,,tex_mid_TP/1.65_r=100_phi=45_seed=2.png,,1,,texture,p,mid,5f0633361308dd16f7f4039c,26,female,2021-05-03_10h57.04.808,search_v5,2021.1.2,MacIntel,59.97720866,,,space,0.07087,0,33,33,58,1,,,,,,,,,,,,,,,
,,,,,,,,,,,,,,,,p,1,0.71598,,,,,,,,tex_easy_TP/1.7_r=450_phi=315_seed=3.png,,1,,texture,p,easy,5f0633361308dd16f7f4039c,26,female,2021-05-03_10h57.04.808,search_v5,2021.1.2,MacIntel,59.97720866,,,space,0.0449,0,34,34,34,1,,,,,,,,,,,,,,,
,,,,,,,,,,,,,,,,a,1,6.41633,,,,,,,,tex_mid_TA/1.65_r=TA_seed=2.png,,0,,texture,a,mid,5f0633361308dd16f7f4039c,26,female,2021-05-03_10h57.04.808,search_v5,2021.1.2,MacIntel,59.97720866,,,space,0.33714,0,35,35,6,1,,,,,,,,,,,,,,,
,,,,,,,,,,,,,,,,p,0,7.521855,,,,,,,,tex_hard_TA/1.6_r=TA_seed=1.png,,0,,texture,a,hard,5f0633361308dd16f7f4039c,26,female,2021-05-03_10h57.04.808,search_v5,2021.1.2,MacIntel,59.97720866,,,space,0.74378,0,36,36,10,1,,,,,,,,,,,,,,,
,,,,,,,,,,,,,,,,a,0,4.16534,,,,,,,,tex_hard_TP/1.6_r=450_phi=90_seed=1.png,,1,,texture,p,hard,5f0633361308dd16f7f4039c,26,female,2021-05-03_10h57.04.808,search_v5,2021.1.2,MacIntel,59.97720866,,,space,0.958855,0,37,37,54,1,,,,,,,,,,,,,,,
,,,,,,,,,,,,,,,,a,1,4.13116,,,,,,,,tex_mid_TA/1.65_r=TA_seed=2.png,,0,,texture,a,mid,5f0633361308dd16f7f4039c,26,female,2021-05-03_10h57.04.808,search_v5,2021.1.2,MacIntel,59.97720866,,,space,0.385105,0,38,38,84,1,,,,,,,,,,,,,,,
,,,,,,,,,,,,,,,,a,1,7.273835,,,,,,,,tex_hard_TA/1.6_r=TA_seed=1.png,,0,,texture,a,hard,5f0633361308dd16f7f4039c,26,female,2021-05-03_10h57.04.808,search_v5,2021.1.2,MacIntel,59.97720866,,,space,0.396085,0,39,39,140,1,,,,,,,,,,,,,,,
,,,,,,,,,,,,,,,,a,0,7.152945,,,,,,,,tex_hard_TP/1.6_r=300_phi=315_seed=1.png,,1,,texture,p,hard,5f0633361308dd16f7f4039c,26,female,2021-05-03_10h57.04.808,search_v5,2021.1.2,MacIntel,59.97720866,,,space,2.10396,0,40,40,45,1,,,,,,,,,,,,,,,
,,,,,,,,,,,,,,,,a,1,9.003455,,,,,,,,tex_hard_TA/1.6_r=TA_seed=1.png,,0,,texture,a,hard,5f0633361308dd16f7f4039c,26,female,2021-05-03_10h57.04.808,search_v5,2021.1.2,MacIntel,59.97720866,,,space,0.354165,0,41,41,136,1,,,,,,,,,,,,,,,
,,,,,,,,,,,,,,,,p,1,0.730755,,,,,,,,tex_mid_TP/1.65_r=200_phi=225_seed=2.png,,1,,texture,p,mid,5f0633361308dd16f7f4039c,26,female,2021-05-03_10h57.04.808,search_v5,2021.1.2,MacIntel,59.97720866,,,space,0.15206,0,42,42,60,1,,,,,,,,,,,,,,,
,,,,,,,,,,,,,,,,p,1,0.63806,,,,,,,,tex_mid_TP/1.65_r=50_phi=315_seed=2.png,,1,,texture,p,mid,5f0633361308dd16f7f4039c,26,female,2021-05-03_10h57.04.808,search_v5,2021.1.2,MacIntel,59.97720866,,,space,0.124315,0,43,43,79,1,,,,,,,,,,,,,,,
,,,,,,,,,,,,,,,,a,1,5.83578,,,,,,,,tex_easy_TA/1.7_r=TA_seed=3.png,,0,,texture,a,easy,5f0633361308dd16f7f4039c,26,female,2021-05-03_10h57.04.808,search_v5,2021.1.2,MacIntel,59.97720866,,,space,0.37784,0,44,44,107,1,,,,,,,,,,,,,,,
,,,,,,,,,,,,,,,,p,1,1.469165,,,,,,,,tex_mid_TP/1.65_r=400_phi=45_seed=2.png,,1,,texture,p,mid,5f0633361308dd16f7f4039c,26,female,2021-05-03_10h57.04.808,search_v5,2021.1.2,MacIntel,59.97720866,,,space,0.101375,0,45,45,74,1,,,,,,,,,,,,,,,
,,,,,,,,,,,,,,,,a,0,8.670115,,,,,,,,tex_hard_TP/1.6_r=300_phi=90_seed=1.png,,1,,texture,p,hard,5f0633361308dd16f7f4039c,26,female,2021-05-03_10h57.04.808,search_v5,2021.1.2,MacIntel,59.97720866,,,space,0.87244,0,46,46,46,1,,,,,,,,,,,,,,,
,,,,,,,,,,,,,,,,p,1,0.711635,,,,,,,,tex_mid_TP/1.65_r=150_phi=45_seed=2.png,,1,,texture,p,mid,5f0633361308dd16f7f4039c,26,female,2021-05-03_10h57.04.808,search_v5,2021.1.2,MacIntel,59.97720866,,,space,0.09355,0,47,47,59,1,,,,,,,,,,,,,,,
,,,,,,,,,,,,,,,,a,1,6.768115,,,,,,,,tex_easy_TA/1.7_r=TA_seed=3.png,,0,,texture,a,easy,5f0633361308dd16f7f4039c,26,female,2021-05-03_10h57.04.808,search_v5,2021.1.2,MacIntel,59.97720866,,,space,0.454195,0,48,48,105,1,,,,,,,,,,,,,,,
,,,,,,,,,,,,,,,,a,0,4.09007,,,,,,,,tex_easy_TP/1.7_r=400_phi=135_seed=3.png,,1,,texture,p,easy,5f0633361308dd16f7f4039c,26,female,2021-05-03_10h57.04.808,search_v5,2021.1.2,MacIntel,59.97720866,,,space,0.435095,0,49,49,28,1,,,,,,,,,,,,,,,
,,,,,,,,,,,,,,,,a,1,11.553,,,,,,,,tex_mid_TA/1.65_r=TA_seed=2.png,,0,,texture,a,mid,5f0633361308dd16f7f4039c,26,female,2021-05-03_10h57.04.808,search_v5,2021.1.2,MacIntel,59.97720866,,,space,0.53002,0,50,50,93,1,,,,,,,,,,,,,,,
,,,,,,,,,,,,,,,,p,1,4.493585,,,,,,,,tex_hard_TP/1.6_r=150_phi=90_seed=1.png,,1,,texture,p,hard,5f0633361308dd16f7f4039c,26,female,2021-05-03_10h57.04.808,search_v5,2021.1.2,MacIntel,59.97720866,,,space,0.41326,0,51,51,37,1,,,,,,,,,,,,,,,
,,,,,,,,,,,,,,,,a,1,5.221325,,,,,,,,tex_easy_TA/1.7_r=TA_seed=3.png,,0,,texture,a,easy,5f0633361308dd16f7f4039c,26,female,2021-05-03_10h57.04.808,search_v5,2021.1.2,MacIntel,59.97720866,,,space,0.380765,0,52,52,115,1,,,,,,,,,,,,,,,
,,,,,,,,,,,,,,,,p,1,0.872035,,,,,,,,tex_mid_TP/1.65_r=100_phi=270_seed=2.png,,1,,texture,p,mid,5f0633361308dd16f7f4039c,26,female,2021-05-03_10h57.04.808,search_v5,2021.1.2,MacIntel,59.97720866,,,space,0.090315,0,53,53,5,1,,,,,,,,,,,,,,,
,,,,,,,,,,,,,,,,a,1,6.223965,,,,,,,,tex_mid_TA/1.65_r=TA_seed=2.png,,0,,texture,a,mid,5f0633361308dd16f7f4039c,26,female,2021-05-03_10h57.04.808,search_v5,2021.1.2,MacIntel,59.97720866,,,space,0.34955,0,54,54,99,1,,,,,,,,,,,,,,,
,,,,,,,,,,,,,,,,p,1,1.032065,,,,,,,,tex_easy_TP/1.7_r=450_phi=135_seed=3.png,,1,,texture,p,easy,5f0633361308dd16f7f4039c,26,female,2021-05-03_10h57.04.808,search_v5,2021.1.2,MacIntel,59.97720866,,,space,0.09273,0,55,55,32,1,,,,,,,,,,,,,,,
,,,,,,,,,,,,,,,,a,1,4.135435,,,,,,,,tex_mid_TA/1.65_r=TA_seed=2.png,,0,,texture,a,mid,5f0633361308dd16f7f4039c,26,female,2021-05-03_10h57.04.808,search_v5,2021.1.2,MacIntel,59.97720866,,,space,0.361695,0,56,56,90,1,,,,,,,,,,,,,,,
,,,,,,,,,,,,,,,,p,1,0.713295,,,,,,,,tex_easy_TP/1.7_r=350_phi=225_seed=3.png,,1,,texture,p,easy,5f0633361308dd16f7f4039c,26,female,2021-05-03_10h57.04.808,search_v5,2021.1.2,MacIntel,59.97720866,,,space,0.129815,0,57,57,25,1,,,,,,,,,,,,,,,
,,,,,,,,,,,,,,,,p,1,9.022435,,,,,,,,tex_hard_TP/1.6_r=350_phi=315_seed=1.png,,1,,texture,p,hard,5f0633361308dd16f7f4039c,26,female,2021-05-03_10h57.04.808,search_v5,2021.1.2,MacIntel,59.97720866,,,space,0.02247,0,58,58,47,1,,,,,,,,,,,,,,,
,,,,,,,,,,,,,,,,a,1,6.15372,,,,,,,,tex_hard_TA/1.6_r=TA_seed=1.png,,0,,texture,a,hard,5f0633361308dd16f7f4039c,26,female,2021-05-03_10h57.04.808,search_v5,2021.1.2,MacIntel,59.97720866,,,space,0.395175,0,59,59,144,1,,,,,,,,,,,,,,,
,,,,,,,,,,,,,,,,p,1,1.075515,,,,,,,,tex_mid_TP/1.65_r=350_phi=90_seed=2.png,,1,,texture,p,mid,5f0633361308dd16f7f4039c,26,female,2021-05-03_10h57.04.808,search_v5,2021.1.2,MacIntel,59.97720866,,,space,0.079105,0,60,60,71,1,,,,,,,,,,,,,,,
,,,,,,,,,,,,,,,,a,1,3.74643,,,,,,,,tex_mid_TA/1.65_r=TA_seed=2.png,,0,,texture,a,mid,5f0633361308dd16f7f4039c,26,female,2021-05-03_10h57.04.808,search_v5,2021.1.2,MacIntel,59.97720866,,,space,0.077455,0,61,61,100,1,,,,,,,,,,,,,,,
,,,,,,,,,,,,,,,,a,1,3.54561,,,,,,,,tex_hard_TA/1.6_r=TA_seed=1.png,,0,,texture,a,hard,5f0633361308dd16f7f4039c,26,female,2021-05-03_10h57.04.808,search_v5,2021.1.2,MacIntel,59.97720866,,,space,0.149055,0,62,62,148,1,,,,,,,,,,,,,,,
,,,,,,,,,,,,,,,,a,1,3.716055,,,,,,,,tex_hard_TA/1.6_r=TA_seed=1.png,,0,,texture,a,hard,5f0633361308dd16f7f4039c,26,female,2021-05-03_10h57.04.808,search_v5,2021.1.2,MacIntel,59.97720866,,,space,0.4039,0,63,63,131,1,,,,,,,,,,,,,,,
,,,,,,,,,,,,,,,,a,1,4.11891,,,,,,,,tex_hard_TA/1.6_r=TA_seed=1.png,,0,,texture,a,hard,5f0633361308dd16f7f4039c,26,female,2021-05-03_10h57.04.808,search_v5,2021.1.2,MacIntel,59.97720866,,,space,0.34607,0,64,64,129,1,,,,,,,,,,,,,,,
,,,,,,,,,,,,,,,,a,1,3.74499,,,,,,,,tex_easy_TA/1.7_r=TA_seed=3.png,,0,,texture,a,easy,5f0633361308dd16f7f4039c,26,female,2021-05-03_10h57.04.808,search_v5,2021.1.2,MacIntel,59.97720866,,,space,0.34998,0,65,65,120,1,,,,,,,,,,,,,,,
,,,,,,,,,,,,,,,,a,1,3.64524,,,,,,,,tex_easy_TA/1.7_r=TA_seed=3.png,,0,,texture,a,easy,5f0633361308dd16f7f4039c,26,female,2021-05-03_10h57.04.808,search_v5,2021.1.2,MacIntel,59.97720866,,,space,0.32269,0,66,66,108,1,,,,,,,,,,,,,,,
,,,,,,,,,,,,,,,,p,1,1.14334,,,,,,,,tex_mid_TP/1.65_r=450_phi=0_seed=2.png,,1,,texture,p,mid,5f0633361308dd16f7f4039c,26,female,2021-05-03_10h57.04.808,search_v5,2021.1.2,MacIntel,59.97720866,,,space,0.128185,0,67,67,75,1,,,,,,,,,,,,,,,
,,,,,,,,,,,,,,,,a,1,3.38669,,,,,,,,tex_mid_TA/1.65_r=TA_seed=2.png,,0,,texture,a,mid,5f0633361308dd16f7f4039c,26,female,2021-05-03_10h57.04.808,search_v5,2021.1.2,MacIntel,59.97720866,,,space,0.358775,0,68,68,87,1,,,,,,,,,,,,,,,
,,,,,,,,,,,,,,,,a,1,5.86681,,,,,,,,tex_mid_TA/1.65_r=TA_seed=2.png,,0,,texture,a,mid,5f0633361308dd16f7f4039c,26,female,2021-05-03_10h57.04.808,search_v5,2021.1.2,MacIntel,59.97720866,,,space,0.311795,0,69,69,82,1,,,,,,,,,,,,,,,
,,,,,,,,,,,,,,,,a,1,4.05033,,,,,,,,tex_hard_TA/1.6_r=TA_seed=1.png,,0,,texture,a,hard,5f0633361308dd16f7f4039c,26,female,2021-05-03_10h57.04.808,search_v5,2021.1.2,MacIntel,59.97720866,,,space,0.30994,0,70,70,130,1,,,,,,,,,,,,,,,
,,,,,,,,,,,,,,,,p,1,0.76818,,,,,,,,tex_mid_TP/1.65_r=250_phi=225_seed=2.png,,1,,texture,p,mid,5f0633361308dd16f7f4039c,26,female,2021-05-03_10h57.04.808,search_v5,2021.1.2,MacIntel,59.97720866,,,space,0.10352,0,71,71,64,1,,,,,,,,,,,,,,,
,,,,,,,,,,,,,,,,a,1,6.916675,,,,,,,,tex_easy_TA/1.7_r=TA_seed=3.png,,0,,texture,a,easy,5f0633361308dd16f7f4039c,26,female,2021-05-03_10h57.04.808,search_v5,2021.1.2,MacIntel,59.97720866,,,space,0.304895,0,72,72,111,1,,,,,,,,,,,,,,,
,,,,,,,,,,,,,,,,p,1,1.0656,,,,,,,,tex_easy_TP/1.7_r=300_phi=135_seed=3.png,,1,,texture,p,easy,5f0633361308dd16f7f4039c,26,female,2021-05-03_10h57.04.808,search_v5,2021.1.2,MacIntel,59.97720866,,,space,0.072565,0,73,73,21,1,,,,,,,,,,,,,,,
,,,,,,,,,,,,,,,,a,1,4.78477,,,,,,,,tex_easy_TA/1.7_r=TA_seed=3.png,,0,,texture,a,easy,5f0633361308dd16f7f4039c,26,female,2021-05-03_10h57.04.808,search_v5,2021.1.2,MacIntel,59.97720866,,,space,0.337415,0,74,74,104,1,,,,,,,,,,,,,,,
,,,,,,,,,,,,,,,,p,1,0.646665,,,,,,,,tex_easy_TP/1.7_r=150_phi=90_seed=3.png,,1,,texture,p,easy,5f0633361308dd16f7f4039c,26,female,2021-05-03_10h57.04.808,search_v5,2021.1.2,MacIntel,59.97720866,,,space,0.06955,0,75,75,12,1,,,,,,,,,,,,,,,
,,,,,,,,,,,,,,,,p,1,1.317345,,,,,,,,tex_mid_TP/1.65_r=300_phi=135_seed=2.png,,1,,texture,p,mid,5f0633361308dd16f7f4039c,26,female,2021-05-03_10h57.04.808,search_v5,2021.1.2,MacIntel,59.97720866,,,space,0.070625,0,76,76,66,1,,,,,,,,,,,,,,,
,,,,,,,,,,,,,,,,a,0,4.002235,,,,,,,,tex_hard_TP/1.6_r=450_phi=135_seed=1.png,,1,,texture,p,hard,5f0633361308dd16f7f4039c,26,female,2021-05-03_10h57.04.808,search_v5,2021.1.2,MacIntel,59.97720866,,,space,0.00095,0,77,77,52,1,,,,,,,,,,,,,,,
,,,,,,,,,,,,,,,,a,1,3.900075,,,,,,,,tex_hard_TA/1.6_r=TA_seed=1.png,,0,,texture,a,hard,5f0633361308dd16f7f4039c,26,female,2021-05-03_10h57.04.808,search_v5,2021.1.2,MacIntel,59.97720866,,,space,0.35806,0,78,78,127,1,,,,,,,,,,,,,,,
,,,,,,,,,,,,,,,,a,1,4.02758,,,,,,,,tex_easy_TA/1.7_r=TA_seed=3.png,,0,,texture,a,easy,5f0633361308dd16f7f4039c,26,female,2021-05-03_10h57.04.808,search_v5,2021.1.2,MacIntel,59.97720866,,,space,0.302935,0,79,79,109,1,,,,,,,,,,,,,,,
,,,,,,,,,,,,,,,,a,1,3.20223,,,,,,,,tex_easy_TA/1.7_r=TA_seed=3.png,,0,,texture,a,easy,5f0633361308dd16f7f4039c,26,female,2021-05-03_10h57.04.808,search_v5,2021.1.2,MacIntel,59.97720866,,,space,0.376365,0,80,80,8,1,,,,,,,,,,,,,,,
,,,,,,,,,,,,,,,,a,1,3.017695,,,,,,,,tex_hard_TA/1.6_r=TA_seed=1.png,,0,,texture,a,hard,5f0633361308dd16f7f4039c,26,female,2021-05-03_10h57.04.808,search_v5,2021.1.2,MacIntel,59.97720866,,,space,0.32841,0,81,81,138,1,,,,,,,,,,,,,,,
,,,,,,,,,,,,,,,,p,1,0.6471,,,,,,,,tex_easy_TP/1.7_r=300_phi=315_seed=3.png,,1,,texture,p,easy,5f0633361308dd16f7f4039c,26,female,2021-05-03_10h57.04.808,search_v5,2021.1.2,MacIntel,59.97720866,,,space,0.102965,0,82,82,23,1,,,,,,,,,,,,,,,
,,,,,,,,,,,,,,,,a,1,4.062045,,,,,,,,tex_easy_TA/1.7_r=TA_seed=3.png,,0,,texture,a,easy,5f0633361308dd16f7f4039c,26,female,2021-05-03_10h57.04.808,search_v5,2021.1.2,MacIntel,59.97720866,,,space,0.33885,0,83,83,125,1,,,,,,,,,,,,,,,
,,,,,,,,,,,,,,,,p,1,0.64444,,,,,,,,tex_mid_TP/1.65_r=250_phi=180_seed=2.png,,1,,texture,p,mid,5f0633361308dd16f7f4039c,26,female,2021-05-03_10h57.04.808,search_v5,2021.1.2,MacIntel,59.97720866,,,space,0.103345,0,84,84,63,1,,,,,,,,,,,,,,,
,,,,,,,,,,,,,,,,a,1,4.585785,,,,,,,,tex_easy_TA/1.7_r=TA_seed=3.png,,0,,texture,a,easy,5f0633361308dd16f7f4039c,26,female,2021-05-03_10h57.04.808,search_v5,2021.1.2,MacIntel,59.97720866,,,space,0.43702,0,85,85,117,1,,,,,,,,,,,,,,,
,,,,,,,,,,,,,,,,p,0,4.838055,,,,,,,,tex_hard_TA/1.6_r=TA_seed=1.png,,0,,texture,a,hard,5f0633361308dd16f7f4039c,26,female,2021-05-03_10h57.04.808,search_v5,2021.1.2,MacIntel,59.97720866,,,space,1.880265,0,86,86,143,1,,,,,,,,,,,,,,,
,,,,,,,,,,,,,,,,a,1,4.967185,,,,,,,,tex_mid_TA/1.65_r=TA_seed=2.png,,0,,texture,a,mid,5f0633361308dd16f7f4039c,26,female,2021-05-03_10h57.04.808,search_v5,2021.1.2,MacIntel,59.97720866,,,space,0.33219,0,87,87,97,1,,,,,,,,,,,,,,,
,,,,,,,,,,,,,,,,a,1,2.201215,,,,,,,,tex_hard_TA/1.6_r=TA_seed=1.png,,0,,texture,a,hard,5f0633361308dd16f7f4039c,26,female,2021-05-03_10h57.04.808,search_v5,2021.1.2,MacIntel,59.97720866,,,space,0.324375,0,88,88,135,1,,,,,,,,,,,,,,,
,,,,,,,,,,,,,,,,p,1,1.48436,,,,,,,,tex_hard_TP/1.6_r=50_phi=315_seed=1.png,,1,,texture,p,hard,5f0633361308dd16f7f4039c,26,female,2021-05-03_10h57.04.808,search_v5,2021.1.2,MacIntel,59.97720866,,,space,0.07259,0,89,89,57,1,,,,,,,,,,,,,,,
,,,,,,,,,,,,,,,,a,1,3.015415,,,,,,,,tex_hard_TA/1.6_r=TA_seed=1.png,,0,,texture,a,hard,5f0633361308dd16f7f4039c,26,female,2021-05-03_10h57.04.808,search_v5,2021.1.2,MacIntel,59.97720866,,,space,0.315465,0,90,90,141,1,,,,,,,,,,,,,,,
,,,,,,,,,,,,,,,,p,1,0.78164,,,,,,,,tex_mid_TP/1.65_r=200_phi=270_seed=2.png,,1,,texture,p,mid,5f0633361308dd16f7f4039c,26,female,2021-05-03_10h57.04.808,search_v5,2021.1.2,MacIntel,59.97720866,,,space,0.0617,0,91,91,61,1,,,,,,,,,,,,,,,
,,,,,,,,,,,,,,,,a,1,3.381615,,,,,,,,tex_mid_TA/1.65_r=TA_seed=2.png,,0,,texture,a,mid,5f0633361308dd16f7f4039c,26,female,2021-05-03_10h57.04.808,search_v5,2021.1.2,MacIntel,59.97720866,,,space,0.347635,0,92,92,101,1,,,,,,,,,,,,,,,
,,,,,,,,,,,,,,,,a,1,3.3842,,,,,,,,tex_mid_TA/1.65_r=TA_seed=2.png,,0,,texture,a,mid,5f0633361308dd16f7f4039c,26,female,2021-05-03_10h57.04.808,search_v5,2021.1.2,MacIntel,59.97720866,,,space,0.39351,0,93,93,85,1,,,,,,,,,,,,,,,
,,,,,,,,,,,,,,,,a,0,1.680955,,,,,,,,tex_mid_TP/1.65_r=450_phi=135_seed=2.png,,1,,texture,p,mid,5f0633361308dd16f7f4039c,26,female,2021-05-03_10h57.04.808,search_v5,2021.1.2,MacIntel,59.97720866,,,space,0.885835,0,94,94,76,1,,,,,,,,,,,,,,,
,,,,,,,,,,,,,,,,a,0,2.89268,,,,,,,,tex_mid_TP/1.65_r=450_phi=90_seed=2.png,,1,,texture,p,mid,5f0633361308dd16f7f4039c,26,female,2021-05-03_10h57.04.808,search_v5,2021.1.2,MacIntel,59.97720866,,,space,0.84574,0,95,95,77,1,,,,,,,,,,,,,,,
,,,,,,,,,,,,,,,,a,1,4.502435,,,,,,,,tex_mid_TA/1.65_r=TA_seed=2.png,,0,,texture,a,mid,5f0633361308dd16f7f4039c,26,female,2021-05-03_10h57.04.808,search_v5,2021.1.2,MacIntel,59.97720866,,,space,0.395455,0,96,96,83,1,,,,,,,,,,,,,,,
,,,,,,,,,,,,,,,,a,1,2.94485,,,,,,,,tex_hard_TA/1.6_r=TA_seed=1.png,,0,,texture,a,hard,5f0633361308dd16f7f4039c,26,female,2021-05-03_10h57.04.808,search_v5,2021.1.2,MacIntel,59.97720866,,,space,0.369205,0,97,97,128,1,,,,,,,,,,,,,,,
,,,,,,,,,,,,,,,,a,1,2.609645,,,,,,,,tex_easy_TA/1.7_r=TA_seed=3.png,,0,,texture,a,easy,5f0633361308dd16f7f4039c,26,female,2021-05-03_10h57.04.808,search_v5,2021.1.2,MacIntel,59.97720866,,,space,0.304095,0,98,98,9,1,,,,,,,,,,,,,,,
,,,,,,,,,,,,,,,,p,1,1.296255,,,,,,,,tex_hard_TP/1.6_r=250_phi=135_seed=1.png,,1,,texture,p,hard,5f0633361308dd16f7f4039c,26,female,2021-05-03_10h57.04.808,search_v5,2021.1.2,MacIntel,59.97720866,,,space,0.09449,0,99,99,41,1,,,,,,,,,,,,,,,
,,,,,,,,,,,,,,,,p,1,1.576975,,,,,,,,tex_mid_TP/1.65_r=300_phi=225_seed=2.png,,1,,texture,p,mid,5f0633361308dd16f7f4039c,26,female,2021-05-03_10h57.04.808,search_v5,2021.1.2,MacIntel,59.97720866,,,space,0.03647,0,100,100,67,1,,,,,,,,,,,,,,,
,,,,,,,,,,,,,,,,a,1,6.14637,,,,,,,,tex_mid_TA/1.65_r=TA_seed=2.png,,0,,texture,a,mid,5f0633361308dd16f7f4039c,26,female,2021-05-03_10h57.04.808,search_v5,2021.1.2,MacIntel,59.97720866,,,space,0.07658,0,101,101,103,1,,,,,,,,,,,,,,,
,,,,,,,,,,,,,,,,p,1,1.502775,,,,,,,,tex_mid_TP/1.65_r=400_phi=0_seed=2.png,,1,,texture,p,mid,5f0633361308dd16f7f4039c,26,female,2021-05-03_10h57.04.808,search_v5,2021.1.2,MacIntel,59.97720866,,,space,0.0659,0,102,102,72,1,,,,,,,,,,,,,,,
,,,,,,,,,,,,,,,,a,1,3.278865,,,,,,,,tex_easy_TA/1.7_r=TA_seed=3.png,,0,,texture,a,easy,5f0633361308dd16f7f4039c,26,female,2021-05-03_10h57.04.808,search_v5,2021.1.2,MacIntel,59.97720866,,,space,0.380115,0,103,103,126,1,,,,,,,,,,,,,,,
,,,,,,,,,,,,,,,,a,1,3.67756,,,,,,,,tex_hard_TA/1.6_r=TA_seed=1.png,,0,,texture,a,hard,5f0633361308dd16f7f4039c,26,female,2021-05-03_10h57.04.808,search_v5,2021.1.2,MacIntel,59.97720866,,,space,0.303985,0,104,104,133,1,,,,,,,,,,,,,,,
,,,,,,,,,,,,,,,,a,1,2.899,,,,,,,,tex_mid_TA/1.65_r=TA_seed=2.png,,0,,texture,a,mid,5f0633361308dd16f7f4039c,26,female,2021-05-03_10h57.04.808,search_v5,2021.1.2,MacIntel,59.97720866,,,space,0.295565,0,105,105,81,1,,,,,,,,,,,,,,,
,,,,,,,,,,,,,,,,p,1,0.628395,,,,,,,,tex_mid_TP/1.65_r=200_phi=45_seed=2.png,,1,,texture,p,mid,5f0633361308dd16f7f4039c,26,female,2021-05-03_10h57.04.808,search_v5,2021.1.2,MacIntel,59.97720866,,,space,0.10859,0,106,106,62,1,,,,,,,,,,,,,,,
,,,,,,,,,,,,,,,,a,0,3.506365,,,,,,,,tex_hard_TP/1.6_r=100_phi=0_seed=1.png,,1,,texture,p,hard,5f0633361308dd16f7f4039c,26,female,2021-05-03_10h57.04.808,search_v5,2021.1.2,MacIntel,59.97720866,,,space,0.135225,0,107,107,2,1,,,,,,,,,,,,,,,
,,,,,,,,,,,,,,,,p,1,0.96465,,,,,,,,tex_easy_TP/1.7_r=350_phi=90_seed=3.png,,1,,texture,p,easy,5f0633361308dd16f7f4039c,26,female,2021-05-03_10h57.04.808,search_v5,2021.1.2,MacIntel,59.97720866,,,space,0.054625,0,108,108,27,1,,,,,,,,,,,,,,,
,,,,,,,,,,,,,,,,a,1,4.202575,,,,,,,,tex_mid_TA/1.65_r=TA_seed=2.png,,0,,texture,a,mid,5f0633361308dd16f7f4039c,26,female,2021-05-03_10h57.04.808,search_v5,2021.1.2,MacIntel,59.97720866,,,space,0.32834,0,109,109,94,1,,,,,,,,,,,,,,,
,,,,,,,,,,,,,,,,a,1,2.63175,,,,,,,,tex_hard_TA/1.6_r=TA_seed=1.png,,0,,texture,a,hard,5f0633361308dd16f7f4039c,26,female,2021-05-03_10h57.04.808,search_v5,2021.1.2,MacIntel,59.97720866,,,space,0.3568,0,110,110,134,1,,,,,,,,,,,,,,,
,,,,,,,,,,,,,,,,p,1,0.70763,,,,,,,,tex_hard_TP/1.6_r=350_phi=90_seed=1.png,,1,,texture,p,hard,5f0633361308dd16f7f4039c,26,female,2021-05-03_10h57.04.808,search_v5,2021.1.2,MacIntel,59.97720866,,,space,0.068625,0,111,111,48,1,,,,,,,,,,,,,,,
,,,,,,,,,,,,,,,,a,1,4.21938,,,,,,,,tex_mid_TA/1.65_r=TA_seed=2.png,,0,,texture,a,mid,5f0633361308dd16f7f4039c,26,female,2021-05-03_10h57.04.808,search_v5,2021.1.2,MacIntel,59.97720866,,,space,0.279995,0,112,112,96,1,,,,,,,,,,,,,,,
,,,,,,,,,,,,,,,,p,1,0.602855,,,,,,,,tex_mid_TP/1.65_r=250_phi=45_seed=2.png,,1,,texture,p,mid,5f0633361308dd16f7f4039c,26,female,2021-05-03_10h57.04.808,search_v5,2021.1.2,MacIntel,59.97720866,,,space,0.09118,0,113,113,65,1,,,,,,,,,,,,,,,
,,,,,,,,,,,,,,,,a,1,2.900825,,,,,,,,tex_mid_TA/1.65_r=TA_seed=2.png,,0,,texture,a,mid,5f0633361308dd16f7f4039c,26,female,2021-05-03_10h57.04.808,search_v5,2021.1.2,MacIntel,59.97720866,,,space,0.360245,0,114,114,102,1,,,,,,,,,,,,,,,
,,,,,,,,,,,,,,,,a,1,1.695175,,,,,,,,tex_easy_TA/1.7_r=TA_seed=3.png,,0,,texture,a,easy,5f0633361308dd16f7f4039c,26,female,2021-05-03_10h57.04.808,search_v5,2021.1.2,MacIntel,59.97720866,,,space,0.339695,0,115,115,122,1,,,,,,,,,,,,,,,
,,,,,,,,,,,,,,,,a,1,3.05969,,,,,,,,tex_mid_TA/1.65_r=TA_seed=2.png,,0,,texture,a,mid,5f0633361308dd16f7f4039c,26,female,2021-05-03_10h57.04.808,search_v5,2021.1.2,MacIntel,59.97720866,,,space,0.2699,0,116,116,95,1,,,,,,,,,,,,,,,
,,,,,,,,,,,,,,,,p,1,2.009335,,,,,,,,tex_easy_TP/1.7_r=200_phi=315_seed=3.png,,1,,texture,p,easy,5f0633361308dd16f7f4039c,26,female,2021-05-03_10h57.04.808,search_v5,2021.1.2,MacIntel,59.97720866,,,space,0.044885,0,117,117,15,1,,,,,,,,,,,,,,,
,,,,,,,,,,,,,,,,a,1,4.651485,,,,,,,,tex_easy_TA/1.7_r=TA_seed=3.png,,0,,texture,a,easy,5f0633361308dd16f7f4039c,26,female,2021-05-03_10h57.04.808,search_v5,2021.1.2,MacIntel,59.97720866,,,space,0.405365,0,118,118,119,1,,,,,,,,,,,,,,,
,,,,,,,,,,,,,,,,a,1,3.081715,,,,,,,,tex_hard_TA/1.6_r=TA_seed=1.png,,0,,texture,a,hard,5f0633361308dd16f7f4039c,26,female,2021-05-03_10h57.04.808,search_v5,2021.1.2,MacIntel,59.97720866,,,space,0.34346,0,119,119,137,1,,,,,,,,,,,,,,,
,,,,,,,,,,,,,,,,a,0,2.06198,,,,,,,,tex_hard_TP/1.6_r=400_phi=90_seed=1.png,,1,,texture,p,hard,5f0633361308dd16f7f4039c,26,female,2021-05-03_10h57.04.808,search_v5,2021.1.2,MacIntel,59.97720866,,,space,0.366785,0,120,120,51,1,,,,,,,,,,,,,,,
,,,,,,,,,,,,,,,,a,1,4.278515,,,,,,,,tex_hard_TA/1.6_r=TA_seed=1.png,,0,,texture,a,hard,5f0633361308dd16f7f4039c,26,female,2021-05-03_10h57.04.808,search_v5,2021.1.2,MacIntel,59.97720866,,,space,0.32257,0,121,121,11,1,,,,,,,,,,,,,,,
,,,,,,,,,,,,,,,,a,1,2.03078,,,,,,,,tex_mid_TA/1.65_r=TA_seed=2.png,,0,,texture,a,mid,5f0633361308dd16f7f4039c,26,female,2021-05-03_10h57.04.808,search_v5,2021.1.2,MacIntel,59.97720866,,,space,0.30602,0,122,122,89,1,,,,,,,,,,,,,,,
,,,,,,,,,,,,,,,,p,0,3.13181,,,,,,,,tex_easy_TA/1.7_r=TA_seed=3.png,,0,,texture,a,easy,5f0633361308dd16f7f4039c,26,female,2021-05-03_10h57.04.808,search_v5,2021.1.2,MacIntel,59.97720866,,,space,0.2668,0,123,123,110,1,,,,,,,,,,,,,,,
,,,,,,,,,,,,,,,,a,0,2.64167,,,,,,,,tex_hard_TP/1.6_r=400_phi=225_seed=1.png,,1,,texture,p,hard,5f0633361308dd16f7f4039c,26,female,2021-05-03_10h57.04.808,search_v5,2021.1.2,MacIntel,59.97720866,,,space,1.36002,0,124,124,49,1,,,,,,,,,,,,,,,
,,,,,,,,,,,,,,,,a,1,2.33522,,,,,,,,tex_easy_TA/1.7_r=TA_seed=3.png,,0,,texture,a,easy,5f0633361308dd16f7f4039c,26,female,2021-05-03_10h57.04.808,search_v5,2021.1.2,MacIntel,59.97720866,,,space,0.34804,0,125,125,121,1,,,,,,,,,,,,,,,
,,,,,,,,,,,,,,,,a,1,2.55539,,,,,,,,tex_mid_TA/1.65_r=TA_seed=2.png,,0,,texture,a,mid,5f0633361308dd16f7f4039c,26,female,2021-05-03_10h57.04.808,search_v5,2021.1.2,MacIntel,59.97720866,,,space,0.325575,0,126,126,98,1,,,,,,,,,,,,,,,
,,,,,,,,,,,,,,,,a,1,2.47947,,,,,,,,tex_mid_TA/1.65_r=TA_seed=2.png,,0,,texture,a,mid,5f0633361308dd16f7f4039c,26,female,2021-05-03_10h57.04.808,search_v5,2021.1.2,MacIntel,59.97720866,,,space,0.32239,0,127,127,91,1,,,,,,,,,,,,,,,
,,,,,,,,,,,,,,,,a,0,2.61291,,,,,,,,tex_hard_TP/1.6_r=300_phi=225_seed=1.png,,1,,texture,p,hard,5f0633361308dd16f7f4039c,26,female,2021-05-03_10h57.04.808,search_v5,2021.1.2,MacIntel,59.97720866,,,space,0.001305,0,128,128,44,1,,,,,,,,,,,,,,,
,,,,,,,,,,,,,,,,p,1,1.21803,,,,,,,,tex_hard_TP/1.6_r=250_phi=315_seed=1.png,,1,,texture,p,hard,5f0633361308dd16f7f4039c,26,female,2021-05-03_10h57.04.808,search_v5,2021.1.2,MacIntel,59.97720866,,,space,0.06779,0,129,129,43,1,,,,,,,,,,,,,,,
,,,,,,,,,,,,,,,,a,1,3.11306,,,,,,,,tex_hard_TA/1.6_r=TA_seed=1.png,,0,,texture,a,hard,5f0633361308dd16f7f4039c,26,female,2021-05-03_10h57.04.808,search_v5,2021.1.2,MacIntel,59.97720866,,,space,0.306925,0,130,130,142,1,,,,,,,,,,,,,,,
,,,,,,,,,,,,,,,,a,1,4.099765,,,,,,,,tex_hard_TA/1.6_r=TA_seed=1.png,,0,,texture,a,hard,5f0633361308dd16f7f4039c,26,female,2021-05-03_10h57.04.808,search_v5,2021.1.2,MacIntel,59.97720866,,,space,0.32885,0,131,131,147,1,,,,,,,,,,,,,,,
,,,,,,,,,,,,,,,,a,0,2.74723,,,,,,,,tex_hard_TP/1.6_r=200_phi=315_seed=1.png,,1,,texture,p,hard,5f0633361308dd16f7f4039c,26,female,2021-05-03_10h57.04.808,search_v5,2021.1.2,MacIntel,59.97720866,,,space,0.168155,0,132,132,40,1,,,,,,,,,,,,,,,
,,,,,,,,,,,,,,,,a,1,4.392505,,,,,,,,tex_hard_TA/1.6_r=TA_seed=1.png,,0,,texture,a,hard,5f0633361308dd16f7f4039c,26,female,2021-05-03_10h57.04.808,search_v5,2021.1.2,MacIntel,59.97720866,,,space,0.286235,0,133,133,132,1,,,,,,,,,,,,,,,
,,,,,,,,,,,,,,,,p,1,3.41827,,,,,,,,tex_mid_TP/1.65_r=100_phi=225_seed=2.png,,1,,texture,p,mid,5f0633361308dd16f7f4039c,26,female,2021-05-03_10h57.04.808,search_v5,2021.1.2,MacIntel,59.97720866,,,space,0.042665,0,134,134,4,1,,,,,,,,,,,,,,,
,,,,,,,,,,,,,,,,p,1,1.215535,,,,,,,,tex_hard_TP/1.6_r=200_phi=135_seed=1.png,,1,,texture,p,hard,5f0633361308dd16f7f4039c,26,female,2021-05-03_10h57.04.808,search_v5,2021.1.2,MacIntel,59.97720866,,,space,0.038935,0,135,135,38,1,,,,,,,,,,,,,,,
,,,,,,,,,,,,,,,,p,1,0.80202,,,,,,,,tex_hard_TP/1.6_r=200_phi=225_seed=1.png,,1,,texture,p,hard,5f0633361308dd16f7f4039c,26,female,2021-05-03_10h57.04.808,search_v5,2021.1.2,MacIntel,59.97720866,,,space,0.06012,0,136,136,39,1,,,,,,,,,,,,,,,
,,,,,,,,,,,,,,,,a,1,5.215245,,,,,,,,tex_easy_TA/1.7_r=TA_seed=3.png,,0,,texture,a,easy,5f0633361308dd16f7f4039c,26,female,2021-05-03_10h57.04.808,search_v5,2021.1.2,MacIntel,59.97720866,,,space,0.25218,0,137,137,106,1,,,,,,,,,,,,,,,
,,,,,,,,,,,,,,,,p,1,0.79846,,,,,,,,tex_mid_TP/1.65_r=50_phi=45_seed=2.png,,1,,texture,p,mid,5f0633361308dd16f7f4039c,26,female,2021-05-03_10h57.04.808,search_v5,2021.1.2,MacIntel,59.97720866,,,space,0.058605,0,138,138,80,1,,,,,,,,,,,,,,,
,,,,,,,,,,,,,,,,p,1,0.831575,,,,,,,,tex_easy_TP/1.7_r=400_phi=315_seed=3.png,,1,,texture,p,easy,5f0633361308dd16f7f4039c,26,female,2021-05-03_10h57.04.808,search_v5,2021.1.2,MacIntel,59.97720866,,,space,0.0671,0,139,139,30,1,,,,,,,,,,,,,,,
,,,,,,,,,,,,,,,,p,1,0.72965,,,,,,,,tex_mid_TP/1.65_r=300_phi=315_seed=2.png,,1,,texture,p,mid,5f0633361308dd16f7f4039c,26,female,2021-05-03_10h57.04.808,search_v5,2021.1.2,MacIntel,59.97720866,,,space,0.036605,0,140,140,68,1,,,,,,,,,,,,,,,
,,,,,,,,,,,,,,,,a,0,3.540565,,,,,,,,tex_hard_TP/1.6_r=100_phi=270_seed=1.png,,1,,texture,p,hard,5f0633361308dd16f7f4039c,26,female,2021-05-03_10h57.04.808,search_v5,2021.1.2,MacIntel,59.97720866,,,space,0.723285,0,141,141,3,1,,,,,,,,,,,,,,,
,,,,,,,,,,,,,,,,p,1,0.97147,,,,,,,,tex_easy_TP/1.7_r=150_phi=315_seed=3.png,,1,,texture,p,easy,5f0633361308dd16f7f4039c,26,female,2021-05-03_10h57.04.808,search_v5,2021.1.2,MacIntel,59.97720866,,,space,0.05385,0,142,142,1,1,,,,,,,,,,,,,,,
,,,,,,,,,,,,,,,,a,1,4.147165,,,,,,,,tex_easy_TA/1.7_r=TA_seed=3.png,,0,,texture,a,easy,5f0633361308dd16f7f4039c,26,female,2021-05-03_10h57.04.808,search_v5,2021.1.2,MacIntel,59.97720866,,,space,0.3639,0,143,143,112,1,,,,,,,,,,,,,,,
,,,,,,,,,,,,,,,,a,1,4.82866,,,,,,,,tex_easy_TA/1.7_r=TA_seed=3.png,,0,,texture,a,easy,5f0633361308dd16f7f4039c,26,female,2021-05-03_10h57.04.808,search_v5,2021.1.2,MacIntel,59.97720866,,,space,0.311905,0,144,144,123,1,,,,,,,,,,,,,,,
,,,,,,,,,,,,,,,,p,1,0.943545,,,,,,,,tex_hard_TP/1.6_r=250_phi=225_seed=1.png,,1,,texture,p,hard,5f0633361308dd16f7f4039c,26,female,2021-05-03_10h57.04.808,search_v5,2021.1.2,MacIntel,59.97720866,,,space,0.04454,0,145,145,42,1,,,,,,,,,,,,,,,
,,,,,,,,,,,,,,,,p,1,0.69627,,,,,,,,tex_mid_TP/1.65_r=300_phi=90_seed=2.png,,1,,texture,p,mid,5f0633361308dd16f7f4039c,26,female,2021-05-03_10h57.04.808,search_v5,2021.1.2,MacIntel,59.97720866,,,space,0.04108,0,146,146,69,1,,,,,,,,,,,,,,,
,,,,,,,,,,,,,,,,a,1,4.097285,,,,,,,,tex_easy_TA/1.7_r=TA_seed=3.png,,0,,texture,a,easy,5f0633361308dd16f7f4039c,26,female,2021-05-03_10h57.04.808,search_v5,2021.1.2,MacIntel,59.97720866,,,space,0.304155,0,147,147,124,1,,,,,,,,,,,,,,,
,,,,,,,,,,,,,,,,a,1,5.213875,,,,,,,,tex_hard_TA/1.6_r=TA_seed=1.png,,0,,texture,a,hard,5f0633361308dd16f7f4039c,26,female,2021-05-03_10h57.04.808,search_v5,2021.1.2,MacIntel,59.97720866,,,space,0.36801,0,148,148,145,1,,,,,,,,,,,,,,,
,,,,,,,,,,,,,,,,p,1,0.700465,,,,,,,,tex_easy_TP/1.7_r=400_phi=225_seed=3.png,,1,,texture,p,easy,5f0633361308dd16f7f4039c,26,female,2021-05-03_10h57.04.808,search_v5,2021.1.2,MacIntel,59.97720866,,,space,0.05772,0,149,149,29,1,,,,,,,,,,,,,,,
,,,,,,,,,,,,,,,,,,,,,,,,,,,,,,,,,5f0633361308dd16f7f4039c,26,female,2021-05-03_10h57.04.808,search_v5,2021.1.2,MacIntel,59.97720866,,,,,,,,,,0,1,1,1,1,condText.xlsx,texture,Look for a circular shape and indicate if it is present or absent in the array. If it is present press 'p' and if absent press 'a'. Press SPACE to start.,texture_example.jpg,,,,egText.xlsx,,
,,,,,,,,,,,,space,11.002745,space,9.483445,a,1,13.088885,space,0.66341,0,0,0,1,1,line_easy_TA/11_1_NaN_all_absent.jpg,,0,,line,a,easy,5f0633361308dd16f7f4039c,26,female,2021-05-03_10h57.04.808,search_v5,2021.1.2,MacIntel,59.97720866,,,,,,,,,,,,,,,,,,,,,,,,
,,,,,,,,,,,,,,,,p,1,2.15472,space,0.404135,0,1,1,7,1,line_hard_TP/11_4_2.0944_none_right_col_18_row_11.jpg,,1,,line,p,hard,5f0633361308dd16f7f4039c,26,female,2021-05-03_10h57.04.808,search_v5,2021.1.2,MacIntel,59.97720866,,,,,,,,,,,,,,,,,,,,,,,,
,,,,,,,,,,,,,,,,p,1,0.899265,space,0.360535,0,2,2,3,1,line_easy_TP/11_2_0.5236_all_right_col_14_row_9.jpg,,1,,line,p,easy,5f0633361308dd16f7f4039c,26,female,2021-05-03_10h57.04.808,search_v5,2021.1.2,MacIntel,59.97720866,,,,,,,,,,,,,,,,,,,,,,,,
,,,,,,,,,,,,,,,,p,0,1.15382,space,0.09389,0,3,3,5,1,line_hard_TA/11_3_NaN_none_absent.jpg,,0,,line,a,hard,5f0633361308dd16f7f4039c,26,female,2021-05-03_10h57.04.808,search_v5,2021.1.2,MacIntel,59.97720866,,,,,,,,,,,,,,,,,,,,,,,,
,,,,,,,,,,,,,,,,a,1,12.453845,space,0.36471,0,4,4,8,1,line_mid_TA/10_1_NaN_none_absent.jpg,,0,,line,a,mid,5f0633361308dd16f7f4039c,26,female,2021-05-03_10h57.04.808,search_v5,2021.1.2,MacIntel,59.97720866,,,,,,,,,,,,,,,,,,,,,,,,
,,,,,,,,,,,,,,,,a,1,11.27217,space,0.339885,0,5,5,0,1,line_easy_TA/10_3_NaN_all_absent.jpg,,0,,line,a,easy,5f0633361308dd16f7f4039c,26,female,2021-05-03_10h57.04.808,search_v5,2021.1.2,MacIntel,59.97720866,,,,,,,,,,,,,,,,,,,,,,,,
,,,,,,,,,,,,,,,,a,0,12.05263,space,0.75331,0,6,6,10,1,line_mid_TP/9_2_1.1424_none_right_col_20_row_1.jpg,,1,,line,p,mid,5f0633361308dd16f7f4039c,26,female,2021-05-03_10h57.04.808,search_v5,2021.1.2,MacIntel,59.97720866,,,,,,,,,,,,,,,,,,,,,,,,
,,,,,,,,,,,,,,,,p,1,1.13764,space,0.42853,0,7,7,2,1,line_easy_TP/10_2_0.5236_all_right_col_18_row_7.jpg,,1,,line,p,easy,5f0633361308dd16f7f4039c,26,female,2021-05-03_10h57.04.808,search_v5,2021.1.2,MacIntel,59.97720866,,,,,,,,,,,,,,,,,,,,,,,,
,,,,,,,,,,,,,,,,a,1,14.60608,space,0.372845,0,8,8,9,1,line_mid_TA/10_2_NaN_none_absent.jpg,,0,,line,a,mid,5f0633361308dd16f7f4039c,26,female,2021-05-03_10h57.04.808,search_v5,2021.1.2,MacIntel,59.97720866,,,,,,,,,,,,,,,,,,,,,,,,
,,,,,,,,,,,,,,,,p,1,2.382505,space,0.02892,0,9,9,11,1,line_mid_TP/9_3_1.1424_none_left_col_10_row_8.jpg,,1,,line,p,mid,5f0633361308dd16f7f4039c,26,female,2021-05-03_10h57.04.808,search_v5,2021.1.2,MacIntel,59.97720866,,,,,,,,,,,,,,,,,,,,,,,,
,,,,,,,,,,,,,,,,p,0,5.405895,space,1.112245,0,10,10,4,1,line_hard_TA/10_4_NaN_none_absent.jpg,,0,,line,a,hard,5f0633361308dd16f7f4039c,26,female,2021-05-03_10h57.04.808,search_v5,2021.1.2,MacIntel,59.97720866,,,,,,,,,,,,,,,,,,,,,,,,
,,,,,,,,,,,,,,,,p,1,5.01826,space,0.419015,0,11,11,6,1,line_hard_TP/10_1_2.0944_none_left_col_10_row_11.jpg,,1,,line,p,hard,5f0633361308dd16f7f4039c,26,female,2021-05-03_10h57.04.808,search_v5,2021.1.2,MacIntel,59.97720866,,,,,,,,,,,,,,,,,,,,,,,,
,,,,,,,,,,,,,,,,a,1,16.63139,,,,,,,,line_mid_TA/1_2_NaN_all_absent.jpg,,0,,line,a,mid,5f0633361308dd16f7f4039c,26,female,2021-05-03_10h57.04.808,search_v5,2021.1.2,MacIntel,59.97720866,space,2.71807,space,0.39418,0,0,0,110,1,,,,,,,,,,,,,,,
,,,,,,,,,,,,,,,,a,0,21.2613,,,,,,,,line_mid_TP/3_1_1.1424_none_left_col_10_row_2.jpg,,1,,line,p,mid,5f0633361308dd16f7f4039c,26,female,2021-05-03_10h57.04.808,search_v5,2021.1.2,MacIntel,59.97720866,,,space,0.665585,0,1,1,134,1,,,,,,,,,,,,,,,
,,,,,,,,,,,,,,,,a,1,9.5372,,,,,,,,line_easy_TA/2_3_NaN_all_absent.jpg,,0,,line,a,easy,5f0633361308dd16f7f4039c,26,female,2021-05-03_10h57.04.808,search_v5,2021.1.2,MacIntel,59.97720866,,,space,0.35132,0,2,2,23,1,,,,,,,,,,,,,,,
,,,,,,,,,,,,,,,,a,1,12.185615,,,,,,,,line_easy_TA/17_2_NaN_all_absent.jpg,,0,,line,a,easy,5f0633361308dd16f7f4039c,26,female,2021-05-03_10h57.04.808,search_v5,2021.1.2,MacIntel,59.97720866,,,space,0.37121,0,3,3,17,1,,,,,,,,,,,,,,,
,,,,,,,,,,,,,,,,p,1,2.00159,,,,,,,,line_mid_TP/4_4_1.1424_none_left_col_3_row_10.jpg,,1,,line,p,mid,5f0633361308dd16f7f4039c,26,female,2021-05-03_10h57.04.808,search_v5,2021.1.2,MacIntel,59.97720866,,,space,0.32335,0,4,4,137,1,,,,,,,,,,,,,,,
,,,,,,,,,,,,,,,,a,1,6.15017,,,,,,,,line_easy_TA/15_2_NaN_all_absent.jpg,,0,,line,a,easy,5f0633361308dd16f7f4039c,26,female,2021-05-03_10h57.04.808,search_v5,2021.1.2,MacIntel,59.97720866,,,space,0.358615,0,5,5,13,1,,,,,,,,,,,,,,,
,,,,,,,,,,,,,,,,a,1,20.627085,,,,,,,,line_mid_TA/3_0_NaN_all_absent.jpg,,0,,line,a,mid,5f0633361308dd16f7f4039c,26,female,2021-05-03_10h57.04.808,search_v5,2021.1.2,MacIntel,59.97720866,,,space,0.39182,0,6,6,113,1,,,,,,,,,,,,,,,
,,,,,,,,,,,,,,,,p,1,1.676545,,,,,,,,line_mid_TP/6_2_1.1424_none_left_col_2_row_6.jpg,,1,,line,p,mid,5f0633361308dd16f7f4039c,26,female,2021-05-03_10h57.04.808,search_v5,2021.1.2,MacIntel,59.97720866,,,space,0.11713,0,7,7,142,1,,,,,,,,,,,,,,,
,,,,,,,,,,,,,,,,a,1,13.638265,,,,,,,,line_mid_TA/9_4_NaN_none_absent.jpg,,0,,line,a,mid,5f0633361308dd16f7f4039c,26,female,2021-05-03_10h57.04.808,search_v5,2021.1.2,MacIntel,59.97720866,,,space,0.36684,0,8,8,126,1,,,,,,,,,,,,,,,
,,,,,,,,,,,,,,,,p,1,1.338255,,,,,,,,line_mid_TP/2_3_1.1424_none_right_col_21_row_15.jpg,,1,,line,p,mid,5f0633361308dd16f7f4039c,26,female,2021-05-03_10h57.04.808,search_v5,2021.1.2,MacIntel,59.97720866,,,space,0.101385,0,9,9,132,1,,,,,,,,,,,,,,,
,,,,,,,,,,,,,,,,p,1,0.88097,,,,,,,,line_easy_TP/1_0_0.5236_all_left_col_2_row_16.jpg,,1,,line,p,easy,5f0633361308dd16f7f4039c,26,female,2021-05-03_10h57.04.808,search_v5,2021.1.2,MacIntel,59.97720866,,,space,0.069845,0,10,10,43,1,,,,,,,,,,,,,,,
,,,,,,,,,,,,,,,,a,0,19.60751,,,,,,,,line_hard_TP/2_2_2.0944_none_right_col_19_row_11.jpg,,1,,line,p,hard,5f0633361308dd16f7f4039c,26,female,2021-05-03_10h57.04.808,search_v5,2021.1.2,MacIntel,59.97720866,,,space,0.592115,0,11,11,96,1,,,,,,,,,,,,,,,
,,,,,,,,,,,,,,,,p,1,0.776535,,,,,,,,line_easy_TP/18_2_0.5236_all_right_col_15_row_1.jpg,,1,,line,p,easy,5f0633361308dd16f7f4039c,26,female,2021-05-03_10h57.04.808,search_v5,2021.1.2,MacIntel,59.97720866,,,space,0.060635,0,12,12,39,1,,,,,,,,,,,,,,,
,,,,,,,,,,,,,,,,p,1,0.81305,,,,,,,,line_easy_TP/1_1_0.5236_all_left_col_8_row_5.jpg,,1,,line,p,easy,5f0633361308dd16f7f4039c,26,female,2021-05-03_10h57.04.808,search_v5,2021.1.2,MacIntel,59.97720866,,,space,0.04468,0,13,13,44,1,,,,,,,,,,,,,,,
,,,,,,,,,,,,,,,,a,0,3.96663,,,,,,,,line_hard_TP/12_4_2.0944_none_right_col_17_row_12.jpg,,1,,line,p,hard,5f0633361308dd16f7f4039c,26,female,2021-05-03_10h57.04.808,search_v5,2021.1.2,MacIntel,59.97720866,,,space,0.754035,0,14,14,82,1,,,,,,,,,,,,,,,
,,,,,,,,,,,,,,,,a,1,23.27087,,,,,,,,line_mid_TA/11_2_NaN_all_absent.jpg,,0,,line,a,mid,5f0633361308dd16f7f4039c,26,female,2021-05-03_10h57.04.808,search_v5,2021.1.2,MacIntel,59.97720866,,,space,0.378685,0,15,15,106,1,,,,,,,,,,,,,,,
,,,,,,,,,,,,,,,,a,1,7.83685,,,,,,,,line_mid_TA/5_3_NaN_none_absent.jpg,,0,,line,a,mid,5f0633361308dd16f7f4039c,26,female,2021-05-03_10h57.04.808,search_v5,2021.1.2,MacIntel,59.97720866,,,space,0.318685,0,16,16,119,1,,,,,,,,,,,,,,,
,,,,,,,,,,,,,,,,p,0,10.573415,,,,,,,,line_hard_TA/4_2_NaN_none_absent.jpg,,0,,line,a,hard,5f0633361308dd16f7f4039c,26,female,2021-05-03_10h57.04.808,search_v5,2021.1.2,MacIntel,59.97720866,,,space,0.56482,0,17,17,78,1,,,,,,,,,,,,,,,
,,,,,,,,,,,,,,,,p,1,1.35346,,,,,,,,line_mid_TP/2_0_1.7453_all_left_col_8_row_12.jpg,,1,,line,p,mid,5f0633361308dd16f7f4039c,26,female,2021-05-03_10h57.04.808,search_v5,2021.1.2,MacIntel,59.97720866,,,space,0.060885,0,18,18,130,1,,,,,,,,,,,,,,,
,,,,,,,,,,,,,,,,p,1,0.770155,,,,,,,,line_easy_TP/12_1_0.5236_all_right_col_15_row_4.jpg,,1,,line,p,easy,5f0633361308dd16f7f4039c,26,female,2021-05-03_10h57.04.808,search_v5,2021.1.2,MacIntel,59.97720866,,,space,0.093285,0,19,19,35,1,,,,,,,,,,,,,,,
,,,,,,,,,,,,,,,,p,1,0.901,,,,,,,,line_mid_TP/6_0_1.1424_none_left_col_8_row_9.jpg,,1,,line,p,mid,5f0633361308dd16f7f4039c,26,female,2021-05-03_10h57.04.808,search_v5,2021.1.2,MacIntel,59.97720866,,,space,0.057795,0,20,20,141,1,,,,,,,,,,,,,,,
,,,,,,,,,,,,,,,,a,1,5.71426,,,,,,,,line_easy_TA/21_4_NaN_all_absent.jpg,,0,,line,a,easy,5f0633361308dd16f7f4039c,26,female,2021-05-03_10h57.04.808,search_v5,2021.1.2,MacIntel,59.97720866,,,space,0.33853,0,21,21,21,1,,,,,,,,,,,,,,,
,,,,,,,,,,,,,,,,p,1,8.91943,,,,,,,,line_hard_TP/20_4_2.0944_none_left_col_9_row_16.jpg,,1,,line,p,hard,5f0633361308dd16f7f4039c,26,female,2021-05-03_10h57.04.808,search_v5,2021.1.2,MacIntel,59.97720866,,,space,0.32611,0,22,22,91,1,,,,,,,,,,,,,,,
,,,,,,,,,,,,,,,,p,1,0.73555,,,,,,,,line_easy_TP/14_4_0.5236_all_left_col_10_row_13.jpg,,1,,line,p,easy,5f0633361308dd16f7f4039c,26,female,2021-05-03_10h57.04.808,search_v5,2021.1.2,MacIntel,59.97720866,,,space,0.068605,0,23,23,38,1,,,,,,,,,,,,,,,
,,,,,,,,,,,,,,,,a,0,28.10704,,,,,,,,line_hard_TP/14_1_2.0944_none_right_col_15_row_6.jpg,,1,,line,p,hard,5f0633361308dd16f7f4039c,26,female,2021-05-03_10h57.04.808,search_v5,2021.1.2,MacIntel,59.97720866,,,space,0.03432,0,24,24,83,1,,,,,,,,,,,,,,,
,,,,,,,,,,,,,,,,a,1,8.78909,,,,,,,,line_mid_TA/4_0_NaN_none_absent.jpg,,0,,line,a,mid,5f0633361308dd16f7f4039c,26,female,2021-05-03_10h57.04.808,search_v5,2021.1.2,MacIntel,59.97720866,,,space,0.355085,0,25,25,117,1,,,,,,,,,,,,,,,
,,,,,,,,,,,,,,,,a,1,9.503265,,,,,,,,line_mid_TA/2_2_NaN_none_absent.jpg,,0,,line,a,mid,5f0633361308dd16f7f4039c,26,female,2021-05-03_10h57.04.808,search_v5,2021.1.2,MacIntel,59.97720866,,,space,0.37358,0,26,26,112,1,,,,,,,,,,,,,,,
,,,,,,,,,,,,,,,,p,1,0.74361,,,,,,,,line_easy_TP/19_1_0.5236_all_left_col_6_row_1.jpg,,1,,line,p,easy,5f0633361308dd16f7f4039c,26,female,2021-05-03_10h57.04.808,search_v5,2021.1.2,MacIntel,59.97720866,,,space,0.102105,0,27,27,41,1,,,,,,,,,,,,,,,
,,,,,,,,,,,,,,,,a,1,34.093855,,,,,,,,line_mid_TA/8_3_NaN_all_absent.jpg,,0,,line,a,mid,5f0633361308dd16f7f4039c,26,female,2021-05-03_10h57.04.808,search_v5,2021.1.2,MacIntel,59.97720866,,,space,0.36988,0,28,28,124,1,,,,,,,,,,,,,,,
,,,,,,,,,,,,,,,,a,1,12.922105,,,,,,,,line_mid_TA/3_4_NaN_none_absent.jpg,,0,,line,a,mid,5f0633361308dd16f7f4039c,26,female,2021-05-03_10h57.04.808,search_v5,2021.1.2,MacIntel,59.97720866,,,space,0.358695,0,29,29,116,1,,,,,,,,,,,,,,,
,,,,,,,,,,,,,,,,a,1,18.87111,,,,,,,,line_hard_TA/15_4_NaN_none_absent.jpg,,0,,line,a,hard,5f0633361308dd16f7f4039c,26,female,2021-05-03_10h57.04.808,search_v5,2021.1.2,MacIntel,59.97720866,,,space,0.35294,0,30,30,63,1,,,,,,,,,,,,,,,
,,,,,,,,,,,,,,,,a,0,11.10929,,,,,,,,line_hard_TP/17_3_2.0944_none_right_col_17_row_12.jpg,,1,,line,p,hard,5f0633361308dd16f7f4039c,26,female,2021-05-03_10h57.04.808,search_v5,2021.1.2,MacIntel,59.97720866,,,space,0.118715,0,31,31,86,1,,,,,,,,,,,,,,,
,,,,,,,,,,,,,,,,a,1,5.158725,,,,,,,,line_easy_TA/19_2_NaN_all_absent.jpg,,0,,line,a,easy,5f0633361308dd16f7f4039c,26,female,2021-05-03_10h57.04.808,search_v5,2021.1.2,MacIntel,59.97720866,,,space,0.328795,0,32,32,18,1,,,,,,,,,,,,,,,
,,,,,,,,,,,,,,,,a,1,6.493995,,,,,,,,line_easy_TA/16_1_NaN_all_absent.jpg,,0,,line,a,easy,5f0633361308dd16f7f4039c,26,female,2021-05-03_10h57.04.808,search_v5,2021.1.2,MacIntel,59.97720866,,,space,0.38151,0,33,33,14,1,,,,,,,,,,,,,,,
,,,,,,,,,,,,,,,,a,1,8.246545,,,,,,,,line_mid_TA/5_4_NaN_none_absent.jpg,,0,,line,a,mid,5f0633361308dd16f7f4039c,26,female,2021-05-03_10h57.04.808,search_v5,2021.1.2,MacIntel,59.97720866,,,space,0.33803,0,34,34,120,1,,,,,,,,,,,,,,,
,,,,,,,,,,,,,,,,a,1,8.23314,,,,,,,,line_mid_TA/10_1_NaN_none_absent.jpg,,0,,line,a,mid,5f0633361308dd16f7f4039c,26,female,2021-05-03_10h57.04.808,search_v5,2021.1.2,MacIntel,59.97720866,,,space,0.35346,0,35,35,8,1,,,,,,,,,,,,,,,
,,,,,,,,,,,,,,,,p,1,0.812775,,,,,,,,line_easy_TP/13_3_0.5236_all_left_col_4_row_12.jpg,,1,,line,p,easy,5f0633361308dd16f7f4039c,26,female,2021-05-03_10h57.04.808,search_v5,2021.1.2,MacIntel,59.97720866,,,space,0.170425,0,36,36,36,1,,,,,,,,,,,,,,,
,,,,,,,,,,,,,,,,p,1,0.65797,,,,,,,,line_easy_TP/13_4_0.5236_all_right_col_13_row_13.jpg,,1,,line,p,easy,5f0633361308dd16f7f4039c,26,female,2021-05-03_10h57.04.808,search_v5,2021.1.2,MacIntel,59.97720866,,,space,0.10239,0,37,37,37,1,,,,,,,,,,,,,,,
,,,,,,,,,,,,,,,,a,1,28.361045,,,,,,,,line_hard_TA/11_3_NaN_none_absent.jpg,,0,,line,a,hard,5f0633361308dd16f7f4039c,26,female,2021-05-03_10h57.04.808,search_v5,2021.1.2,MacIntel,59.97720866,,,space,0.426395,0,38,38,5,1,,,,,,,,,,,,,,,
,,,,,,,,,,,,,,,,p,1,0.700735,,,,,,,,line_easy_TP/6_4_0.5236_all_right_col_18_row_7.jpg,,1,,line,p,easy,5f0633361308dd16f7f4039c,26,female,2021-05-03_10h57.04.808,search_v5,2021.1.2,MacIntel,59.97720866,,,space,0.066865,0,39,39,52,1,,,,,,,,,,,,,,,
,,,,,,,,,,,,,,,,p,1,0.6766,,,,,,,,line_easy_TP/3_3_0.5236_all_right_col_15_row_10.jpg,,1,,line,p,easy,5f0633361308dd16f7f4039c,26,female,2021-05-03_10h57.04.808,search_v5,2021.1.2,MacIntel,59.97720866,,,space,0.067915,0,40,40,48,1,,,,,,,,,,,,,,,
,,,,,,,,,,,,,,,,a,0,13.05208,,,,,,,,line_hard_TP/10_1_2.0944_none_left_col_10_row_11.jpg,,1,,line,p,hard,5f0633361308dd16f7f4039c,26,female,2021-05-03_10h57.04.808,search_v5,2021.1.2,MacIntel,59.97720866,,,space,0.28113,0,41,41,6,1,,,,,,,,,,,,,,,
,,,,,,,,,,,,,,,,a,1,12.26771,,,,,,,,line_hard_TA/4_0_NaN_none_absent.jpg,,0,,line,a,hard,5f0633361308dd16f7f4039c,26,female,2021-05-03_10h57.04.808,search_v5,2021.1.2,MacIntel,59.97720866,,,space,0.40186,0,42,42,77,1,,,,,,,,,,,,,,,
,,,,,,,,,,,,,,,,p,1,1.247725,,,,,,,,line_hard_TP/8_2_2.0944_none_left_col_4_row_12.jpg,,1,,line,p,hard,5f0633361308dd16f7f4039c,26,female,2021-05-03_10h57.04.808,search_v5,2021.1.2,MacIntel,59.97720866,,,space,0.144855,0,43,43,100,1,,,,,,,,,,,,,,,
,,,,,,,,,,,,,,,,a,1,6.27137,,,,,,,,line_easy_TA/9_1_NaN_all_absent.jpg,,0,,line,a,easy,5f0633361308dd16f7f4039c,26,female,2021-05-03_10h57.04.808,search_v5,2021.1.2,MacIntel,59.97720866,,,space,0.36885,0,44,44,34,1,,,,,,,,,,,,,,,
,,,,,,,,,,,,,,,,a,0,19.59997,,,,,,,,line_hard_TP/14_3_2.0944_none_right_col_19_row_11.jpg,,1,,line,p,hard,5f0633361308dd16f7f4039c,26,female,2021-05-03_10h57.04.808,search_v5,2021.1.2,MacIntel,59.97720866,,,space,0.150575,0,45,45,84,1,,,,,,,,,,,,,,,
,,,,,,,,,,,,,,,,a,1,11.661365,,,,,,,,line_mid_TA/1_3_NaN_all_absent.jpg,,0,,line,a,mid,5f0633361308dd16f7f4039c,26,female,2021-05-03_10h57.04.808,search_v5,2021.1.2,MacIntel,59.97720866,,,space,0.380955,0,46,46,111,1,,,,,,,,,,,,,,,
,,,,,,,,,,,,,,,,a,1,7.99186,,,,,,,,line_hard_TA/13_1_NaN_none_absent.jpg,,0,,line,a,hard,5f0633361308dd16f7f4039c,26,female,2021-05-03_10h57.04.808,search_v5,2021.1.2,MacIntel,59.97720866,,,space,0.361735,0,47,47,58,1,,,,,,,,,,,,,,,
,,,,,,,,,,,,,,,,p,1,0.67709,,,,,,,,line_easy_TP/8_1_0.5236_all_right_col_14_row_4.jpg,,1,,line,p,easy,5f0633361308dd16f7f4039c,26,female,2021-05-03_10h57.04.808,search_v5,2021.1.2,MacIntel,59.97720866,,,space,0.070825,0,48,48,55,1,,,,,,,,,,,,,,,
,,,,,,,,,,,,,,,,p,1,4.52026,,,,,,,,line_hard_TP/21_3_2.0944_none_right_col_15_row_13.jpg,,1,,line,p,hard,5f0633361308dd16f7f4039c,26,female,2021-05-03_10h57.04.808,search_v5,2021.1.2,MacIntel,59.97720866,,,space,0.38009,0,49,49,92,1,,,,,,,,,,,,,,,
,,,,,,,,,,,,,,,,p,1,4.399215,,,,,,,,line_mid_TP/7_3_1.7453_all_right_col_15_row_2.jpg,,1,,line,p,mid,5f0633361308dd16f7f4039c,26,female,2021-05-03_10h57.04.808,search_v5,2021.1.2,MacIntel,59.97720866,,,space,0.090915,0,50,50,146,1,,,,,,,,,,,,,,,
,,,,,,,,,,,,,,,,a,1,9.674385,,,,,,,,line_mid_TA/4_2_NaN_all_absent.jpg,,0,,line,a,mid,5f0633361308dd16f7f4039c,26,female,2021-05-03_10h57.04.808,search_v5,2021.1.2,MacIntel,59.97720866,,,space,0.400635,0,51,51,118,1,,,,,,,,,,,,,,,
,,,,,,,,,,,,,,,,p,1,0.64396,,,,,,,,line_easy_TP/5_1_0.5236_all_left_col_5_row_3.jpg,,1,,line,p,easy,5f0633361308dd16f7f4039c,26,female,2021-05-03_10h57.04.808,search_v5,2021.1.2,MacIntel,59.97720866,,,space,0.069155,0,52,52,50,1,,,,,,,,,,,,,,,
,,,,,,,,,,,,,,,,p,1,0.626715,,,,,,,,line_easy_TP/2_0_0.5236_all_right_col_16_row_4.jpg,,1,,line,p,easy,5f0633361308dd16f7f4039c,26,female,2021-05-03_10h57.04.808,search_v5,2021.1.2,MacIntel,59.97720866,,,space,0.06985,0,53,53,47,1,,,,,,,,,,,,,,,
,,,,,,,,,,,,,,,,a,1,13.45304,,,,,,,,line_hard_TA/17_4_NaN_none_absent.jpg,,0,,line,a,hard,5f0633361308dd16f7f4039c,26,female,2021-05-03_10h57.04.808,search_v5,2021.1.2,MacIntel,59.97720866,,,space,0.33888,0,54,54,65,1,,,,,,,,,,,,,,,
,,,,,,,,,,,,,,,,p,1,0.61323,,,,,,,,line_easy_TP/7_2_0.5236_all_right_col_14_row_5.jpg,,1,,line,p,easy,5f0633361308dd16f7f4039c,26,female,2021-05-03_10h57.04.808,search_v5,2021.1.2,MacIntel,59.97720866,,,space,0.085075,0,55,55,53,1,,,,,,,,,,,,,,,
,,,,,,,,,,,,,,,,a,1,7.683325,,,,,,,,line_hard_TA/10_4_NaN_none_absent.jpg,,0,,line,a,hard,5f0633361308dd16f7f4039c,26,female,2021-05-03_10h57.04.808,search_v5,2021.1.2,MacIntel,59.97720866,,,space,0.34515,0,56,56,4,1,,,,,,,,,,,,,,,
,,,,,,,,,,,,,,,,p,0,5.53492,,,,,,,,line_hard_TA/22_3_NaN_none_absent.jpg,,0,,line,a,hard,5f0633361308dd16f7f4039c,26,female,2021-05-03_10h57.04.808,search_v5,2021.1.2,MacIntel,59.97720866,,,space,0.86841,0,57,57,71,1,,,,,,,,,,,,,,,
,,,,,,,,,,,,,,,,a,0,8.4874,,,,,,,,line_hard_TP/18_4_2.0944_none_left_col_4_row_9.jpg,,1,,line,p,hard,5f0633361308dd16f7f4039c,26,female,2021-05-03_10h57.04.808,search_v5,2021.1.2,MacIntel,59.97720866,,,space,0.235645,0,58,58,88,1,,,,,,,,,,,,,,,
,,,,,,,,,,,,,,,,p,1,0.81061,,,,,,,,line_mid_TP/9_2_1.1424_none_right_col_20_row_1.jpg,,1,,line,p,mid,5f0633361308dd16f7f4039c,26,female,2021-05-03_10h57.04.808,search_v5,2021.1.2,MacIntel,59.97720866,,,space,0.08405,0,59,59,10,1,,,,,,,,,,,,,,,
,,,,,,,,,,,,,,,,a,1,16.825455,,,,,,,,line_hard_TA/20_2_NaN_none_absent.jpg,,0,,line,a,hard,5f0633361308dd16f7f4039c,26,female,2021-05-03_10h57.04.808,search_v5,2021.1.2,MacIntel,59.97720866,,,space,0.391435,0,60,60,69,1,,,,,,,,,,,,,,,
,,,,,,,,,,,,,,,,a,1,10.8143,,,,,,,,line_hard_TA/15_3_NaN_none_absent.jpg,,0,,line,a,hard,5f0633361308dd16f7f4039c,26,female,2021-05-03_10h57.04.808,search_v5,2021.1.2,MacIntel,59.97720866,,,space,0.353095,0,61,61,62,1,,,,,,,,,,,,,,,
,,,,,,,,,,,,,,,,p,1,0.980795,,,,,,,,line_mid_TP/2_4_1.1424_none_right_col_18_row_13.jpg,,1,,line,p,mid,5f0633361308dd16f7f4039c,26,female,2021-05-03_10h57.04.808,search_v5,2021.1.2,MacIntel,59.97720866,,,space,0.087315,0,62,62,133,1,,,,,,,,,,,,,,,
,,,,,,,,,,,,,,,,a,1,3.34707,,,,,,,,line_easy_TA/10_3_NaN_all_absent.jpg,,0,,line,a,easy,5f0633361308dd16f7f4039c,26,female,2021-05-03_10h57.04.808,search_v5,2021.1.2,MacIntel,59.97720866,,,space,0.336275,0,63,63,0,1,,,,,,,,,,,,,,,
,,,,,,,,,,,,,,,,p,1,0.56311,,,,,,,,line_easy_TP/11_2_0.5236_all_right_col_14_row_9.jpg,,1,,line,p,easy,5f0633361308dd16f7f4039c,26,female,2021-05-03_10h57.04.808,search_v5,2021.1.2,MacIntel,59.97720866,,,space,0.047285,0,64,64,3,1,,,,,,,,,,,,,,,
,,,,,,,,,,,,,,,,p,1,8.263095,,,,,,,,line_hard_TP/24_2_2.0944_none_left_col_9_row_8.jpg,,1,,line,p,hard,5f0633361308dd16f7f4039c,26,female,2021-05-03_10h57.04.808,search_v5,2021.1.2,MacIntel,59.97720866,,,space,0.87339,0,65,65,94,1,,,,,,,,,,,,,,,
,,,,,,,,,,,,,,,,a,0,17.43657,,,,,,,,line_hard_TP/17_1_2.0944_none_right_col_18_row_9.jpg,,1,,line,p,hard,5f0633361308dd16f7f4039c,26,female,2021-05-03_10h57.04.808,search_v5,2021.1.2,MacIntel,59.97720866,,,space,0.384245,0,66,66,85,1,,,,,,,,,,,,,,,
,,,,,,,,,,,,,,,,p,1,2.16802,,,,,,,,line_hard_TP/20_3_2.0944_none_left_col_7_row_13.jpg,,1,,line,p,hard,5f0633361308dd16f7f4039c,26,female,2021-05-03_10h57.04.808,search_v5,2021.1.2,MacIntel,59.97720866,,,space,0.0871,0,67,67,90,1,,,,,,,,,,,,,,,
,,,,,,,,,,,,,,,,a,1,9.84936,,,,,,,,line_mid_TA/3_3_NaN_all_absent.jpg,,0,,line,a,mid,5f0633361308dd16f7f4039c,26,female,2021-05-03_10h57.04.808,search_v5,2021.1.2,MacIntel,59.97720866,,,space,0.43347,0,68,68,115,1,,,,,,,,,,,,,,,
,,,,,,,,,,,,,,,,a,1,7.987545,,,,,,,,line_hard_TA/16_4_NaN_none_absent.jpg,,0,,line,a,hard,5f0633361308dd16f7f4039c,26,female,2021-05-03_10h57.04.808,search_v5,2021.1.2,MacIntel,59.97720866,,,space,0.372845,0,69,69,64,1,,,,,,,,,,,,,,,
,,,,,,,,,,,,,,,,p,1,0.645135,,,,,,,,line_easy_TP/21_2_0.5236_all_right_col_16_row_1.jpg,,1,,line,p,easy,5f0633361308dd16f7f4039c,26,female,2021-05-03_10h57.04.808,search_v5,2021.1.2,MacIntel,59.97720866,,,space,0.144965,0,70,70,45,1,,,,,,,,,,,,,,,
,,,,,,,,,,,,,,,,a,1,11.086725,,,,,,,,line_hard_TA/15_1_NaN_none_absent.jpg,,0,,line,a,hard,5f0633361308dd16f7f4039c,26,female,2021-05-03_10h57.04.808,search_v5,2021.1.2,MacIntel,59.97720866,,,space,0.33341,0,71,71,61,1,,,,,,,,,,,,,,,
,,,,,,,,,,,,,,,,p,0,5.68946,,,,,,,,line_hard_TA/20_1_NaN_none_absent.jpg,,0,,line,a,hard,5f0633361308dd16f7f4039c,26,female,2021-05-03_10h57.04.808,search_v5,2021.1.2,MacIntel,59.97720866,,,space,0.445285,0,72,72,68,1,,,,,,,,,,,,,,,
,,,,,,,,,,,,,,,,p,1,0.663425,,,,,,,,line_easy_TP/4_1_0.5236_all_left_col_6_row_4.jpg,,1,,line,p,easy,5f0633361308dd16f7f4039c,26,female,2021-05-03_10h57.04.808,search_v5,2021.1.2,MacIntel,59.97720866,,,space,0.062125,0,73,73,49,1,,,,,,,,,,,,,,,
,,,,,,,,,,,,,,,,p,1,4.32992,,,,,,,,line_mid_TP/6_4_1.7453_all_left_col_6_row_5.jpg,,1,,line,p,mid,5f0633361308dd16f7f4039c,26,female,2021-05-03_10h57.04.808,search_v5,2021.1.2,MacIntel,59.97720866,,,space,0.51667,0,74,74,144,1,,,,,,,,,,,,,,,
,,,,,,,,,,,,,,,,a,1,5.78453,,,,,,,,line_mid_TA/6_1_NaN_none_absent.jpg,,0,,line,a,mid,5f0633361308dd16f7f4039c,26,female,2021-05-03_10h57.04.808,search_v5,2021.1.2,MacIntel,59.97720866,,,space,0.33698,0,75,75,121,1,,,,,,,,,,,,,,,
,,,,,,,,,,,,,,,,p,1,0.98725,,,,,,,,line_mid_TP/1_4_1.1424_none_left_col_7_row_9.jpg,,1,,line,p,mid,5f0633361308dd16f7f4039c,26,female,2021-05-03_10h57.04.808,search_v5,2021.1.2,MacIntel,59.97720866,,,space,0.094525,0,76,76,129,1,,,,,,,,,,,,,,,
,,,,,,,,,,,,,,,,a,1,6.784585,,,,,,,,line_mid_TA/11_1_NaN_none_absent.jpg,,0,,line,a,mid,5f0633361308dd16f7f4039c,26,female,2021-05-03_10h57.04.808,search_v5,2021.1.2,MacIntel,59.97720866,,,space,0.33803,0,77,77,105,1,,,,,,,,,,,,,,,
,,,,,,,,,,,,,,,,a,1,3.375955,,,,,,,,line_easy_TA/23_4_NaN_all_absent.jpg,,0,,line,a,easy,5f0633361308dd16f7f4039c,26,female,2021-05-03_10h57.04.808,search_v5,2021.1.2,MacIntel,59.97720866,,,space,0.33629,0,78,78,22,1,,,,,,,,,,,,,,,
,,,,,,,,,,,,,,,,a,1,3.151495,,,,,,,,line_easy_TA/3_0_NaN_all_absent.jpg,,0,,line,a,easy,5f0633361308dd16f7f4039c,26,female,2021-05-03_10h57.04.808,search_v5,2021.1.2,MacIntel,59.97720866,,,space,0.343735,0,79,79,25,1,,,,,,,,,,,,,,,
