key_resp_6.keys,key_resp_6.rt,key_resp_7.keys,key_resp_7.rt,key_resp_8.keys,key_resp_8.rt,key_resp_10.keys,key_resp_10.rt,key_resp_9.keys,key_resp_9.rt,key_resp_14.keys,key_resp_14.rt,key_resp_3.keys,key_resp_3.rt,key_resp_5.keys,key_resp_5.rt,key_resp.keys,key_resp.corr,key_resp.rt,key_resp_12.keys,key_resp_12.rt,practice.thisRepN,practice.thisTrialN,practice.thisN,practice.thisIndex,practice.ran,ImageFile,targPres,correctAns,difficulty,targetName,participant,age,sex,date,expName,psychopyVersion,OS,frameRate,key_resp_13.keys,key_resp_13.rt,key_resp_4.keys,key_resp_4.rt,trials.thisRepN,trials.thisTrialN,trials.thisN,trials.thisIndex,trials.ran,trials_2.thisRepN,trials_2.thisTrialN,trials_2.thisN,trials_2.thisIndex,trials_2.ran,condsFile,targName,instructionText,stimExample,posit,size,stimSize,practiceFile,tarPos,numDist,key_resp_15.keys,key_resp_15.rt
space,4.939,space,17.878,space,18.641,space,26.484,space,13.788,space,11.023,space,17.12,space,14.497,a,1,8.628,space,4.146,0,0,0,9,1,tex_easy_TA/1.7_r=TA_seed=3.png,0,a,easy,texture,60245c7c3df42d131232cedb,50,female,2021-05-03_11h56.27.782,search_v5,2021.1.2,Win32,60.0240096,,,,,,,,,,,,,,,,,,,,,,,,,,
,,,,,,,,,,,,,,,,a,1,7.838,space,1.15,0,1,1,11,1,tex_hard_TA/1.6_r=TA_seed=1.png,0,a,hard,texture,60245c7c3df42d131232cedb,50,female,2021-05-03_11h56.27.782,search_v5,2021.1.2,Win32,60.0240096,,,,,,,,,,,,,,,,,,,,,,,,,,
,,,,,,,,,,,,,,,,p,1,1.136,space,1.035,0,2,2,4,1,tex_mid_TP/1.65_r=100_phi=225_seed=2.png,1,p,mid,texture,60245c7c3df42d131232cedb,50,female,2021-05-03_11h56.27.782,search_v5,2021.1.2,Win32,60.0240096,,,,,,,,,,,,,,,,,,,,,,,,,,
,,,,,,,,,,,,,,,,a,0,3.59,space,2.922,0,3,3,2,1,tex_hard_TP/1.6_r=100_phi=0_seed=1.png,1,p,hard,texture,60245c7c3df42d131232cedb,50,female,2021-05-03_11h56.27.782,search_v5,2021.1.2,Win32,60.0240096,,,,,,,,,,,,,,,,,,,,,,,,,,
,,,,,,,,,,,,,,,,p,1,1.567,space,1.066,0,4,4,5,1,tex_mid_TP/1.65_r=100_phi=270_seed=2.png,1,p,mid,texture,60245c7c3df42d131232cedb,50,female,2021-05-03_11h56.27.782,search_v5,2021.1.2,Win32,60.0240096,,,,,,,,,,,,,,,,,,,,,,,,,,
,,,,,,,,,,,,,,,,p,1,1.794,space,0.94,0,5,5,3,1,tex_hard_TP/1.6_r=100_phi=270_seed=1.png,1,p,hard,texture,60245c7c3df42d131232cedb,50,female,2021-05-03_11h56.27.782,search_v5,2021.1.2,Win32,60.0240096,,,,,,,,,,,,,,,,,,,,,,,,,,
,,,,,,,,,,,,,,,,a,1,4.888,space,1.004,0,6,6,8,1,tex_easy_TA/1.7_r=TA_seed=3.png,0,a,easy,texture,60245c7c3df42d131232cedb,50,female,2021-05-03_11h56.27.782,search_v5,2021.1.2,Win32,60.0240096,,,,,,,,,,,,,,,,,,,,,,,,,,
,,,,,,,,,,,,,,,,p,1,0.886,space,0.767,0,7,7,0,1,tex_easy_TP/1.7_r=150_phi=225_seed=3.png,1,p,easy,texture,60245c7c3df42d131232cedb,50,female,2021-05-03_11h56.27.782,search_v5,2021.1.2,Win32,60.0240096,,,,,,,,,,,,,,,,,,,,,,,,,,
,,,,,,,,,,,,,,,,a,1,3.325,space,0.874,0,8,8,7,1,tex_mid_TA/1.65_r=TA_seed=2.png,0,a,mid,texture,60245c7c3df42d131232cedb,50,female,2021-05-03_11h56.27.782,search_v5,2021.1.2,Win32,60.0240096,,,,,,,,,,,,,,,,,,,,,,,,,,
,,,,,,,,,,,,,,,,a,1,3.301,space,0.807,0,9,9,10,1,tex_hard_TA/1.6_r=TA_seed=1.png,0,a,hard,texture,60245c7c3df42d131232cedb,50,female,2021-05-03_11h56.27.782,search_v5,2021.1.2,Win32,60.0240096,,,,,,,,,,,,,,,,,,,,,,,,,,
,,,,,,,,,,,,,,,,p,1,2.566,space,0.871,0,10,10,1,1,tex_easy_TP/1.7_r=150_phi=315_seed=3.png,1,p,easy,texture,60245c7c3df42d131232cedb,50,female,2021-05-03_11h56.27.782,search_v5,2021.1.2,Win32,60.0240096,,,,,,,,,,,,,,,,,,,,,,,,,,
,,,,,,,,,,,,,,,,a,1,3.984,space,0.7,0,11,11,6,1,tex_mid_TA/1.65_r=TA_seed=2.png,0,a,mid,texture,60245c7c3df42d131232cedb,50,female,2021-05-03_11h56.27.782,search_v5,2021.1.2,Win32,60.0240096,,,,,,,,,,,,,,,,,,,,,,,,,,
,,,,,,,,,,,,,,,,a,1,5.737,,,,,,,,tex_easy_TA/1.7_r=TA_seed=3.png,0,a,easy,texture,60245c7c3df42d131232cedb,50,female,2021-05-03_11h56.27.782,search_v5,2021.1.2,Win32,60.0240096,space,4.479,space,0.926,0,0,0,114,1,,,,,,,,,,,,,,,,,
,,,,,,,,,,,,,,,,p,1,0.947,,,,,,,,tex_easy_TP/1.7_r=150_phi=315_seed=3.png,1,p,easy,texture,60245c7c3df42d131232cedb,50,female,2021-05-03_11h56.27.782,search_v5,2021.1.2,Win32,60.0240096,,,space,0.656,0,1,1,1,1,,,,,,,,,,,,,,,,,
,,,,,,,,,,,,,,,,p,1,1.089,,,,,,,,tex_easy_TP/1.7_r=400_phi=315_seed=3.png,1,p,easy,texture,60245c7c3df42d131232cedb,50,female,2021-05-03_11h56.27.782,search_v5,2021.1.2,Win32,60.0240096,,,space,0.618,0,2,2,30,1,,,,,,,,,,,,,,,,,
,,,,,,,,,,,,,,,,a,1,2.188,,,,,,,,tex_mid_TA/1.65_r=TA_seed=2.png,0,a,mid,texture,60245c7c3df42d131232cedb,50,female,2021-05-03_11h56.27.782,search_v5,2021.1.2,Win32,60.0240096,,,space,1.123,0,3,3,102,1,,,,,,,,,,,,,,,,,
,,,,,,,,,,,,,,,,a,1,3.41,,,,,,,,tex_easy_TA/1.7_r=TA_seed=3.png,0,a,easy,texture,60245c7c3df42d131232cedb,50,female,2021-05-03_11h56.27.782,search_v5,2021.1.2,Win32,60.0240096,,,space,0.671,0,4,4,112,1,,,,,,,,,,,,,,,,,
,,,,,,,,,,,,,,,,p,1,0.873,,,,,,,,tex_mid_TP/1.65_r=250_phi=225_seed=2.png,1,p,mid,texture,60245c7c3df42d131232cedb,50,female,2021-05-03_11h56.27.782,search_v5,2021.1.2,Win32,60.0240096,,,space,0.568,0,5,5,64,1,,,,,,,,,,,,,,,,,
,,,,,,,,,,,,,,,,a,1,3.441,,,,,,,,tex_hard_TA/1.6_r=TA_seed=1.png,0,a,hard,texture,60245c7c3df42d131232cedb,50,female,2021-05-03_11h56.27.782,search_v5,2021.1.2,Win32,60.0240096,,,space,0.636,0,6,6,140,1,,,,,,,,,,,,,,,,,
,,,,,,,,,,,,,,,,a,0,2.685,,,,,,,,tex_easy_TP/1.7_r=400_phi=135_seed=3.png,1,p,easy,texture,60245c7c3df42d131232cedb,50,female,2021-05-03_11h56.27.782,search_v5,2021.1.2,Win32,60.0240096,,,space,0.643,0,7,7,28,1,,,,,,,,,,,,,,,,,
,,,,,,,,,,,,,,,,p,1,2.106,,,,,,,,tex_easy_TP/1.7_r=300_phi=135_seed=3.png,1,p,easy,texture,60245c7c3df42d131232cedb,50,female,2021-05-03_11h56.27.782,search_v5,2021.1.2,Win32,60.0240096,,,space,1.304,0,8,8,21,1,,,,,,,,,,,,,,,,,
,,,,,,,,,,,,,,,,p,1,1.335,,,,,,,,tex_easy_TP/1.7_r=200_phi=315_seed=3.png,1,p,easy,texture,60245c7c3df42d131232cedb,50,female,2021-05-03_11h56.27.782,search_v5,2021.1.2,Win32,60.0240096,,,space,0.519,0,9,9,15,1,,,,,,,,,,,,,,,,,
,,,,,,,,,,,,,,,,a,1,6.718,,,,,,,,tex_mid_TA/1.65_r=TA_seed=2.png,0,a,mid,texture,60245c7c3df42d131232cedb,50,female,2021-05-03_11h56.27.782,search_v5,2021.1.2,Win32,60.0240096,,,space,0.901,0,10,10,86,1,,,,,,,,,,,,,,,,,
,,,,,,,,,,,,,,,,a,1,5.567,,,,,,,,tex_easy_TA/1.7_r=TA_seed=3.png,0,a,easy,texture,60245c7c3df42d131232cedb,50,female,2021-05-03_11h56.27.782,search_v5,2021.1.2,Win32,60.0240096,,,space,0.79,0,11,11,107,1,,,,,,,,,,,,,,,,,
,,,,,,,,,,,,,,,,a,0,4.435,,,,,,,,tex_hard_TP/1.6_r=150_phi=90_seed=1.png,1,p,hard,texture,60245c7c3df42d131232cedb,50,female,2021-05-03_11h56.27.782,search_v5,2021.1.2,Win32,60.0240096,,,space,1.17,0,12,12,37,1,,,,,,,,,,,,,,,,,
,,,,,,,,,,,,,,,,p,1,4.801,,,,,,,,tex_hard_TP/1.6_r=250_phi=135_seed=1.png,1,p,hard,texture,60245c7c3df42d131232cedb,50,female,2021-05-03_11h56.27.782,search_v5,2021.1.2,Win32,60.0240096,,,space,1.683,0,13,13,41,1,,,,,,,,,,,,,,,,,
,,,,,,,,,,,,,,,,a,1,7.836,,,,,,,,tex_mid_TA/1.65_r=TA_seed=2.png,0,a,mid,texture,60245c7c3df42d131232cedb,50,female,2021-05-03_11h56.27.782,search_v5,2021.1.2,Win32,60.0240096,,,space,0.732,0,14,14,103,1,,,,,,,,,,,,,,,,,
,,,,,,,,,,,,,,,,a,1,5.358,,,,,,,,tex_easy_TA/1.7_r=TA_seed=3.png,0,a,easy,texture,60245c7c3df42d131232cedb,50,female,2021-05-03_11h56.27.782,search_v5,2021.1.2,Win32,60.0240096,,,space,1.33,0,15,15,121,1,,,,,,,,,,,,,,,,,
,,,,,,,,,,,,,,,,p,0,2.598,,,,,,,,tex_easy_TA/1.7_r=TA_seed=3.png,0,a,easy,texture,60245c7c3df42d131232cedb,50,female,2021-05-03_11h56.27.782,search_v5,2021.1.2,Win32,60.0240096,,,space,0.697,0,16,16,111,1,,,,,,,,,,,,,,,,,
,,,,,,,,,,,,,,,,a,1,5.835,,,,,,,,tex_mid_TA/1.65_r=TA_seed=2.png,0,a,mid,texture,60245c7c3df42d131232cedb,50,female,2021-05-03_11h56.27.782,search_v5,2021.1.2,Win32,60.0240096,,,space,0.872,0,17,17,92,1,,,,,,,,,,,,,,,,,
,,,,,,,,,,,,,,,,p,1,1.318,,,,,,,,tex_hard_TP/1.6_r=50_phi=315_seed=1.png,1,p,hard,texture,60245c7c3df42d131232cedb,50,female,2021-05-03_11h56.27.782,search_v5,2021.1.2,Win32,60.0240096,,,space,0.756,0,18,18,57,1,,,,,,,,,,,,,,,,,
,,,,,,,,,,,,,,,,a,1,7.584,,,,,,,,tex_hard_TA/1.6_r=TA_seed=1.png,0,a,hard,texture,60245c7c3df42d131232cedb,50,female,2021-05-03_11h56.27.782,search_v5,2021.1.2,Win32,60.0240096,,,space,0.718,0,19,19,130,1,,,,,,,,,,,,,,,,,
,,,,,,,,,,,,,,,,p,1,1.781,,,,,,,,tex_easy_TP/1.7_r=350_phi=90_seed=3.png,1,p,easy,texture,60245c7c3df42d131232cedb,50,female,2021-05-03_11h56.27.782,search_v5,2021.1.2,Win32,60.0240096,,,space,1.02,0,20,20,27,1,,,,,,,,,,,,,,,,,
,,,,,,,,,,,,,,,,a,1,5.969,,,,,,,,tex_mid_TA/1.65_r=TA_seed=2.png,0,a,mid,texture,60245c7c3df42d131232cedb,50,female,2021-05-03_11h56.27.782,search_v5,2021.1.2,Win32,60.0240096,,,space,0.635,0,21,21,89,1,,,,,,,,,,,,,,,,,
,,,,,,,,,,,,,,,,p,1,2.357,,,,,,,,tex_mid_TP/1.65_r=450_phi=0_seed=2.png,1,p,mid,texture,60245c7c3df42d131232cedb,50,female,2021-05-03_11h56.27.782,search_v5,2021.1.2,Win32,60.0240096,,,space,0.787,0,22,22,75,1,,,,,,,,,,,,,,,,,
,,,,,,,,,,,,,,,,a,1,4.892,,,,,,,,tex_hard_TA/1.6_r=TA_seed=1.png,0,a,hard,texture,60245c7c3df42d131232cedb,50,female,2021-05-03_11h56.27.782,search_v5,2021.1.2,Win32,60.0240096,,,space,0.618,0,23,23,144,1,,,,,,,,,,,,,,,,,
,,,,,,,,,,,,,,,,p,1,1.401,,,,,,,,tex_easy_TP/1.7_r=400_phi=90_seed=3.png,1,p,easy,texture,60245c7c3df42d131232cedb,50,female,2021-05-03_11h56.27.782,search_v5,2021.1.2,Win32,60.0240096,,,space,0.692,0,24,24,31,1,,,,,,,,,,,,,,,,,
,,,,,,,,,,,,,,,,a,0,5.282,,,,,,,,tex_hard_TP/1.6_r=400_phi=90_seed=1.png,1,p,hard,texture,60245c7c3df42d131232cedb,50,female,2021-05-03_11h56.27.782,search_v5,2021.1.2,Win32,60.0240096,,,space,1.82,0,25,25,51,1,,,,,,,,,,,,,,,,,
,,,,,,,,,,,,,,,,a,1,8.004,,,,,,,,tex_hard_TA/1.6_r=TA_seed=1.png,0,a,hard,texture,60245c7c3df42d131232cedb,50,female,2021-05-03_11h56.27.782,search_v5,2021.1.2,Win32,60.0240096,,,space,0.618,0,26,26,145,1,,,,,,,,,,,,,,,,,
,,,,,,,,,,,,,,,,a,1,5.454,,,,,,,,tex_mid_TA/1.65_r=TA_seed=2.png,0,a,mid,texture,60245c7c3df42d131232cedb,50,female,2021-05-03_11h56.27.782,search_v5,2021.1.2,Win32,60.0240096,,,space,0.684,0,27,27,87,1,,,,,,,,,,,,,,,,,
,,,,,,,,,,,,,,,,p,1,6.229,,,,,,,,tex_hard_TP/1.6_r=400_phi=225_seed=1.png,1,p,hard,texture,60245c7c3df42d131232cedb,50,female,2021-05-03_11h56.27.782,search_v5,2021.1.2,Win32,60.0240096,,,space,0.656,0,28,28,49,1,,,,,,,,,,,,,,,,,
,,,,,,,,,,,,,,,,a,1,5.483,,,,,,,,tex_easy_TA/1.7_r=TA_seed=3.png,0,a,easy,texture,60245c7c3df42d131232cedb,50,female,2021-05-03_11h56.27.782,search_v5,2021.1.2,Win32,60.0240096,,,space,0.673,0,29,29,108,1,,,,,,,,,,,,,,,,,
,,,,,,,,,,,,,,,,p,1,1.432,,,,,,,,tex_easy_TP/1.7_r=250_phi=135_seed=3.png,1,p,easy,texture,60245c7c3df42d131232cedb,50,female,2021-05-03_11h56.27.782,search_v5,2021.1.2,Win32,60.0240096,,,space,0.687,0,30,30,17,1,,,,,,,,,,,,,,,,,
,,,,,,,,,,,,,,,,p,1,0.747,,,,,,,,tex_hard_TP/1.6_r=50_phi=225_seed=1.png,1,p,hard,texture,60245c7c3df42d131232cedb,50,female,2021-05-03_11h56.27.782,search_v5,2021.1.2,Win32,60.0240096,,,space,0.567,0,31,31,56,1,,,,,,,,,,,,,,,,,
,,,,,,,,,,,,,,,,a,1,4.859,,,,,,,,tex_hard_TA/1.6_r=TA_seed=1.png,0,a,hard,texture,60245c7c3df42d131232cedb,50,female,2021-05-03_11h56.27.782,search_v5,2021.1.2,Win32,60.0240096,,,space,0.685,0,32,32,139,1,,,,,,,,,,,,,,,,,
,,,,,,,,,,,,,,,,a,1,3.479,,,,,,,,tex_easy_TA/1.7_r=TA_seed=3.png,0,a,easy,texture,60245c7c3df42d131232cedb,50,female,2021-05-03_11h56.27.782,search_v5,2021.1.2,Win32,60.0240096,,,space,0.567,0,33,33,118,1,,,,,,,,,,,,,,,,,
,,,,,,,,,,,,,,,,a,1,4.324,,,,,,,,tex_easy_TA/1.7_r=TA_seed=3.png,0,a,easy,texture,60245c7c3df42d131232cedb,50,female,2021-05-03_11h56.27.782,search_v5,2021.1.2,Win32,60.0240096,,,space,0.57,0,34,34,9,1,,,,,,,,,,,,,,,,,
,,,,,,,,,,,,,,,,p,1,1.803,,,,,,,,tex_mid_TP/1.65_r=400_phi=315_seed=2.png,1,p,mid,texture,60245c7c3df42d131232cedb,50,female,2021-05-03_11h56.27.782,search_v5,2021.1.2,Win32,60.0240096,,,space,0.668,0,35,35,73,1,,,,,,,,,,,,,,,,,
,,,,,,,,,,,,,,,,p,1,1.739,,,,,,,,tex_mid_TP/1.65_r=200_phi=45_seed=2.png,1,p,mid,texture,60245c7c3df42d131232cedb,50,female,2021-05-03_11h56.27.782,search_v5,2021.1.2,Win32,60.0240096,,,space,0.534,0,36,36,62,1,,,,,,,,,,,,,,,,,
,,,,,,,,,,,,,,,,p,1,1.248,,,,,,,,tex_mid_TP/1.65_r=400_phi=45_seed=2.png,1,p,mid,texture,60245c7c3df42d131232cedb,50,female,2021-05-03_11h56.27.782,search_v5,2021.1.2,Win32,60.0240096,,,space,0.668,0,37,37,74,1,,,,,,,,,,,,,,,,,
,,,,,,,,,,,,,,,,a,1,4.938,,,,,,,,tex_hard_TA/1.6_r=TA_seed=1.png,0,a,hard,texture,60245c7c3df42d131232cedb,50,female,2021-05-03_11h56.27.782,search_v5,2021.1.2,Win32,60.0240096,,,space,0.521,0,38,38,148,1,,,,,,,,,,,,,,,,,
,,,,,,,,,,,,,,,,a,1,3.717,,,,,,,,tex_easy_TA/1.7_r=TA_seed=3.png,0,a,easy,texture,60245c7c3df42d131232cedb,50,female,2021-05-03_11h56.27.782,search_v5,2021.1.2,Win32,60.0240096,,,space,0.538,0,39,39,113,1,,,,,,,,,,,,,,,,,
,,,,,,,,,,,,,,,,a,1,3.528,,,,,,,,tex_hard_TA/1.6_r=TA_seed=1.png,0,a,hard,texture,60245c7c3df42d131232cedb,50,female,2021-05-03_11h56.27.782,search_v5,2021.1.2,Win32,60.0240096,,,space,0.506,0,40,40,143,1,,,,,,,,,,,,,,,,,
,,,,,,,,,,,,,,,,p,0,3.352,,,,,,,,tex_easy_TA/1.7_r=TA_seed=3.png,0,a,easy,texture,60245c7c3df42d131232cedb,50,female,2021-05-03_11h56.27.782,search_v5,2021.1.2,Win32,60.0240096,,,space,2.365,0,41,41,115,1,,,,,,,,,,,,,,,,,
,,,,,,,,,,,,,,,,p,1,1.36,,,,,,,,tex_mid_TP/1.65_r=300_phi=315_seed=2.png,1,p,mid,texture,60245c7c3df42d131232cedb,50,female,2021-05-03_11h56.27.782,search_v5,2021.1.2,Win32,60.0240096,,,space,0.511,0,42,42,68,1,,,,,,,,,,,,,,,,,
,,,,,,,,,,,,,,,,a,1,6.365,,,,,,,,tex_mid_TA/1.65_r=TA_seed=2.png,0,a,mid,texture,60245c7c3df42d131232cedb,50,female,2021-05-03_11h56.27.782,search_v5,2021.1.2,Win32,60.0240096,,,space,0.517,0,43,43,93,1,,,,,,,,,,,,,,,,,
,,,,,,,,,,,,,,,,a,1,5.3,,,,,,,,tex_easy_TA/1.7_r=TA_seed=3.png,0,a,easy,texture,60245c7c3df42d131232cedb,50,female,2021-05-03_11h56.27.782,search_v5,2021.1.2,Win32,60.0240096,,,space,0.575,0,44,44,124,1,,,,,,,,,,,,,,,,,
,,,,,,,,,,,,,,,,p,1,0.781,,,,,,,,tex_easy_TP/1.7_r=350_phi=225_seed=3.png,1,p,easy,texture,60245c7c3df42d131232cedb,50,female,2021-05-03_11h56.27.782,search_v5,2021.1.2,Win32,60.0240096,,,space,0.485,0,45,45,25,1,,,,,,,,,,,,,,,,,
,,,,,,,,,,,,,,,,p,1,4.088,,,,,,,,tex_easy_TP/1.7_r=450_phi=135_seed=3.png,1,p,easy,texture,60245c7c3df42d131232cedb,50,female,2021-05-03_11h56.27.782,search_v5,2021.1.2,Win32,60.0240096,,,space,0.485,0,46,46,32,1,,,,,,,,,,,,,,,,,
,,,,,,,,,,,,,,,,a,1,4.016,,,,,,,,tex_mid_TA/1.65_r=TA_seed=2.png,0,a,mid,texture,60245c7c3df42d131232cedb,50,female,2021-05-03_11h56.27.782,search_v5,2021.1.2,Win32,60.0240096,,,space,0.518,0,47,47,97,1,,,,,,,,,,,,,,,,,
,,,,,,,,,,,,,,,,p,1,0.839,,,,,,,,tex_easy_TP/1.7_r=400_phi=225_seed=3.png,1,p,easy,texture,60245c7c3df42d131232cedb,50,female,2021-05-03_11h56.27.782,search_v5,2021.1.2,Win32,60.0240096,,,space,0.451,0,48,48,29,1,,,,,,,,,,,,,,,,,
,,,,,,,,,,,,,,,,a,1,4.365,,,,,,,,tex_mid_TA/1.65_r=TA_seed=2.png,0,a,mid,texture,60245c7c3df42d131232cedb,50,female,2021-05-03_11h56.27.782,search_v5,2021.1.2,Win32,60.0240096,,,space,0.522,0,49,49,91,1,,,,,,,,,,,,,,,,,
,,,,,,,,,,,,,,,,a,1,4.174,,,,,,,,tex_easy_TA/1.7_r=TA_seed=3.png,0,a,easy,texture,60245c7c3df42d131232cedb,50,female,2021-05-03_11h56.27.782,search_v5,2021.1.2,Win32,60.0240096,,,space,0.5,0,50,50,109,1,,,,,,,,,,,,,,,,,
,,,,,,,,,,,,,,,,a,0,3.537,,,,,,,,tex_hard_TP/1.6_r=350_phi=315_seed=1.png,1,p,hard,texture,60245c7c3df42d131232cedb,50,female,2021-05-03_11h56.27.782,search_v5,2021.1.2,Win32,60.0240096,,,space,1.286,0,51,51,47,1,,,,,,,,,,,,,,,,,
,,,,,,,,,,,,,,,,p,1,0.916,,,,,,,,tex_easy_TP/1.7_r=300_phi=315_seed=3.png,1,p,easy,texture,60245c7c3df42d131232cedb,50,female,2021-05-03_11h56.27.782,search_v5,2021.1.2,Win32,60.0240096,,,space,0.386,0,52,52,23,1,,,,,,,,,,,,,,,,,
,,,,,,,,,,,,,,,,p,1,2.452,,,,,,,,tex_easy_TP/1.7_r=350_phi=315_seed=3.png,1,p,easy,texture,60245c7c3df42d131232cedb,50,female,2021-05-03_11h56.27.782,search_v5,2021.1.2,Win32,60.0240096,,,space,0.371,0,53,53,26,1,,,,,,,,,,,,,,,,,
,,,,,,,,,,,,,,,,p,1,0.954,,,,,,,,tex_mid_TP/1.65_r=100_phi=270_seed=2.png,1,p,mid,texture,60245c7c3df42d131232cedb,50,female,2021-05-03_11h56.27.782,search_v5,2021.1.2,Win32,60.0240096,,,space,0.416,0,54,54,5,1,,,,,,,,,,,,,,,,,
,,,,,,,,,,,,,,,,a,0,5.187,,,,,,,,tex_hard_TP/1.6_r=100_phi=0_seed=1.png,1,p,hard,texture,60245c7c3df42d131232cedb,50,female,2021-05-03_11h56.27.782,search_v5,2021.1.2,Win32,60.0240096,,,space,1.253,0,55,55,2,1,,,,,,,,,,,,,,,,,
,,,,,,,,,,,,,,,,a,0,7.2,,,,,,,,tex_hard_TP/1.6_r=400_phi=315_seed=1.png,1,p,hard,texture,60245c7c3df42d131232cedb,50,female,2021-05-03_11h56.27.782,search_v5,2021.1.2,Win32,60.0240096,,,space,0.202,0,56,56,50,1,,,,,,,,,,,,,,,,,
,,,,,,,,,,,,,,,,p,1,1.369,,,,,,,,tex_easy_TP/1.7_r=250_phi=225_seed=3.png,1,p,easy,texture,60245c7c3df42d131232cedb,50,female,2021-05-03_11h56.27.782,search_v5,2021.1.2,Win32,60.0240096,,,space,0.749,0,57,57,18,1,,,,,,,,,,,,,,,,,
,,,,,,,,,,,,,,,,p,1,1.437,,,,,,,,tex_mid_TP/1.65_r=300_phi=90_seed=2.png,1,p,mid,texture,60245c7c3df42d131232cedb,50,female,2021-05-03_11h56.27.782,search_v5,2021.1.2,Win32,60.0240096,,,space,0.383,0,58,58,69,1,,,,,,,,,,,,,,,,,
,,,,,,,,,,,,,,,,p,1,0.87,,,,,,,,tex_easy_TP/1.7_r=200_phi=225_seed=3.png,1,p,easy,texture,60245c7c3df42d131232cedb,50,female,2021-05-03_11h56.27.782,search_v5,2021.1.2,Win32,60.0240096,,,space,0.384,0,59,59,14,1,,,,,,,,,,,,,,,,,
,,,,,,,,,,,,,,,,p,1,0.955,,,,,,,,tex_mid_TP/1.65_r=50_phi=315_seed=2.png,1,p,mid,texture,60245c7c3df42d131232cedb,50,female,2021-05-03_11h56.27.782,search_v5,2021.1.2,Win32,60.0240096,,,space,0.441,0,60,60,79,1,,,,,,,,,,,,,,,,,
,,,,,,,,,,,,,,,,a,1,6.421,,,,,,,,tex_hard_TA/1.6_r=TA_seed=1.png,0,a,hard,texture,60245c7c3df42d131232cedb,50,female,2021-05-03_11h56.27.782,search_v5,2021.1.2,Win32,60.0240096,,,space,0.551,0,61,61,128,1,,,,,,,,,,,,,,,,,
,,,,,,,,,,,,,,,,a,1,4.196,,,,,,,,tex_easy_TA/1.7_r=TA_seed=3.png,0,a,easy,texture,60245c7c3df42d131232cedb,50,female,2021-05-03_11h56.27.782,search_v5,2021.1.2,Win32,60.0240096,,,space,0.623,0,62,62,110,1,,,,,,,,,,,,,,,,,
,,,,,,,,,,,,,,,,a,1,5.017,,,,,,,,tex_easy_TA/1.7_r=TA_seed=3.png,0,a,easy,texture,60245c7c3df42d131232cedb,50,female,2021-05-03_11h56.27.782,search_v5,2021.1.2,Win32,60.0240096,,,space,0.505,0,63,63,123,1,,,,,,,,,,,,,,,,,
,,,,,,,,,,,,,,,,a,0,6.148,,,,,,,,tex_hard_TP/1.6_r=450_phi=135_seed=1.png,1,p,hard,texture,60245c7c3df42d131232cedb,50,female,2021-05-03_11h56.27.782,search_v5,2021.1.2,Win32,60.0240096,,,space,1.601,0,64,64,52,1,,,,,,,,,,,,,,,,,
,,,,,,,,,,,,,,,,p,0,6.496,,,,,,,,tex_easy_TA/1.7_r=TA_seed=3.png,0,a,easy,texture,60245c7c3df42d131232cedb,50,female,2021-05-03_11h56.27.782,search_v5,2021.1.2,Win32,60.0240096,,,space,2.239,0,65,65,119,1,,,,,,,,,,,,,,,,,
,,,,,,,,,,,,,,,,a,1,5.797,,,,,,,,tex_hard_TA/1.6_r=TA_seed=1.png,0,a,hard,texture,60245c7c3df42d131232cedb,50,female,2021-05-03_11h56.27.782,search_v5,2021.1.2,Win32,60.0240096,,,space,0.537,0,66,66,11,1,,,,,,,,,,,,,,,,,
,,,,,,,,,,,,,,,,p,1,0.853,,,,,,,,tex_easy_TP/1.7_r=300_phi=225_seed=3.png,1,p,easy,texture,60245c7c3df42d131232cedb,50,female,2021-05-03_11h56.27.782,search_v5,2021.1.2,Win32,60.0240096,,,space,0.438,0,67,67,22,1,,,,,,,,,,,,,,,,,
,,,,,,,,,,,,,,,,p,1,0.846,,,,,,,,tex_easy_TP/1.7_r=450_phi=315_seed=3.png,1,p,easy,texture,60245c7c3df42d131232cedb,50,female,2021-05-03_11h56.27.782,search_v5,2021.1.2,Win32,60.0240096,,,space,0.389,0,68,68,34,1,,,,,,,,,,,,,,,,,
,,,,,,,,,,,,,,,,a,1,5.488,,,,,,,,tex_hard_TA/1.6_r=TA_seed=1.png,0,a,hard,texture,60245c7c3df42d131232cedb,50,female,2021-05-03_11h56.27.782,search_v5,2021.1.2,Win32,60.0240096,,,space,0.585,0,69,69,135,1,,,,,,,,,,,,,,,,,
,,,,,,,,,,,,,,,,a,1,5.583,,,,,,,,tex_hard_TA/1.6_r=TA_seed=1.png,0,a,hard,texture,60245c7c3df42d131232cedb,50,female,2021-05-03_11h56.27.782,search_v5,2021.1.2,Win32,60.0240096,,,space,0.503,0,70,70,133,1,,,,,,,,,,,,,,,,,
,,,,,,,,,,,,,,,,a,0,3.756,,,,,,,,tex_hard_TP/1.6_r=150_phi=135_seed=1.png,1,p,hard,texture,60245c7c3df42d131232cedb,50,female,2021-05-03_11h56.27.782,search_v5,2021.1.2,Win32,60.0240096,,,space,2.604,0,71,71,36,1,,,,,,,,,,,,,,,,,
,,,,,,,,,,,,,,,,p,1,4.35,,,,,,,,tex_easy_TP/1.7_r=350_phi=135_seed=3.png,1,p,easy,texture,60245c7c3df42d131232cedb,50,female,2021-05-03_11h56.27.782,search_v5,2021.1.2,Win32,60.0240096,,,space,0.572,0,72,72,24,1,,,,,,,,,,,,,,,,,
,,,,,,,,,,,,,,,,a,0,6.806,,,,,,,,tex_hard_TP/1.6_r=100_phi=90_seed=1.png,1,p,hard,texture,60245c7c3df42d131232cedb,50,female,2021-05-03_11h56.27.782,search_v5,2021.1.2,Win32,60.0240096,,,space,3.553,0,73,73,35,1,,,,,,,,,,,,,,,,,
,,,,,,,,,,,,,,,,a,1,5.511,,,,,,,,tex_mid_TA/1.65_r=TA_seed=2.png,0,a,mid,texture,60245c7c3df42d131232cedb,50,female,2021-05-03_11h56.27.782,search_v5,2021.1.2,Win32,60.0240096,,,space,0.528,0,74,74,6,1,,,,,,,,,,,,,,,,,
,,,,,,,,,,,,,,,,p,1,0.866,,,,,,,,tex_mid_TP/1.65_r=50_phi=270_seed=2.png,1,p,mid,texture,60245c7c3df42d131232cedb,50,female,2021-05-03_11h56.27.782,search_v5,2021.1.2,Win32,60.0240096,,,space,0.404,0,75,75,78,1,,,,,,,,,,,,,,,,,
,,,,,,,,,,,,,,,,p,1,1.266,,,,,,,,tex_mid_TP/1.65_r=350_phi=0_seed=2.png,1,p,mid,texture,60245c7c3df42d131232cedb,50,female,2021-05-03_11h56.27.782,search_v5,2021.1.2,Win32,60.0240096,,,space,0.516,0,76,76,70,1,,,,,,,,,,,,,,,,,
,,,,,,,,,,,,,,,,a,0,4.503,,,,,,,,tex_mid_TP/1.65_r=450_phi=135_seed=2.png,1,p,mid,texture,60245c7c3df42d131232cedb,50,female,2021-05-03_11h56.27.782,search_v5,2021.1.2,Win32,60.0240096,,,space,3.82,0,77,77,76,1,,,,,,,,,,,,,,,,,
,,,,,,,,,,,,,,,,a,1,9.355,,,,,,,,tex_hard_TA/1.6_r=TA_seed=1.png,0,a,hard,texture,60245c7c3df42d131232cedb,50,female,2021-05-03_11h56.27.782,search_v5,2021.1.2,Win32,60.0240096,,,space,0.519,0,78,78,131,1,,,,,,,,,,,,,,,,,
,,,,,,,,,,,,,,,,p,1,1.142,,,,,,,,tex_easy_TP/1.7_r=200_phi=135_seed=3.png,1,p,easy,texture,60245c7c3df42d131232cedb,50,female,2021-05-03_11h56.27.782,search_v5,2021.1.2,Win32,60.0240096,,,space,0.537,0,79,79,13,1,,,,,,,,,,,,,,,,,
,,,,,,,,,,,,,,,,a,1,4.634,,,,,,,,tex_hard_TA/1.6_r=TA_seed=1.png,0,a,hard,texture,60245c7c3df42d131232cedb,50,female,2021-05-03_11h56.27.782,search_v5,2021.1.2,Win32,60.0240096,,,space,0.575,0,80,80,138,1,,,,,,,,,,,,,,,,,
,,,,,,,,,,,,,,,,a,1,4.33,,,,,,,,tex_mid_TA/1.65_r=TA_seed=2.png,0,a,mid,texture,60245c7c3df42d131232cedb,50,female,2021-05-03_11h56.27.782,search_v5,2021.1.2,Win32,60.0240096,,,space,0.488,0,81,81,88,1,,,,,,,,,,,,,,,,,
,,,,,,,,,,,,,,,,p,1,0.746,,,,,,,,tex_easy_TP/1.7_r=150_phi=225_seed=3.png,1,p,easy,texture,60245c7c3df42d131232cedb,50,female,2021-05-03_11h56.27.782,search_v5,2021.1.2,Win32,60.0240096,,,space,0.421,0,82,82,0,1,,,,,,,,,,,,,,,,,
,,,,,,,,,,,,,,,,a,1,3.707,,,,,,,,tex_hard_TA/1.6_r=TA_seed=1.png,0,a,hard,texture,60245c7c3df42d131232cedb,50,female,2021-05-03_11h56.27.782,search_v5,2021.1.2,Win32,60.0240096,,,space,0.502,0,83,83,142,1,,,,,,,,,,,,,,,,,
,,,,,,,,,,,,,,,,p,1,1.438,,,,,,,,tex_easy_TP/1.7_r=450_phi=225_seed=3.png,1,p,easy,texture,60245c7c3df42d131232cedb,50,female,2021-05-03_11h56.27.782,search_v5,2021.1.2,Win32,60.0240096,,,space,0.502,0,84,84,33,1,,,,,,,,,,,,,,,,,
,,,,,,,,,,,,,,,,a,1,3.63,,,,,,,,tex_mid_TA/1.65_r=TA_seed=2.png,0,a,mid,texture,60245c7c3df42d131232cedb,50,female,2021-05-03_11h56.27.782,search_v5,2021.1.2,Win32,60.0240096,,,space,0.518,0,85,85,81,1,,,,,,,,,,,,,,,,,
,,,,,,,,,,,,,,,,a,1,2.299,,,,,,,,tex_mid_TA/1.65_r=TA_seed=2.png,0,a,mid,texture,60245c7c3df42d131232cedb,50,female,2021-05-03_11h56.27.782,search_v5,2021.1.2,Win32,60.0240096,,,space,0.484,0,86,86,84,1,,,,,,,,,,,,,,,,,
,,,,,,,,,,,,,,,,a,0,3.021,,,,,,,,tex_hard_TP/1.6_r=300_phi=90_seed=1.png,1,p,hard,texture,60245c7c3df42d131232cedb,50,female,2021-05-03_11h56.27.782,search_v5,2021.1.2,Win32,60.0240096,,,space,2.822,0,87,87,46,1,,,,,,,,,,,,,,,,,
,,,,,,,,,,,,,,,,a,1,5.019,,,,,,,,tex_easy_TA/1.7_r=TA_seed=3.png,0,a,easy,texture,60245c7c3df42d131232cedb,50,female,2021-05-03_11h56.27.782,search_v5,2021.1.2,Win32,60.0240096,,,space,0.497,0,88,88,116,1,,,,,,,,,,,,,,,,,
,,,,,,,,,,,,,,,,p,1,0.789,,,,,,,,tex_mid_TP/1.65_r=50_phi=45_seed=2.png,1,p,mid,texture,60245c7c3df42d131232cedb,50,female,2021-05-03_11h56.27.782,search_v5,2021.1.2,Win32,60.0240096,,,space,0.433,0,89,89,80,1,,,,,,,,,,,,,,,,,
,,,,,,,,,,,,,,,,a,1,4.248,,,,,,,,tex_easy_TA/1.7_r=TA_seed=3.png,0,a,easy,texture,60245c7c3df42d131232cedb,50,female,2021-05-03_11h56.27.782,search_v5,2021.1.2,Win32,60.0240096,,,space,0.49,0,90,90,106,1,,,,,,,,,,,,,,,,,
,,,,,,,,,,,,,,,,a,1,4.014,,,,,,,,tex_mid_TA/1.65_r=TA_seed=2.png,0,a,mid,texture,60245c7c3df42d131232cedb,50,female,2021-05-03_11h56.27.782,search_v5,2021.1.2,Win32,60.0240096,,,space,0.535,0,91,91,100,1,,,,,,,,,,,,,,,,,
,,,,,,,,,,,,,,,,a,1,3.8,,,,,,,,tex_easy_TA/1.7_r=TA_seed=3.png,0,a,easy,texture,60245c7c3df42d131232cedb,50,female,2021-05-03_11h56.27.782,search_v5,2021.1.2,Win32,60.0240096,,,space,0.503,0,92,92,105,1,,,,,,,,,,,,,,,,,
,,,,,,,,,,,,,,,,a,1,2.818,,,,,,,,tex_hard_TA/1.6_r=TA_seed=1.png,0,a,hard,texture,60245c7c3df42d131232cedb,50,female,2021-05-03_11h56.27.782,search_v5,2021.1.2,Win32,60.0240096,,,space,0.519,0,93,93,10,1,,,,,,,,,,,,,,,,,
,,,,,,,,,,,,,,,,a,1,3.718,,,,,,,,tex_hard_TA/1.6_r=TA_seed=1.png,0,a,hard,texture,60245c7c3df42d131232cedb,50,female,2021-05-03_11h56.27.782,search_v5,2021.1.2,Win32,60.0240096,,,space,0.502,0,94,94,129,1,,,,,,,,,,,,,,,,,
,,,,,,,,,,,,,,,,a,1,4.31,,,,,,,,tex_mid_TA/1.65_r=TA_seed=2.png,0,a,mid,texture,60245c7c3df42d131232cedb,50,female,2021-05-03_11h56.27.782,search_v5,2021.1.2,Win32,60.0240096,,,space,0.543,0,95,95,83,1,,,,,,,,,,,,,,,,,
,,,,,,,,,,,,,,,,a,1,3.767,,,,,,,,tex_mid_TA/1.65_r=TA_seed=2.png,0,a,mid,texture,60245c7c3df42d131232cedb,50,female,2021-05-03_11h56.27.782,search_v5,2021.1.2,Win32,60.0240096,,,space,0.52,0,96,96,99,1,,,,,,,,,,,,,,,,,
,,,,,,,,,,,,,,,,p,1,1.064,,,,,,,,tex_mid_TP/1.65_r=350_phi=90_seed=2.png,1,p,mid,texture,60245c7c3df42d131232cedb,50,female,2021-05-03_11h56.27.782,search_v5,2021.1.2,Win32,60.0240096,,,space,0.668,0,97,97,71,1,,,,,,,,,,,,,,,,,
,,,,,,,,,,,,,,,,p,1,0.673,,,,,,,,tex_mid_TP/1.65_r=200_phi=225_seed=2.png,1,p,mid,texture,60245c7c3df42d131232cedb,50,female,2021-05-03_11h56.27.782,search_v5,2021.1.2,Win32,60.0240096,,,space,0.337,0,98,98,60,1,,,,,,,,,,,,,,,,,
,,,,,,,,,,,,,,,,a,1,3.584,,,,,,,,tex_easy_TA/1.7_r=TA_seed=3.png,0,a,easy,texture,60245c7c3df42d131232cedb,50,female,2021-05-03_11h56.27.782,search_v5,2021.1.2,Win32,60.0240096,,,space,0.57,0,99,99,8,1,,,,,,,,,,,,,,,,,
,,,,,,,,,,,,,,,,p,1,0.878,,,,,,,,tex_easy_TP/1.7_r=150_phi=90_seed=3.png,1,p,easy,texture,60245c7c3df42d131232cedb,50,female,2021-05-03_11h56.27.782,search_v5,2021.1.2,Win32,60.0240096,,,space,0.485,0,100,100,12,1,,,,,,,,,,,,,,,,,
,,,,,,,,,,,,,,,,a,1,3.118,,,,,,,,tex_easy_TA/1.7_r=TA_seed=3.png,0,a,easy,texture,60245c7c3df42d131232cedb,50,female,2021-05-03_11h56.27.782,search_v5,2021.1.2,Win32,60.0240096,,,space,0.524,0,101,101,122,1,,,,,,,,,,,,,,,,,
,,,,,,,,,,,,,,,,a,1,3.928,,,,,,,,tex_mid_TA/1.65_r=TA_seed=2.png,0,a,mid,texture,60245c7c3df42d131232cedb,50,female,2021-05-03_11h56.27.782,search_v5,2021.1.2,Win32,60.0240096,,,space,0.586,0,102,102,95,1,,,,,,,,,,,,,,,,,
,,,,,,,,,,,,,,,,a,1,4.782,,,,,,,,tex_hard_TA/1.6_r=TA_seed=1.png,0,a,hard,texture,60245c7c3df42d131232cedb,50,female,2021-05-03_11h56.27.782,search_v5,2021.1.2,Win32,60.0240096,,,space,0.554,0,103,103,132,1,,,,,,,,,,,,,,,,,
,,,,,,,,,,,,,,,,a,0,3.341,,,,,,,,tex_hard_TP/1.6_r=250_phi=315_seed=1.png,1,p,hard,texture,60245c7c3df42d131232cedb,50,female,2021-05-03_11h56.27.782,search_v5,2021.1.2,Win32,60.0240096,,,space,2.785,0,104,104,43,1,,,,,,,,,,,,,,,,,
,,,,,,,,,,,,,,,,a,0,4.53,,,,,,,,tex_hard_TP/1.6_r=450_phi=90_seed=1.png,1,p,hard,texture,60245c7c3df42d131232cedb,50,female,2021-05-03_11h56.27.782,search_v5,2021.1.2,Win32,60.0240096,,,space,2.388,0,105,105,54,1,,,,,,,,,,,,,,,,,
,,,,,,,,,,,,,,,,p,1,0.884,,,,,,,,tex_hard_TP/1.6_r=200_phi=225_seed=1.png,1,p,hard,texture,60245c7c3df42d131232cedb,50,female,2021-05-03_11h56.27.782,search_v5,2021.1.2,Win32,60.0240096,,,space,0.412,0,106,106,39,1,,,,,,,,,,,,,,,,,
,,,,,,,,,,,,,,,,p,0,4.731,,,,,,,,tex_hard_TA/1.6_r=TA_seed=1.png,0,a,hard,texture,60245c7c3df42d131232cedb,50,female,2021-05-03_11h56.27.782,search_v5,2021.1.2,Win32,60.0240096,,,space,2.334,0,107,107,146,1,,,,,,,,,,,,,,,,,
,,,,,,,,,,,,,,,,a,1,4.498,,,,,,,,tex_easy_TA/1.7_r=TA_seed=3.png,0,a,easy,texture,60245c7c3df42d131232cedb,50,female,2021-05-03_11h56.27.782,search_v5,2021.1.2,Win32,60.0240096,,,space,0.469,0,108,108,126,1,,,,,,,,,,,,,,,,,
,,,,,,,,,,,,,,,,p,1,2.489,,,,,,,,tex_mid_TP/1.65_r=400_phi=0_seed=2.png,1,p,mid,texture,60245c7c3df42d131232cedb,50,female,2021-05-03_11h56.27.782,search_v5,2021.1.2,Win32,60.0240096,,,space,0.671,0,109,109,72,1,,,,,,,,,,,,,,,,,
,,,,,,,,,,,,,,,,a,0,4.196,,,,,,,,tex_hard_TP/1.6_r=450_phi=315_seed=1.png,1,p,hard,texture,60245c7c3df42d131232cedb,50,female,2021-05-03_11h56.27.782,search_v5,2021.1.2,Win32,60.0240096,,,space,1.919,0,110,110,53,1,,,,,,,,,,,,,,,,,
,,,,,,,,,,,,,,,,a,0,5.752,,,,,,,,tex_hard_TP/1.6_r=200_phi=315_seed=1.png,1,p,hard,texture,60245c7c3df42d131232cedb,50,female,2021-05-03_11h56.27.782,search_v5,2021.1.2,Win32,60.0240096,,,space,0.105,0,111,111,40,1,,,,,,,,,,,,,,,,,
,,,,,,,,,,,,,,,,p,1,1.203,,,,,,,,tex_easy_TP/1.7_r=200_phi=90_seed=3.png,1,p,easy,texture,60245c7c3df42d131232cedb,50,female,2021-05-03_11h56.27.782,search_v5,2021.1.2,Win32,60.0240096,,,space,0.513,0,112,112,16,1,,,,,,,,,,,,,,,,,
,,,,,,,,,,,,,,,,a,0,6.018,,,,,,,,tex_hard_TP/1.6_r=100_phi=270_seed=1.png,1,p,hard,texture,60245c7c3df42d131232cedb,50,female,2021-05-03_11h56.27.782,search_v5,2021.1.2,Win32,60.0240096,,,space,1.882,0,113,113,3,1,,,,,,,,,,,,,,,,,
,,,,,,,,,,,,,,,,a,0,8.733,,,,,,,,tex_hard_TP/1.6_r=300_phi=315_seed=1.png,1,p,hard,texture,60245c7c3df42d131232cedb,50,female,2021-05-03_11h56.27.782,search_v5,2021.1.2,Win32,60.0240096,,,space,1.418,0,114,114,45,1,,,,,,,,,,,,,,,,,
,,,,,,,,,,,,,,,,p,0,4.697,,,,,,,,tex_easy_TA/1.7_r=TA_seed=3.png,0,a,easy,texture,60245c7c3df42d131232cedb,50,female,2021-05-03_11h56.27.782,search_v5,2021.1.2,Win32,60.0240096,,,space,0.886,0,115,115,125,1,,,,,,,,,,,,,,,,,
,,,,,,,,,,,,,,,,a,1,9.599,,,,,,,,tex_hard_TA/1.6_r=TA_seed=1.png,0,a,hard,texture,60245c7c3df42d131232cedb,50,female,2021-05-03_11h56.27.782,search_v5,2021.1.2,Win32,60.0240096,,,space,0.528,0,116,116,147,1,,,,,,,,,,,,,,,,,
,,,,,,,,,,,,,,,,p,1,3.363,,,,,,,,tex_mid_TP/1.65_r=300_phi=135_seed=2.png,1,p,mid,texture,60245c7c3df42d131232cedb,50,female,2021-05-03_11h56.27.782,search_v5,2021.1.2,Win32,60.0240096,,,space,0.799,0,117,117,66,1,,,,,,,,,,,,,,,,,
,,,,,,,,,,,,,,,,a,0,4.198,,,,,,,,tex_hard_TP/1.6_r=300_phi=225_seed=1.png,1,p,hard,texture,60245c7c3df42d131232cedb,50,female,2021-05-03_11h56.27.782,search_v5,2021.1.2,Win32,60.0240096,,,space,2.953,0,118,118,44,1,,,,,,,,,,,,,,,,,
,,,,,,,,,,,,,,,,p,1,0.872,,,,,,,,tex_mid_TP/1.65_r=100_phi=225_seed=2.png,1,p,mid,texture,60245c7c3df42d131232cedb,50,female,2021-05-03_11h56.27.782,search_v5,2021.1.2,Win32,60.0240096,,,space,0.446,0,119,119,4,1,,,,,,,,,,,,,,,,,
,,,,,,,,,,,,,,,,a,1,7.087,,,,,,,,tex_easy_TA/1.7_r=TA_seed=3.png,0,a,easy,texture,60245c7c3df42d131232cedb,50,female,2021-05-03_11h56.27.782,search_v5,2021.1.2,Win32,60.0240096,,,space,0.541,0,120,120,120,1,,,,,,,,,,,,,,,,,
,,,,,,,,,,,,,,,,a,1,3.187,,,,,,,,tex_mid_TA/1.65_r=TA_seed=2.png,0,a,mid,texture,60245c7c3df42d131232cedb,50,female,2021-05-03_11h56.27.782,search_v5,2021.1.2,Win32,60.0240096,,,space,0.534,0,121,121,7,1,,,,,,,,,,,,,,,,,
,,,,,,,,,,,,,,,,a,1,3.529,,,,,,,,tex_hard_TA/1.6_r=TA_seed=1.png,0,a,hard,texture,60245c7c3df42d131232cedb,50,female,2021-05-03_11h56.27.782,search_v5,2021.1.2,Win32,60.0240096,,,space,0.502,0,122,122,136,1,,,,,,,,,,,,,,,,,
,,,,,,,,,,,,,,,,a,1,3.427,,,,,,,,tex_mid_TA/1.65_r=TA_seed=2.png,0,a,mid,texture,60245c7c3df42d131232cedb,50,female,2021-05-03_11h56.27.782,search_v5,2021.1.2,Win32,60.0240096,,,space,0.536,0,123,123,96,1,,,,,,,,,,,,,,,,,
,,,,,,,,,,,,,,,,a,1,3.581,,,,,,,,tex_easy_TA/1.7_r=TA_seed=3.png,0,a,easy,texture,60245c7c3df42d131232cedb,50,female,2021-05-03_11h56.27.782,search_v5,2021.1.2,Win32,60.0240096,,,space,1.238,0,124,124,117,1,,,,,,,,,,,,,,,,,
,,,,,,,,,,,,,,,,p,1,0.85,,,,,,,,tex_mid_TP/1.65_r=250_phi=180_seed=2.png,1,p,mid,texture,60245c7c3df42d131232cedb,50,female,2021-05-03_11h56.27.782,search_v5,2021.1.2,Win32,60.0240096,,,space,0.475,0,125,125,63,1,,,,,,,,,,,,,,,,,
,,,,,,,,,,,,,,,,a,0,3.074,,,,,,,,tex_hard_TP/1.6_r=250_phi=225_seed=1.png,1,p,hard,texture,60245c7c3df42d131232cedb,50,female,2021-05-03_11h56.27.782,search_v5,2021.1.2,Win32,60.0240096,,,space,0.7,0,126,126,42,1,,,,,,,,,,,,,,,,,
,,,,,,,,,,,,,,,,p,1,1.569,,,,,,,,tex_mid_TP/1.65_r=150_phi=45_seed=2.png,1,p,mid,texture,60245c7c3df42d131232cedb,50,female,2021-05-03_11h56.27.782,search_v5,2021.1.2,Win32,60.0240096,,,space,0.432,0,127,127,59,1,,,,,,,,,,,,,,,,,
,,,,,,,,,,,,,,,,a,1,9.032,,,,,,,,tex_hard_TA/1.6_r=TA_seed=1.png,0,a,hard,texture,60245c7c3df42d131232cedb,50,female,2021-05-03_11h56.27.782,search_v5,2021.1.2,Win32,60.0240096,,,space,0.605,0,128,128,134,1,,,,,,,,,,,,,,,,,
,,,,,,,,,,,,,,,,p,1,0.785,,,,,,,,tex_mid_TP/1.65_r=200_phi=270_seed=2.png,1,p,mid,texture,60245c7c3df42d131232cedb,50,female,2021-05-03_11h56.27.782,search_v5,2021.1.2,Win32,60.0240096,,,space,0.451,0,129,129,61,1,,,,,,,,,,,,,,,,,
,,,,,,,,,,,,,,,,a,1,5.445,,,,,,,,tex_easy_TA/1.7_r=TA_seed=3.png,0,a,easy,texture,60245c7c3df42d131232cedb,50,female,2021-05-03_11h56.27.782,search_v5,2021.1.2,Win32,60.0240096,,,space,0.504,0,130,130,104,1,,,,,,,,,,,,,,,,,
,,,,,,,,,,,,,,,,p,0,4.579,,,,,,,,tex_mid_TA/1.65_r=TA_seed=2.png,0,a,mid,texture,60245c7c3df42d131232cedb,50,female,2021-05-03_11h56.27.782,search_v5,2021.1.2,Win32,60.0240096,,,space,0.772,0,131,131,98,1,,,,,,,,,,,,,,,,,
,,,,,,,,,,,,,,,,p,1,0.952,,,,,,,,tex_mid_TP/1.65_r=100_phi=45_seed=2.png,1,p,mid,texture,60245c7c3df42d131232cedb,50,female,2021-05-03_11h56.27.782,search_v5,2021.1.2,Win32,60.0240096,,,space,0.398,0,132,132,58,1,,,,,,,,,,,,,,,,,
,,,,,,,,,,,,,,,,p,1,2.439,,,,,,,,tex_hard_TP/1.6_r=200_phi=135_seed=1.png,1,p,hard,texture,60245c7c3df42d131232cedb,50,female,2021-05-03_11h56.27.782,search_v5,2021.1.2,Win32,60.0240096,,,space,0.451,0,133,133,38,1,,,,,,,,,,,,,,,,,
,,,,,,,,,,,,,,,,p,1,0.935,,,,,,,,tex_easy_TP/1.7_r=250_phi=315_seed=3.png,1,p,easy,texture,60245c7c3df42d131232cedb,50,female,2021-05-03_11h56.27.782,search_v5,2021.1.2,Win32,60.0240096,,,space,0.387,0,134,134,19,1,,,,,,,,,,,,,,,,,
,,,,,,,,,,,,,,,,a,1,4.884,,,,,,,,tex_mid_TA/1.65_r=TA_seed=2.png,0,a,mid,texture,60245c7c3df42d131232cedb,50,female,2021-05-03_11h56.27.782,search_v5,2021.1.2,Win32,60.0240096,,,space,0.483,0,135,135,90,1,,,,,,,,,,,,,,,,,
,,,,,,,,,,,,,,,,a,1,4.698,,,,,,,,tex_hard_TA/1.6_r=TA_seed=1.png,0,a,hard,texture,60245c7c3df42d131232cedb,50,female,2021-05-03_11h56.27.782,search_v5,2021.1.2,Win32,60.0240096,,,space,0.485,0,136,136,141,1,,,,,,,,,,,,,,,,,
,,,,,,,,,,,,,,,,p,1,1.794,,,,,,,,tex_hard_TP/1.6_r=350_phi=90_seed=1.png,1,p,hard,texture,60245c7c3df42d131232cedb,50,female,2021-05-03_11h56.27.782,search_v5,2021.1.2,Win32,60.0240096,,,space,0.486,0,137,137,48,1,,,,,,,,,,,,,,,,,
,,,,,,,,,,,,,,,,a,1,5,,,,,,,,tex_mid_TA/1.65_r=TA_seed=2.png,0,a,mid,texture,60245c7c3df42d131232cedb,50,female,2021-05-03_11h56.27.782,search_v5,2021.1.2,Win32,60.0240096,,,space,0.5,0,138,138,82,1,,,,,,,,,,,,,,,,,
,,,,,,,,,,,,,,,,p,1,0.784,,,,,,,,tex_mid_TP/1.65_r=300_phi=225_seed=2.png,1,p,mid,texture,60245c7c3df42d131232cedb,50,female,2021-05-03_11h56.27.782,search_v5,2021.1.2,Win32,60.0240096,,,space,0.416,0,139,139,67,1,,,,,,,,,,,,,,,,,
,,,,,,,,,,,,,,,,a,1,4.454,,,,,,,,tex_hard_TA/1.6_r=TA_seed=1.png,0,a,hard,texture,60245c7c3df42d131232cedb,50,female,2021-05-03_11h56.27.782,search_v5,2021.1.2,Win32,60.0240096,,,space,0.483,0,140,140,149,1,,,,,,,,,,,,,,,,,
,,,,,,,,,,,,,,,,p,1,3.788,,,,,,,,tex_hard_TP/1.6_r=50_phi=135_seed=1.png,1,p,hard,texture,60245c7c3df42d131232cedb,50,female,2021-05-03_11h56.27.782,search_v5,2021.1.2,Win32,60.0240096,,,space,0.416,0,141,141,55,1,,,,,,,,,,,,,,,,,
,,,,,,,,,,,,,,,,a,1,4.318,,,,,,,,tex_mid_TA/1.65_r=TA_seed=2.png,0,a,mid,texture,60245c7c3df42d131232cedb,50,female,2021-05-03_11h56.27.782,search_v5,2021.1.2,Win32,60.0240096,,,space,0.45,0,142,142,85,1,,,,,,,,,,,,,,,,,
,,,,,,,,,,,,,,,,a,1,3.864,,,,,,,,tex_mid_TA/1.65_r=TA_seed=2.png,0,a,mid,texture,60245c7c3df42d131232cedb,50,female,2021-05-03_11h56.27.782,search_v5,2021.1.2,Win32,60.0240096,,,space,0.506,0,143,143,101,1,,,,,,,,,,,,,,,,,
,,,,,,,,,,,,,,,,a,1,3.833,,,,,,,,tex_hard_TA/1.6_r=TA_seed=1.png,0,a,hard,texture,60245c7c3df42d131232cedb,50,female,2021-05-03_11h56.27.782,search_v5,2021.1.2,Win32,60.0240096,,,space,0.436,0,144,144,127,1,,,,,,,,,,,,,,,,,
,,,,,,,,,,,,,,,,a,1,5.167,,,,,,,,tex_mid_TA/1.65_r=TA_seed=2.png,0,a,mid,texture,60245c7c3df42d131232cedb,50,female,2021-05-03_11h56.27.782,search_v5,2021.1.2,Win32,60.0240096,,,space,0.45,0,145,145,94,1,,,,,,,,,,,,,,,,,
,,,,,,,,,,,,,,,,p,1,0.833,,,,,,,,tex_easy_TP/1.7_r=250_phi=90_seed=3.png,1,p,easy,texture,60245c7c3df42d131232cedb,50,female,2021-05-03_11h56.27.782,search_v5,2021.1.2,Win32,60.0240096,,,space,0.469,0,146,146,20,1,,,,,,,,,,,,,,,,,
,,,,,,,,,,,,,,,,p,1,1.438,,,,,,,,tex_mid_TP/1.65_r=250_phi=45_seed=2.png,1,p,mid,texture,60245c7c3df42d131232cedb,50,female,2021-05-03_11h56.27.782,search_v5,2021.1.2,Win32,60.0240096,,,space,0.458,0,147,147,65,1,,,,,,,,,,,,,,,,,
,,,,,,,,,,,,,,,,a,0,4.17,,,,,,,,tex_mid_TP/1.65_r=450_phi=90_seed=2.png,1,p,mid,texture,60245c7c3df42d131232cedb,50,female,2021-05-03_11h56.27.782,search_v5,2021.1.2,Win32,60.0240096,,,space,3.49,0,148,148,77,1,,,,,,,,,,,,,,,,,
,,,,,,,,,,,,,,,,a,1,7.348,,,,,,,,tex_hard_TA/1.6_r=TA_seed=1.png,0,a,hard,texture,60245c7c3df42d131232cedb,50,female,2021-05-03_11h56.27.782,search_v5,2021.1.2,Win32,60.0240096,,,space,0.444,0,149,149,137,1,,,,,,,,,,,,,,,,,
,,,,,,,,,,,,,,,,,,,,,,,,,,,,,,,60245c7c3df42d131232cedb,50,female,2021-05-03_11h56.27.782,search_v5,2021.1.2,Win32,60.0240096,,,,,,,,,,0,0,0,1,1,condText.xlsx,texture,Look for a circular shape and indicate if it is present or absent in the array. If it is present press 'p' and if absent press 'a'. Press SPACE to start.,texture_example.jpg,,,,egText.xlsx,,,,
,,,,,,,,,,,,space,19.245,space,22.11,p,1,15.714,space,0.882,0,0,0,11,1,line_mid_TP/9_3_1.1424_none_left_col_10_row_8.jpg,1,p,mid,line,60245c7c3df42d131232cedb,50,female,2021-05-03_11h56.27.782,search_v5,2021.1.2,Win32,60.0240096,,,,,,,,,,,,,,,,,,,,,,,,,,
,,,,,,,,,,,,,,,,a,1,24.146,space,0.917,0,1,1,8,1,line_mid_TA/10_1_NaN_none_absent.jpg,0,a,mid,line,60245c7c3df42d131232cedb,50,female,2021-05-03_11h56.27.782,search_v5,2021.1.2,Win32,60.0240096,,,,,,,,,,,,,,,,,,,,,,,,,,
,,,,,,,,,,,,,,,,a,0,23.934,space,1.383,0,2,2,10,1,line_mid_TP/9_2_1.1424_none_right_col_20_row_1.jpg,1,p,mid,line,60245c7c3df42d131232cedb,50,female,2021-05-03_11h56.27.782,search_v5,2021.1.2,Win32,60.0240096,,,,,,,,,,,,,,,,,,,,,,,,,,
,,,,,,,,,,,,,,,,p,1,37.065,space,1.242,0,3,3,6,1,line_hard_TP/10_1_2.0944_none_left_col_10_row_11.jpg,1,p,hard,line,60245c7c3df42d131232cedb,50,female,2021-05-03_11h56.27.782,search_v5,2021.1.2,Win32,60.0240096,,,,,,,,,,,,,,,,,,,,,,,,,,
,,,,,,,,,,,,,,,,p,0,6.896,space,1.47,0,4,4,5,1,line_hard_TA/11_3_NaN_none_absent.jpg,0,a,hard,line,60245c7c3df42d131232cedb,50,female,2021-05-03_11h56.27.782,search_v5,2021.1.2,Win32,60.0240096,,,,,,,,,,,,,,,,,,,,,,,,,,
,,,,,,,,,,,,,,,,a,1,34.766,space,0.629,0,5,5,1,1,line_easy_TA/11_1_NaN_all_absent.jpg,0,a,easy,line,60245c7c3df42d131232cedb,50,female,2021-05-03_11h56.27.782,search_v5,2021.1.2,Win32,60.0240096,,,,,,,,,,,,,,,,,,,,,,,,,,
,,,,,,,,,,,,,,,,p,1,3.723,space,0.95,0,6,6,3,1,line_easy_TP/11_2_0.5236_all_right_col_14_row_9.jpg,1,p,easy,line,60245c7c3df42d131232cedb,50,female,2021-05-03_11h56.27.782,search_v5,2021.1.2,Win32,60.0240096,,,,,,,,,,,,,,,,,,,,,,,,,,
,,,,,,,,,,,,,,,,p,0,3.284,space,1.353,0,7,7,4,1,line_hard_TA/10_4_NaN_none_absent.jpg,0,a,hard,line,60245c7c3df42d131232cedb,50,female,2021-05-03_11h56.27.782,search_v5,2021.1.2,Win32,60.0240096,,,,,,,,,,,,,,,,,,,,,,,,,,
,,,,,,,,,,,,,,,,a,1,29.044,space,0.481,0,8,8,0,1,line_easy_TA/10_3_NaN_all_absent.jpg,0,a,easy,line,60245c7c3df42d131232cedb,50,female,2021-05-03_11h56.27.782,search_v5,2021.1.2,Win32,60.0240096,,,,,,,,,,,,,,,,,,,,,,,,,,
,,,,,,,,,,,,,,,,p,1,1.815,space,0.518,0,9,9,2,1,line_easy_TP/10_2_0.5236_all_right_col_18_row_7.jpg,1,p,easy,line,60245c7c3df42d131232cedb,50,female,2021-05-03_11h56.27.782,search_v5,2021.1.2,Win32,60.0240096,,,,,,,,,,,,,,,,,,,,,,,,,,
,,,,,,,,,,,,,,,,p,1,2.87,space,0.62,0,10,10,7,1,line_hard_TP/11_4_2.0944_none_right_col_18_row_11.jpg,1,p,hard,line,60245c7c3df42d131232cedb,50,female,2021-05-03_11h56.27.782,search_v5,2021.1.2,Win32,60.0240096,,,,,,,,,,,,,,,,,,,,,,,,,,
,,,,,,,,,,,,,,,,a,1,16.667,space,0.523,0,11,11,9,1,line_mid_TA/10_2_NaN_none_absent.jpg,0,a,mid,line,60245c7c3df42d131232cedb,50,female,2021-05-03_11h56.27.782,search_v5,2021.1.2,Win32,60.0240096,,,,,,,,,,,,,,,,,,,,,,,,,,
,,,,,,,,,,,,,,,,p,1,2.032,,,,,,,,line_easy_TP/4_1_0.5236_all_left_col_6_row_4.jpg,1,p,easy,line,60245c7c3df42d131232cedb,50,female,2021-05-03_11h56.27.782,search_v5,2021.1.2,Win32,60.0240096,space,3.77,space,0.619,0,0,0,49,1,,,,,,,,,,,,,,,,,
,,,,,,,,,,,,,,,,p,1,24.583,,,,,,,,line_hard_TP/20_3_2.0944_none_left_col_7_row_13.jpg,1,p,hard,line,60245c7c3df42d131232cedb,50,female,2021-05-03_11h56.27.782,search_v5,2021.1.2,Win32,60.0240096,,,space,0.589,0,1,1,90,1,,,,,,,,,,,,,,,,,
,,,,,,,,,,,,,,,,p,1,1.101,,,,,,,,line_easy_TP/10_2_0.5236_all_right_col_18_row_7.jpg,1,p,easy,line,60245c7c3df42d131232cedb,50,female,2021-05-03_11h56.27.782,search_v5,2021.1.2,Win32,60.0240096,,,space,0.516,0,2,2,2,1,,,,,,,,,,,,,,,,,
,,,,,,,,,,,,,,,,p,1,2.196,,,,,,,,line_hard_TP/19_4_2.0944_none_right_col_16_row_3.jpg,1,p,hard,line,60245c7c3df42d131232cedb,50,female,2021-05-03_11h56.27.782,search_v5,2021.1.2,Win32,60.0240096,,,space,0.537,0,3,3,89,1,,,,,,,,,,,,,,,,,
,,,,,,,,,,,,,,,,a,1,7.654,,,,,,,,line_easy_TA/19_2_NaN_all_absent.jpg,0,a,easy,line,60245c7c3df42d131232cedb,50,female,2021-05-03_11h56.27.782,search_v5,2021.1.2,Win32,60.0240096,,,space,0.485,0,4,4,18,1,,,,,,,,,,,,,,,,,
,,,,,,,,,,,,,,,,p,1,17.717,,,,,,,,line_mid_TP/1_4_1.1424_none_left_col_7_row_9.jpg,1,p,mid,line,60245c7c3df42d131232cedb,50,female,2021-05-03_11h56.27.782,search_v5,2021.1.2,Win32,60.0240096,,,space,0.555,0,5,5,129,1,,,,,,,,,,,,,,,,,
,,,,,,,,,,,,,,,,a,1,9.034,,,,,,,,line_easy_TA/2_3_NaN_all_absent.jpg,0,a,easy,line,60245c7c3df42d131232cedb,50,female,2021-05-03_11h56.27.782,search_v5,2021.1.2,Win32,60.0240096,,,space,0.463,0,6,6,23,1,,,,,,,,,,,,,,,,,
,,,,,,,,,,,,,,,,p,1,1.671,,,,,,,,line_easy_TP/5_1_0.5236_all_left_col_5_row_3.jpg,1,p,easy,line,60245c7c3df42d131232cedb,50,female,2021-05-03_11h56.27.782,search_v5,2021.1.2,Win32,60.0240096,,,space,0.639,0,7,7,50,1,,,,,,,,,,,,,,,,,
,,,,,,,,,,,,,,,,p,0,19.236,,,,,,,,line_hard_TA/15_4_NaN_none_absent.jpg,0,a,hard,line,60245c7c3df42d131232cedb,50,female,2021-05-03_11h56.27.782,search_v5,2021.1.2,Win32,60.0240096,,,space,1.121,0,8,8,63,1,,,,,,,,,,,,,,,,,
,,,,,,,,,,,,,,,,p,0,45.912,,,,,,,,line_hard_TA/14_2_NaN_none_absent.jpg,0,a,hard,line,60245c7c3df42d131232cedb,50,female,2021-05-03_11h56.27.782,search_v5,2021.1.2,Win32,60.0240096,,,space,11.138,0,9,9,60,1,,,,,,,,,,,,,,,,,
,,,,,,,,,,,,,,,,a,1,35.259,,,,,,,,line_hard_TA/15_1_NaN_none_absent.jpg,0,a,hard,line,60245c7c3df42d131232cedb,50,female,2021-05-03_11h56.27.782,search_v5,2021.1.2,Win32,60.0240096,,,space,0.548,0,10,10,61,1,,,,,,,,,,,,,,,,,
,,,,,,,,,,,,,,,,a,1,16.963,,,,,,,,line_mid_TA/12_1_NaN_all_absent.jpg,0,a,mid,line,60245c7c3df42d131232cedb,50,female,2021-05-03_11h56.27.782,search_v5,2021.1.2,Win32,60.0240096,,,space,0.484,0,11,11,109,1,,,,,,,,,,,,,,,,,
,,,,,,,,,,,,,,,,a,1,10.323,,,,,,,,line_mid_TA/3_3_NaN_all_absent.jpg,0,a,mid,line,60245c7c3df42d131232cedb,50,female,2021-05-03_11h56.27.782,search_v5,2021.1.2,Win32,60.0240096,,,space,0.517,0,12,12,115,1,,,,,,,,,,,,,,,,,
,,,,,,,,,,,,,,,,p,1,20.93,,,,,,,,line_mid_TP/2_3_1.1424_none_right_col_21_row_15.jpg,1,p,mid,line,60245c7c3df42d131232cedb,50,female,2021-05-03_11h56.27.782,search_v5,2021.1.2,Win32,60.0240096,,,space,0.62,0,13,13,132,1,,,,,,,,,,,,,,,,,
,,,,,,,,,,,,,,,,a,1,9.816,,,,,,,,line_easy_TA/21_4_NaN_all_absent.jpg,0,a,easy,line,60245c7c3df42d131232cedb,50,female,2021-05-03_11h56.27.782,search_v5,2021.1.2,Win32,60.0240096,,,space,0.503,0,14,14,21,1,,,,,,,,,,,,,,,,,
,,,,,,,,,,,,,,,,p,1,3.5,,,,,,,,line_mid_TP/8_1_1.1424_none_left_col_6_row_14.jpg,1,p,mid,line,60245c7c3df42d131232cedb,50,female,2021-05-03_11h56.27.782,search_v5,2021.1.2,Win32,60.0240096,,,space,0.634,0,15,15,148,1,,,,,,,,,,,,,,,,,
,,,,,,,,,,,,,,,,a,1,5.674,,,,,,,,line_easy_TA/11_1_NaN_all_absent.jpg,0,a,easy,line,60245c7c3df42d131232cedb,50,female,2021-05-03_11h56.27.782,search_v5,2021.1.2,Win32,60.0240096,,,space,0.533,0,16,16,1,1,,,,,,,,,,,,,,,,,
,,,,,,,,,,,,,,,,a,1,24.764,,,,,,,,line_hard_TA/1_4_NaN_none_absent.jpg,0,a,hard,line,60245c7c3df42d131232cedb,50,female,2021-05-03_11h56.27.782,search_v5,2021.1.2,Win32,60.0240096,,,space,0.672,0,17,17,67,1,,,,,,,,,,,,,,,,,
,,,,,,,,,,,,,,,,p,1,3.349,,,,,,,,line_mid_TP/4_3_1.7453_all_left_col_9_row_4.jpg,1,p,mid,line,60245c7c3df42d131232cedb,50,female,2021-05-03_11h56.27.782,search_v5,2021.1.2,Win32,60.0240096,,,space,0.421,0,18,18,136,1,,,,,,,,,,,,,,,,,
,,,,,,,,,,,,,,,,p,1,3.715,,,,,,,,line_easy_TP/1_0_0.5236_all_left_col_2_row_16.jpg,1,p,easy,line,60245c7c3df42d131232cedb,50,female,2021-05-03_11h56.27.782,search_v5,2021.1.2,Win32,60.0240096,,,space,0.352,0,19,19,43,1,,,,,,,,,,,,,,,,,
,,,,,,,,,,,,,,,,a,0,29.024,,,,,,,,line_hard_TP/20_4_2.0944_none_left_col_9_row_16.jpg,1,p,hard,line,60245c7c3df42d131232cedb,50,female,2021-05-03_11h56.27.782,search_v5,2021.1.2,Win32,60.0240096,,,space,2.121,0,20,20,91,1,,,,,,,,,,,,,,,,,
,,,,,,,,,,,,,,,,a,1,29.795,,,,,,,,line_mid_TA/1_2_NaN_all_absent.jpg,0,a,mid,line,60245c7c3df42d131232cedb,50,female,2021-05-03_11h56.27.782,search_v5,2021.1.2,Win32,60.0240096,,,space,0.59,0,21,21,110,1,,,,,,,,,,,,,,,,,
,,,,,,,,,,,,,,,,a,1,16.264,,,,,,,,line_hard_TA/3_2_NaN_none_absent.jpg,0,a,hard,line,60245c7c3df42d131232cedb,50,female,2021-05-03_11h56.27.782,search_v5,2021.1.2,Win32,60.0240096,,,space,0.49,0,22,22,76,1,,,,,,,,,,,,,,,,,
,,,,,,,,,,,,,,,,a,1,5.94,,,,,,,,line_easy_TA/3_1_NaN_all_absent.jpg,0,a,easy,line,60245c7c3df42d131232cedb,50,female,2021-05-03_11h56.27.782,search_v5,2021.1.2,Win32,60.0240096,,,space,0.586,0,23,23,26,1,,,,,,,,,,,,,,,,,
,,,,,,,,,,,,,,,,a,1,12.976,,,,,,,,line_mid_TA/2_2_NaN_none_absent.jpg,0,a,mid,line,60245c7c3df42d131232cedb,50,female,2021-05-03_11h56.27.782,search_v5,2021.1.2,Win32,60.0240096,,,space,0.554,0,24,24,112,1,,,,,,,,,,,,,,,,,
,,,,,,,,,,,,,,,,a,1,6.303,,,,,,,,line_easy_TA/23_4_NaN_all_absent.jpg,0,a,easy,line,60245c7c3df42d131232cedb,50,female,2021-05-03_11h56.27.782,search_v5,2021.1.2,Win32,60.0240096,,,space,0.552,0,25,25,22,1,,,,,,,,,,,,,,,,,
,,,,,,,,,,,,,,,,p,1,1.934,,,,,,,,line_easy_TP/8_1_0.5236_all_right_col_14_row_4.jpg,1,p,easy,line,60245c7c3df42d131232cedb,50,female,2021-05-03_11h56.27.782,search_v5,2021.1.2,Win32,60.0240096,,,space,0.44,0,26,26,55,1,,,,,,,,,,,,,,,,,
,,,,,,,,,,,,,,,,a,1,13.306,,,,,,,,line_hard_TA/11_3_NaN_none_absent.jpg,0,a,hard,line,60245c7c3df42d131232cedb,50,female,2021-05-03_11h56.27.782,search_v5,2021.1.2,Win32,60.0240096,,,space,0.484,0,27,27,5,1,,,,,,,,,,,,,,,,,
,,,,,,,,,,,,,,,,a,1,9.96,,,,,,,,line_hard_TA/20_2_NaN_none_absent.jpg,0,a,hard,line,60245c7c3df42d131232cedb,50,female,2021-05-03_11h56.27.782,search_v5,2021.1.2,Win32,60.0240096,,,space,0.489,0,28,28,69,1,,,,,,,,,,,,,,,,,
,,,,,,,,,,,,,,,,p,1,7.961,,,,,,,,line_mid_TP/4_1_1.7453_all_left_col_4_row_6.jpg,1,p,mid,line,60245c7c3df42d131232cedb,50,female,2021-05-03_11h56.27.782,search_v5,2021.1.2,Win32,60.0240096,,,space,0.388,0,29,29,135,1,,,,,,,,,,,,,,,,,
,,,,,,,,,,,,,,,,a,1,13.366,,,,,,,,line_mid_TA/11_2_NaN_all_absent.jpg,0,a,mid,line,60245c7c3df42d131232cedb,50,female,2021-05-03_11h56.27.782,search_v5,2021.1.2,Win32,60.0240096,,,space,0.471,0,30,30,106,1,,,,,,,,,,,,,,,,,
,,,,,,,,,,,,,,,,a,1,3.581,,,,,,,,line_easy_TA/2_4_NaN_all_absent.jpg,0,a,easy,line,60245c7c3df42d131232cedb,50,female,2021-05-03_11h56.27.782,search_v5,2021.1.2,Win32,60.0240096,,,space,0.504,0,31,31,24,1,,,,,,,,,,,,,,,,,
,,,,,,,,,,,,,,,,p,1,2.412,,,,,,,,line_mid_TP/2_4_1.1424_none_right_col_18_row_13.jpg,1,p,mid,line,60245c7c3df42d131232cedb,50,female,2021-05-03_11h56.27.782,search_v5,2021.1.2,Win32,60.0240096,,,space,0.368,0,32,32,133,1,,,,,,,,,,,,,,,,,
,,,,,,,,,,,,,,,,a,0,15.024,,,,,,,,line_hard_TP/21_3_2.0944_none_right_col_15_row_13.jpg,1,p,hard,line,60245c7c3df42d131232cedb,50,female,2021-05-03_11h56.27.782,search_v5,2021.1.2,Win32,60.0240096,,,space,1.848,0,33,33,92,1,,,,,,,,,,,,,,,,,
,,,,,,,,,,,,,,,,a,1,7.255,,,,,,,,line_easy_TA/3_4_NaN_all_absent.jpg,0,a,easy,line,60245c7c3df42d131232cedb,50,female,2021-05-03_11h56.27.782,search_v5,2021.1.2,Win32,60.0240096,,,space,1.56,0,34,34,27,1,,,,,,,,,,,,,,,,,
,,,,,,,,,,,,,,,,a,1,12.729,,,,,,,,line_mid_TA/4_0_NaN_none_absent.jpg,0,a,mid,line,60245c7c3df42d131232cedb,50,female,2021-05-03_11h56.27.782,search_v5,2021.1.2,Win32,60.0240096,,,space,0.421,0,35,35,117,1,,,,,,,,,,,,,,,,,
,,,,,,,,,,,,,,,,p,1,2.398,,,,,,,,line_mid_TP/6_0_1.1424_none_left_col_8_row_9.jpg,1,p,mid,line,60245c7c3df42d131232cedb,50,female,2021-05-03_11h56.27.782,search_v5,2021.1.2,Win32,60.0240096,,,space,0.485,0,36,36,141,1,,,,,,,,,,,,,,,,,
,,,,,,,,,,,,,,,,p,1,0.965,,,,,,,,line_easy_TP/13_3_0.5236_all_left_col_4_row_12.jpg,1,p,easy,line,60245c7c3df42d131232cedb,50,female,2021-05-03_11h56.27.782,search_v5,2021.1.2,Win32,60.0240096,,,space,0.421,0,37,37,36,1,,,,,,,,,,,,,,,,,
,,,,,,,,,,,,,,,,a,0,13.68,,,,,,,,line_hard_TP/10_1_2.0944_none_left_col_10_row_11.jpg,1,p,hard,line,60245c7c3df42d131232cedb,50,female,2021-05-03_11h56.27.782,search_v5,2021.1.2,Win32,60.0240096,,,space,2.501,0,38,38,6,1,,,,,,,,,,,,,,,,,
,,,,,,,,,,,,,,,,a,0,19.55,,,,,,,,line_mid_TP/2_1_1.7453_all_right_col_14_row_16.jpg,1,p,mid,line,60245c7c3df42d131232cedb,50,female,2021-05-03_11h56.27.782,search_v5,2021.1.2,Win32,60.0240096,,,space,3.492,0,39,39,131,1,,,,,,,,,,,,,,,,,
,,,,,,,,,,,,,,,,p,1,10.481,,,,,,,,line_hard_TP/12_2_2.0944_none_right_col_13_row_8.jpg,1,p,hard,line,60245c7c3df42d131232cedb,50,female,2021-05-03_11h56.27.782,search_v5,2021.1.2,Win32,60.0240096,,,space,0.687,0,40,40,81,1,,,,,,,,,,,,,,,,,
,,,,,,,,,,,,,,,,a,1,4.21,,,,,,,,line_easy_TA/4_3_NaN_all_absent.jpg,0,a,easy,line,60245c7c3df42d131232cedb,50,female,2021-05-03_11h56.27.782,search_v5,2021.1.2,Win32,60.0240096,,,space,0.861,0,41,41,28,1,,,,,,,,,,,,,,,,,
,,,,,,,,,,,,,,,,a,1,15.938,,,,,,,,line_hard_TA/4_2_NaN_none_absent.jpg,0,a,hard,line,60245c7c3df42d131232cedb,50,female,2021-05-03_11h56.27.782,search_v5,2021.1.2,Win32,60.0240096,,,space,0.784,0,42,42,78,1,,,,,,,,,,,,,,,,,
,,,,,,,,,,,,,,,,p,1,1.782,,,,,,,,line_mid_TP/5_2_1.1424_none_right_col_17_row_9.jpg,1,p,mid,line,60245c7c3df42d131232cedb,50,female,2021-05-03_11h56.27.782,search_v5,2021.1.2,Win32,60.0240096,,,space,0.489,0,43,43,140,1,,,,,,,,,,,,,,,,,
,,,,,,,,,,,,,,,,a,1,8.468,,,,,,,,line_hard_TA/23_2_NaN_none_absent.jpg,0,a,hard,line,60245c7c3df42d131232cedb,50,female,2021-05-03_11h56.27.782,search_v5,2021.1.2,Win32,60.0240096,,,space,0.452,0,44,44,74,1,,,,,,,,,,,,,,,,,
,,,,,,,,,,,,,,,,a,0,7.119,,,,,,,,line_mid_TP/7_3_1.7453_all_right_col_15_row_2.jpg,1,p,mid,line,60245c7c3df42d131232cedb,50,female,2021-05-03_11h56.27.782,search_v5,2021.1.2,Win32,60.0240096,,,space,3.153,0,45,45,146,1,,,,,,,,,,,,,,,,,
,,,,,,,,,,,,,,,,a,1,8.409,,,,,,,,line_mid_TA/11_1_NaN_none_absent.jpg,0,a,mid,line,60245c7c3df42d131232cedb,50,female,2021-05-03_11h56.27.782,search_v5,2021.1.2,Win32,60.0240096,,,space,0.566,0,46,46,105,1,,,,,,,,,,,,,,,,,
,,,,,,,,,,,,,,,,a,1,8.757,,,,,,,,line_hard_TA/22_1_NaN_none_absent.jpg,0,a,hard,line,60245c7c3df42d131232cedb,50,female,2021-05-03_11h56.27.782,search_v5,2021.1.2,Win32,60.0240096,,,space,0.43,0,47,47,70,1,,,,,,,,,,,,,,,,,
,,,,,,,,,,,,,,,,p,1,2.11,,,,,,,,line_easy_TP/14_4_0.5236_all_left_col_10_row_13.jpg,1,p,easy,line,60245c7c3df42d131232cedb,50,female,2021-05-03_11h56.27.782,search_v5,2021.1.2,Win32,60.0240096,,,space,0.454,0,48,48,38,1,,,,,,,,,,,,,,,,,
,,,,,,,,,,,,,,,,p,1,0.936,,,,,,,,line_easy_TP/6_4_0.5236_all_right_col_18_row_7.jpg,1,p,easy,line,60245c7c3df42d131232cedb,50,female,2021-05-03_11h56.27.782,search_v5,2021.1.2,Win32,60.0240096,,,space,0.358,0,49,49,52,1,,,,,,,,,,,,,,,,,
,,,,,,,,,,,,,,,,p,1,2.812,,,,,,,,line_mid_TP/9_1_1.7453_all_left_col_4_row_15.jpg,1,p,mid,line,60245c7c3df42d131232cedb,50,female,2021-05-03_11h56.27.782,search_v5,2021.1.2,Win32,60.0240096,,,space,0.386,0,50,50,149,1,,,,,,,,,,,,,,,,,
,,,,,,,,,,,,,,,,a,1,4.044,,,,,,,,line_easy_TA/5_4_NaN_all_absent.jpg,0,a,easy,line,60245c7c3df42d131232cedb,50,female,2021-05-03_11h56.27.782,search_v5,2021.1.2,Win32,60.0240096,,,space,0.485,0,51,51,31,1,,,,,,,,,,,,,,,,,
,,,,,,,,,,,,,,,,p,1,1.467,,,,,,,,line_easy_TP/19_1_0.5236_all_left_col_6_row_1.jpg,1,p,easy,line,60245c7c3df42d131232cedb,50,female,2021-05-03_11h56.27.782,search_v5,2021.1.2,Win32,60.0240096,,,space,0.55,0,52,52,41,1,,,,,,,,,,,,,,,,,
,,,,,,,,,,,,,,,,p,1,2.135,,,,,,,,line_mid_TP/6_3_1.7453_all_right_col_13_row_7.jpg,1,p,mid,line,60245c7c3df42d131232cedb,50,female,2021-05-03_11h56.27.782,search_v5,2021.1.2,Win32,60.0240096,,,space,0.408,0,53,53,143,1,,,,,,,,,,,,,,,,,
,,,,,,,,,,,,,,,,a,0,9.928,,,,,,,,line_hard_TP/18_1_2.0944_none_left_col_4_row_3.jpg,1,p,hard,line,60245c7c3df42d131232cedb,50,female,2021-05-03_11h56.27.782,search_v5,2021.1.2,Win32,60.0240096,,,space,2.789,0,54,54,87,1,,,,,,,,,,,,,,,,,
,,,,,,,,,,,,,,,,p,1,4.094,,,,,,,,line_hard_TP/14_1_2.0944_none_right_col_15_row_6.jpg,1,p,hard,line,60245c7c3df42d131232cedb,50,female,2021-05-03_11h56.27.782,search_v5,2021.1.2,Win32,60.0240096,,,space,0.437,0,55,55,83,1,,,,,,,,,,,,,,,,,
,,,,,,,,,,,,,,,,p,1,0.751,,,,,,,,line_easy_TP/19_3_0.5236_all_right_col_17_row_3.jpg,1,p,easy,line,60245c7c3df42d131232cedb,50,female,2021-05-03_11h56.27.782,search_v5,2021.1.2,Win32,60.0240096,,,space,0.423,0,56,56,42,1,,,,,,,,,,,,,,,,,
,,,,,,,,,,,,,,,,a,0,21.708,,,,,,,,line_hard_TP/14_3_2.0944_none_right_col_19_row_11.jpg,1,p,hard,line,60245c7c3df42d131232cedb,50,female,2021-05-03_11h56.27.782,search_v5,2021.1.2,Win32,60.0240096,,,space,2.282,0,57,57,84,1,,,,,,,,,,,,,,,,,
,,,,,,,,,,,,,,,,p,1,5.282,,,,,,,,line_mid_TP/6_4_1.7453_all_left_col_6_row_5.jpg,1,p,mid,line,60245c7c3df42d131232cedb,50,female,2021-05-03_11h56.27.782,search_v5,2021.1.2,Win32,60.0240096,,,space,0.501,0,58,58,144,1,,,,,,,,,,,,,,,,,
,,,,,,,,,,,,,,,,p,1,17.739,,,,,,,,line_hard_TP/9_3_2.0944_none_right_col_16_row_16.jpg,1,p,hard,line,60245c7c3df42d131232cedb,50,female,2021-05-03_11h56.27.782,search_v5,2021.1.2,Win32,60.0240096,,,space,0.452,0,59,59,103,1,,,,,,,,,,,,,,,,,
,,,,,,,,,,,,,,,,a,1,8.816,,,,,,,,line_mid_TA/5_3_NaN_none_absent.jpg,0,a,mid,line,60245c7c3df42d131232cedb,50,female,2021-05-03_11h56.27.782,search_v5,2021.1.2,Win32,60.0240096,,,space,0.489,0,60,60,119,1,,,,,,,,,,,,,,,,,
,,,,,,,,,,,,,,,,a,1,3.845,,,,,,,,line_easy_TA/5_2_NaN_all_absent.jpg,0,a,easy,line,60245c7c3df42d131232cedb,50,female,2021-05-03_11h56.27.782,search_v5,2021.1.2,Win32,60.0240096,,,space,0.517,0,61,61,30,1,,,,,,,,,,,,,,,,,
,,,,,,,,,,,,,,,,p,1,1.602,,,,,,,,line_easy_TP/6_3_0.5236_all_left_col_10_row_2.jpg,1,p,easy,line,60245c7c3df42d131232cedb,50,female,2021-05-03_11h56.27.782,search_v5,2021.1.2,Win32,60.0240096,,,space,0.452,0,62,62,51,1,,,,,,,,,,,,,,,,,
,,,,,,,,,,,,,,,,a,1,13.371,,,,,,,,line_hard_TA/16_4_NaN_none_absent.jpg,0,a,hard,line,60245c7c3df42d131232cedb,50,female,2021-05-03_11h56.27.782,search_v5,2021.1.2,Win32,60.0240096,,,space,0.437,0,63,63,64,1,,,,,,,,,,,,,,,,,
,,,,,,,,,,,,,,,,a,1,5.082,,,,,,,,line_mid_TA/3_4_NaN_none_absent.jpg,0,a,mid,line,60245c7c3df42d131232cedb,50,female,2021-05-03_11h56.27.782,search_v5,2021.1.2,Win32,60.0240096,,,space,0.44,0,64,64,116,1,,,,,,,,,,,,,,,,,
,,,,,,,,,,,,,,,,a,1,4.431,,,,,,,,line_easy_TA/12_3_NaN_all_absent.jpg,0,a,easy,line,60245c7c3df42d131232cedb,50,female,2021-05-03_11h56.27.782,search_v5,2021.1.2,Win32,60.0240096,,,space,0.437,0,65,65,12,1,,,,,,,,,,,,,,,,,
,,,,,,,,,,,,,,,,p,1,1.599,,,,,,,,line_easy_TP/18_3_0.5236_all_right_col_20_row_10.jpg,1,p,easy,line,60245c7c3df42d131232cedb,50,female,2021-05-03_11h56.27.782,search_v5,2021.1.2,Win32,60.0240096,,,space,0.456,0,66,66,40,1,,,,,,,,,,,,,,,,,
,,,,,,,,,,,,,,,,a,1,4.809,,,,,,,,line_easy_TA/16_1_NaN_all_absent.jpg,0,a,easy,line,60245c7c3df42d131232cedb,50,female,2021-05-03_11h56.27.782,search_v5,2021.1.2,Win32,60.0240096,,,space,0.489,0,67,67,14,1,,,,,,,,,,,,,,,,,
,,,,,,,,,,,,,,,,p,1,1.308,,,,,,,,line_easy_TP/12_1_0.5236_all_right_col_15_row_4.jpg,1,p,easy,line,60245c7c3df42d131232cedb,50,female,2021-05-03_11h56.27.782,search_v5,2021.1.2,Win32,60.0240096,,,space,0.432,0,68,68,35,1,,,,,,,,,,,,,,,,,
,,,,,,,,,,,,,,,,p,1,2.336,,,,,,,,line_mid_TP/5_0_1.1424_none_left_col_7_row_16.jpg,1,p,mid,line,60245c7c3df42d131232cedb,50,female,2021-05-03_11h56.27.782,search_v5,2021.1.2,Win32,60.0240096,,,space,0.467,0,69,69,138,1,,,,,,,,,,,,,,,,,
,,,,,,,,,,,,,,,,p,1,1.353,,,,,,,,line_hard_TP/2_2_2.0944_none_right_col_19_row_11.jpg,1,p,hard,line,60245c7c3df42d131232cedb,50,female,2021-05-03_11h56.27.782,search_v5,2021.1.2,Win32,60.0240096,,,space,0.458,0,70,70,96,1,,,,,,,,,,,,,,,,,
,,,,,,,,,,,,,,,,p,1,1.514,,,,,,,,line_mid_TP/7_4_1.7453_all_right_col_17_row_6.jpg,1,p,mid,line,60245c7c3df42d131232cedb,50,female,2021-05-03_11h56.27.782,search_v5,2021.1.2,Win32,60.0240096,,,space,0.47,0,71,71,147,1,,,,,,,,,,,,,,,,,
,,,,,,,,,,,,,,,,a,1,11.031,,,,,,,,line_hard_TA/20_1_NaN_none_absent.jpg,0,a,hard,line,60245c7c3df42d131232cedb,50,female,2021-05-03_11h56.27.782,search_v5,2021.1.2,Win32,60.0240096,,,space,0.492,0,72,72,68,1,,,,,,,,,,,,,,,,,
,,,,,,,,,,,,,,,,p,1,1.683,,,,,,,,line_mid_TP/5_1_1.1424_none_right_col_20_row_16.jpg,1,p,mid,line,60245c7c3df42d131232cedb,50,female,2021-05-03_11h56.27.782,search_v5,2021.1.2,Win32,60.0240096,,,space,0.455,0,73,73,139,1,,,,,,,,,,,,,,,,,
,,,,,,,,,,,,,,,,p,1,6.978,,,,,,,,line_hard_TP/24_2_2.0944_none_left_col_9_row_8.jpg,1,p,hard,line,60245c7c3df42d131232cedb,50,female,2021-05-03_11h56.27.782,search_v5,2021.1.2,Win32,60.0240096,,,space,0.424,0,74,74,94,1,,,,,,,,,,,,,,,,,
,,,,,,,,,,,,,,,,p,1,1.847,,,,,,,,line_mid_TP/1_0_1.7453_all_right_col_13_row_9.jpg,1,p,mid,line,60245c7c3df42d131232cedb,50,female,2021-05-03_11h56.27.782,search_v5,2021.1.2,Win32,60.0240096,,,space,0.441,0,75,75,127,1,,,,,,,,,,,,,,,,,
,,,,,,,,,,,,,,,,a,1,10.812,,,,,,,,line_mid_TA/3_0_NaN_all_absent.jpg,0,a,mid,line,60245c7c3df42d131232cedb,50,female,2021-05-03_11h56.27.782,search_v5,2021.1.2,Win32,60.0240096,,,space,0.474,0,76,76,113,1,,,,,,,,,,,,,,,,,
,,,,,,,,,,,,,,,,a,1,7.6,,,,,,,,line_mid_TA/10_4_NaN_all_absent.jpg,0,a,mid,line,60245c7c3df42d131232cedb,50,female,2021-05-03_11h56.27.782,search_v5,2021.1.2,Win32,60.0240096,,,space,0.476,0,77,77,104,1,,,,,,,,,,,,,,,,,
,,,,,,,,,,,,,,,,p,1,5.057,,,,,,,,line_hard_TP/8_3_2.0944_none_left_col_8_row_2.jpg,1,p,hard,line,60245c7c3df42d131232cedb,50,female,2021-05-03_11h56.27.782,search_v5,2021.1.2,Win32,60.0240096,,,space,0.45,0,78,78,101,1,,,,,,,,,,,,,,,,,
,,,,,,,,,,,,,,,,a,1,8.955,,,,,,,,line_hard_TA/15_3_NaN_none_absent.jpg,0,a,hard,line,60245c7c3df42d131232cedb,50,female,2021-05-03_11h56.27.782,search_v5,2021.1.2,Win32,60.0240096,,,space,0.44,0,79,79,62,1,,,,,,,,,,,,,,,,,
,,,,,,,,,,,,,,,,a,0,9.347,,,,,,,,line_hard_TP/6_0_2.0944_none_right_col_18_row_7.jpg,1,p,hard,line,60245c7c3df42d131232cedb,50,female,2021-05-03_11h56.27.782,search_v5,2021.1.2,Win32,60.0240096,,,space,2.086,0,80,80,98,1,,,,,,,,,,,,,,,,,
,,,,,,,,,,,,,,,,p,1,1.662,,,,,,,,line_mid_TP/6_2_1.1424_none_left_col_2_row_6.jpg,1,p,mid,line,60245c7c3df42d131232cedb,50,female,2021-05-03_11h56.27.782,search_v5,2021.1.2,Win32,60.0240096,,,space,0.532,0,81,81,142,1,,,,,,,,,,,,,,,,,
,,,,,,,,,,,,,,,,a,1,14.032,,,,,,,,line_hard_TA/24_3_NaN_none_absent.jpg,0,a,hard,line,60245c7c3df42d131232cedb,50,female,2021-05-03_11h56.27.782,search_v5,2021.1.2,Win32,60.0240096,,,space,0.466,0,82,82,75,1,,,,,,,,,,,,,,,,,
,,,,,,,,,,,,,,,,a,1,3.157,,,,,,,,line_easy_TA/10_3_NaN_all_absent.jpg,0,a,easy,line,60245c7c3df42d131232cedb,50,female,2021-05-03_11h56.27.782,search_v5,2021.1.2,Win32,60.0240096,,,space,0.988,0,83,83,0,1,,,,,,,,,,,,,,,,,
,,,,,,,,,,,,,,,,p,1,5.163,,,,,,,,line_hard_TP/5_0_2.0944_none_right_col_17_row_1.jpg,1,p,hard,line,60245c7c3df42d131232cedb,50,female,2021-05-03_11h56.27.782,search_v5,2021.1.2,Win32,60.0240096,,,space,0.439,0,84,84,97,1,,,,,,,,,,,,,,,,,
,,,,,,,,,,,,,,,,a,1,3.25,,,,,,,,line_easy_TA/1_2_NaN_all_absent.jpg,0,a,easy,line,60245c7c3df42d131232cedb,50,female,2021-05-03_11h56.27.782,search_v5,2021.1.2,Win32,60.0240096,,,space,0.504,0,85,85,19,1,,,,,,,,,,,,,,,,,
,,,,,,,,,,,,,,,,a,1,3.657,,,,,,,,line_easy_TA/7_1_NaN_all_absent.jpg,0,a,easy,line,60245c7c3df42d131232cedb,50,female,2021-05-03_11h56.27.782,search_v5,2021.1.2,Win32,60.0240096,,,space,0.519,0,86,86,32,1,,,,,,,,,,,,,,,,,
,,,,,,,,,,,,,,,,a,0,10.988,,,,,,,,line_hard_TP/8_2_2.0944_none_left_col_4_row_12.jpg,1,p,hard,line,60245c7c3df42d131232cedb,50,female,2021-05-03_11h56.27.782,search_v5,2021.1.2,Win32,60.0240096,,,space,2.504,0,87,87,100,1,,,,,,,,,,,,,,,,,
,,,,,,,,,,,,,,,,a,0,17.412,,,,,,,,line_hard_TP/6_2_2.0944_none_left_col_10_row_2.jpg,1,p,hard,line,60245c7c3df42d131232cedb,50,female,2021-05-03_11h56.27.782,search_v5,2021.1.2,Win32,60.0240096,,,space,2.202,0,88,88,99,1,,,,,,,,,,,,,,,,,
,,,,,,,,,,,,,,,,p,1,1.952,,,,,,,,line_mid_TP/4_4_1.1424_none_left_col_3_row_10.jpg,1,p,mid,line,60245c7c3df42d131232cedb,50,female,2021-05-03_11h56.27.782,search_v5,2021.1.2,Win32,60.0240096,,,space,0.646,0,89,89,137,1,,,,,,,,,,,,,,,,,
,,,,,,,,,,,,,,,,a,1,11.431,,,,,,,,line_mid_TA/6_1_NaN_none_absent.jpg,0,a,mid,line,60245c7c3df42d131232cedb,50,female,2021-05-03_11h56.27.782,search_v5,2021.1.2,Win32,60.0240096,,,space,0.512,0,90,90,121,1,,,,,,,,,,,,,,,,,
,,,,,,,,,,,,,,,,p,1,1.259,,,,,,,,line_easy_TP/1_1_0.5236_all_left_col_8_row_5.jpg,1,p,easy,line,60245c7c3df42d131232cedb,50,female,2021-05-03_11h56.27.782,search_v5,2021.1.2,Win32,60.0240096,,,space,0.469,0,91,91,44,1,,,,,,,,,,,,,,,,,
,,,,,,,,,,,,,,,,a,1,10.943,,,,,,,,line_hard_TA/4_0_NaN_none_absent.jpg,0,a,hard,line,60245c7c3df42d131232cedb,50,female,2021-05-03_11h56.27.782,search_v5,2021.1.2,Win32,60.0240096,,,space,0.553,0,92,92,77,1,,,,,,,,,,,,,,,,,
,,,,,,,,,,,,,,,,a,1,2.281,,,,,,,,line_easy_TA/21_1_NaN_all_absent.jpg,0,a,easy,line,60245c7c3df42d131232cedb,50,female,2021-05-03_11h56.27.782,search_v5,2021.1.2,Win32,60.0240096,,,space,0.635,0,93,93,20,1,,,,,,,,,,,,,,,,,
,,,,,,,,,,,,,,,,p,1,6.964,,,,,,,,line_hard_TP/12_4_2.0944_none_right_col_17_row_12.jpg,1,p,hard,line,60245c7c3df42d131232cedb,50,female,2021-05-03_11h56.27.782,search_v5,2021.1.2,Win32,60.0240096,,,space,0.507,0,94,94,82,1,,,,,,,,,,,,,,,,,
,,,,,,,,,,,,,,,,a,1,9.898,,,,,,,,line_hard_TA/22_4_NaN_none_absent.jpg,0,a,hard,line,60245c7c3df42d131232cedb,50,female,2021-05-03_11h56.27.782,search_v5,2021.1.2,Win32,60.0240096,,,space,0.556,0,95,95,72,1,,,,,,,,,,,,,,,,,
,,,,,,,,,,,,,,,,p,1,1.379,,,,,,,,line_easy_TP/18_2_0.5236_all_right_col_15_row_1.jpg,1,p,easy,line,60245c7c3df42d131232cedb,50,female,2021-05-03_11h56.27.782,search_v5,2021.1.2,Win32,60.0240096,,,space,0.488,0,96,96,39,1,,,,,,,,,,,,,,,,,
,,,,,,,,,,,,,,,,p,1,0.749,,,,,,,,line_easy_TP/21_2_0.5236_all_right_col_16_row_1.jpg,1,p,easy,line,60245c7c3df42d131232cedb,50,female,2021-05-03_11h56.27.782,search_v5,2021.1.2,Win32,60.0240096,,,space,0.488,0,97,97,45,1,,,,,,,,,,,,,,,,,
,,,,,,,,,,,,,,,,p,1,0.812,,,,,,,,line_easy_TP/7_4_0.5236_all_left_col_6_row_11.jpg,1,p,easy,line,60245c7c3df42d131232cedb,50,female,2021-05-03_11h56.27.782,search_v5,2021.1.2,Win32,60.0240096,,,space,0.474,0,98,98,54,1,,,,,,,,,,,,,,,,,
,,,,,,,,,,,,,,,,a,1,13.167,,,,,,,,line_mid_TA/7_1_NaN_all_absent.jpg,0,a,mid,line,60245c7c3df42d131232cedb,50,female,2021-05-03_11h56.27.782,search_v5,2021.1.2,Win32,60.0240096,,,space,0.471,0,99,99,122,1,,,,,,,,,,,,,,,,,
,,,,,,,,,,,,,,,,a,1,2.188,,,,,,,,line_easy_TA/17_2_NaN_all_absent.jpg,0,a,easy,line,60245c7c3df42d131232cedb,50,female,2021-05-03_11h56.27.782,search_v5,2021.1.2,Win32,60.0240096,,,space,0.563,0,100,100,17,1,,,,,,,,,,,,,,,,,
,,,,,,,,,,,,,,,,a,0,15.166,,,,,,,,line_hard_TP/17_1_2.0944_none_right_col_18_row_9.jpg,1,p,hard,line,60245c7c3df42d131232cedb,50,female,2021-05-03_11h56.27.782,search_v5,2021.1.2,Win32,60.0240096,,,space,0.519,0,101,101,85,1,,,,,,,,,,,,,,,,,
,,,,,,,,,,,,,,,,a,1,16.395,,,,,,,,line_mid_TA/1_3_NaN_all_absent.jpg,0,a,mid,line,60245c7c3df42d131232cedb,50,female,2021-05-03_11h56.27.782,search_v5,2021.1.2,Win32,60.0240096,,,space,0.483,0,102,102,111,1,,,,,,,,,,,,,,,,,
,,,,,,,,,,,,,,,,a,0,7.721,,,,,,,,line_hard_TP/17_3_2.0944_none_right_col_17_row_12.jpg,1,p,hard,line,60245c7c3df42d131232cedb,50,female,2021-05-03_11h56.27.782,search_v5,2021.1.2,Win32,60.0240096,,,space,1.456,0,103,103,86,1,,,,,,,,,,,,,,,,,
,,,,,,,,,,,,,,,,a,1,3.009,,,,,,,,line_easy_TA/15_2_NaN_all_absent.jpg,0,a,easy,line,60245c7c3df42d131232cedb,50,female,2021-05-03_11h56.27.782,search_v5,2021.1.2,Win32,60.0240096,,,space,0.453,0,104,104,13,1,,,,,,,,,,,,,,,,,
,,,,,,,,,,,,,,,,a,1,10.286,,,,,,,,line_mid_TA/4_2_NaN_all_absent.jpg,0,a,mid,line,60245c7c3df42d131232cedb,50,female,2021-05-03_11h56.27.782,search_v5,2021.1.2,Win32,60.0240096,,,space,0.522,0,105,105,118,1,,,,,,,,,,,,,,,,,
,,,,,,,,,,,,,,,,p,1,1.486,,,,,,,,line_easy_TP/13_4_0.5236_all_right_col_13_row_13.jpg,1,p,easy,line,60245c7c3df42d131232cedb,50,female,2021-05-03_11h56.27.782,search_v5,2021.1.2,Win32,60.0240096,,,space,0.525,0,106,106,37,1,,,,,,,,,,,,,,,,,
,,,,,,,,,,,,,,,,a,1,11.242,,,,,,,,line_mid_TA/10_1_NaN_none_absent.jpg,0,a,mid,line,60245c7c3df42d131232cedb,50,female,2021-05-03_11h56.27.782,search_v5,2021.1.2,Win32,60.0240096,,,space,0.531,0,107,107,8,1,,,,,,,,,,,,,,,,,
,,,,,,,,,,,,,,,,p,1,1.339,,,,,,,,line_easy_TP/8_4_0.5236_all_left_col_2_row_6.jpg,1,p,easy,line,60245c7c3df42d131232cedb,50,female,2021-05-03_11h56.27.782,search_v5,2021.1.2,Win32,60.0240096,,,space,0.501,0,108,108,56,1,,,,,,,,,,,,,,,,,
,,,,,,,,,,,,,,,,a,1,9.492,,,,,,,,line_mid_TA/10_2_NaN_none_absent.jpg,0,a,mid,line,60245c7c3df42d131232cedb,50,female,2021-05-03_11h56.27.782,search_v5,2021.1.2,Win32,60.0240096,,,space,0.501,0,109,109,9,1,,,,,,,,,,,,,,,,,
,,,,,,,,,,,,,,,,a,1,3,,,,,,,,line_easy_TA/9_1_NaN_all_absent.jpg,0,a,easy,line,60245c7c3df42d131232cedb,50,female,2021-05-03_11h56.27.782,search_v5,2021.1.2,Win32,60.0240096,,,space,0.54,0,110,110,34,1,,,,,,,,,,,,,,,,,
,,,,,,,,,,,,,,,,a,1,3.615,,,,,,,,line_easy_TA/7_3_NaN_all_absent.jpg,0,a,easy,line,60245c7c3df42d131232cedb,50,female,2021-05-03_11h56.27.782,search_v5,2021.1.2,Win32,60.0240096,,,space,0.551,0,111,111,33,1,,,,,,,,,,,,,,,,,
,,,,,,,,,,,,,,,,a,1,8.307,,,,,,,,line_hard_TA/13_1_NaN_none_absent.jpg,0,a,hard,line,60245c7c3df42d131232cedb,50,female,2021-05-03_11h56.27.782,search_v5,2021.1.2,Win32,60.0240096,,,space,0.458,0,112,112,58,1,,,,,,,,,,,,,,,,,
,,,,,,,,,,,,,,,,a,1,10.539,,,,,,,,line_mid_TA/11_4_NaN_all_absent.jpg,0,a,mid,line,60245c7c3df42d131232cedb,50,female,2021-05-03_11h56.27.782,search_v5,2021.1.2,Win32,60.0240096,,,space,0.637,0,113,113,108,1,,,,,,,,,,,,,,,,,
,,,,,,,,,,,,,,,,a,1,10.142,,,,,,,,line_mid_TA/8_2_NaN_all_absent.jpg,0,a,mid,line,60245c7c3df42d131232cedb,50,female,2021-05-03_11h56.27.782,search_v5,2021.1.2,Win32,60.0240096,,,space,0.492,0,114,114,123,1,,,,,,,,,,,,,,,,,
,,,,,,,,,,,,,,,,p,1,1.583,,,,,,,,line_mid_TP/1_1_1.1424_none_right_col_21_row_2.jpg,1,p,mid,line,60245c7c3df42d131232cedb,50,female,2021-05-03_11h56.27.782,search_v5,2021.1.2,Win32,60.0240096,,,space,0.434,0,115,115,128,1,,,,,,,,,,,,,,,,,
,,,,,,,,,,,,,,,,a,1,15.99,,,,,,,,line_hard_TA/22_3_NaN_none_absent.jpg,0,a,hard,line,60245c7c3df42d131232cedb,50,female,2021-05-03_11h56.27.782,search_v5,2021.1.2,Win32,60.0240096,,,space,0.45,0,116,116,71,1,,,,,,,,,,,,,,,,,
,,,,,,,,,,,,,,,,a,1,8.013,,,,,,,,line_mid_TA/8_3_NaN_all_absent.jpg,0,a,mid,line,60245c7c3df42d131232cedb,50,female,2021-05-03_11h56.27.782,search_v5,2021.1.2,Win32,60.0240096,,,space,0.438,0,117,117,124,1,,,,,,,,,,,,,,,,,
,,,,,,,,,,,,,,,,a,1,9.723,,,,,,,,line_hard_TA/13_2_NaN_none_absent.jpg,0,a,hard,line,60245c7c3df42d131232cedb,50,female,2021-05-03_11h56.27.782,search_v5,2021.1.2,Win32,60.0240096,,,space,0.421,0,118,118,59,1,,,,,,,,,,,,,,,,,
,,,,,,,,,,,,,,,,a,1,10.048,,,,,,,,line_hard_TA/1_3_NaN_none_absent.jpg,0,a,hard,line,60245c7c3df42d131232cedb,50,female,2021-05-03_11h56.27.782,search_v5,2021.1.2,Win32,60.0240096,,,space,0.47,0,119,119,66,1,,,,,,,,,,,,,,,,,
,,,,,,,,,,,,,,,,p,1,1.434,,,,,,,,line_easy_TP/22_2_0.5236_all_left_col_10_row_14.jpg,1,p,easy,line,60245c7c3df42d131232cedb,50,female,2021-05-03_11h56.27.782,search_v5,2021.1.2,Win32,60.0240096,,,space,0.452,0,120,120,46,1,,,,,,,,,,,,,,,,,
,,,,,,,,,,,,,,,,p,1,10.999,,,,,,,,line_hard_TP/2_1_2.0944_none_right_col_16_row_14.jpg,1,p,hard,line,60245c7c3df42d131232cedb,50,female,2021-05-03_11h56.27.782,search_v5,2021.1.2,Win32,60.0240096,,,space,0.485,0,121,121,95,1,,,,,,,,,,,,,,,,,
,,,,,,,,,,,,,,,,a,1,14.721,,,,,,,,line_hard_TA/5_3_NaN_none_absent.jpg,0,a,hard,line,60245c7c3df42d131232cedb,50,female,2021-05-03_11h56.27.782,search_v5,2021.1.2,Win32,60.0240096,,,space,0.458,0,122,122,79,1,,,,,,,,,,,,,,,,,
,,,,,,,,,,,,,,,,p,1,1.879,,,,,,,,line_mid_TP/7_2_1.7453_all_right_col_16_row_5.jpg,1,p,mid,line,60245c7c3df42d131232cedb,50,female,2021-05-03_11h56.27.782,search_v5,2021.1.2,Win32,60.0240096,,,space,0.415,0,123,123,145,1,,,,,,,,,,,,,,,,,
,,,,,,,,,,,,,,,,a,0,14.456,,,,,,,,line_hard_TP/18_4_2.0944_none_left_col_4_row_9.jpg,1,p,hard,line,60245c7c3df42d131232cedb,50,female,2021-05-03_11h56.27.782,search_v5,2021.1.2,Win32,60.0240096,,,space,1.226,0,124,124,88,1,,,,,,,,,,,,,,,,,
,,,,,,,,,,,,,,,,p,1,1.477,,,,,,,,line_easy_TP/3_3_0.5236_all_right_col_15_row_10.jpg,1,p,easy,line,60245c7c3df42d131232cedb,50,female,2021-05-03_11h56.27.782,search_v5,2021.1.2,Win32,60.0240096,,,space,0.445,0,125,125,48,1,,,,,,,,,,,,,,,,,
,,,,,,,,,,,,,,,,a,1,3.948,,,,,,,,line_easy_TA/16_3_NaN_all_absent.jpg,0,a,easy,line,60245c7c3df42d131232cedb,50,female,2021-05-03_11h56.27.782,search_v5,2021.1.2,Win32,60.0240096,,,space,0.485,0,126,126,16,1,,,,,,,,,,,,,,,,,
,,,,,,,,,,,,,,,,p,1,11.363,,,,,,,,line_mid_TP/2_0_1.7453_all_left_col_8_row_12.jpg,1,p,mid,line,60245c7c3df42d131232cedb,50,female,2021-05-03_11h56.27.782,search_v5,2021.1.2,Win32,60.0240096,,,space,0.402,0,127,127,130,1,,,,,,,,,,,,,,,,,
,,,,,,,,,,,,,,,,p,1,1.364,,,,,,,,line_mid_TP/9_3_1.1424_none_left_col_10_row_8.jpg,1,p,mid,line,60245c7c3df42d131232cedb,50,female,2021-05-03_11h56.27.782,search_v5,2021.1.2,Win32,60.0240096,,,space,0.472,0,128,128,11,1,,,,,,,,,,,,,,,,,
,,,,,,,,,,,,,,,,p,1,0.69,,,,,,,,line_easy_TP/9_4_0.5236_all_right_col_16_row_3.jpg,1,p,easy,line,60245c7c3df42d131232cedb,50,female,2021-05-03_11h56.27.782,search_v5,2021.1.2,Win32,60.0240096,,,space,0.388,0,129,129,57,1,,,,,,,,,,,,,,,,,
,,,,,,,,,,,,,,,,a,1,11.026,,,,,,,,line_mid_TA/9_4_NaN_none_absent.jpg,0,a,mid,line,60245c7c3df42d131232cedb,50,female,2021-05-03_11h56.27.782,search_v5,2021.1.2,Win32,60.0240096,,,space,0.449,0,130,130,126,1,,,,,,,,,,,,,,,,,
,,,,,,,,,,,,,,,,p,1,1.216,,,,,,,,line_easy_TP/2_0_0.5236_all_right_col_16_row_4.jpg,1,p,easy,line,60245c7c3df42d131232cedb,50,female,2021-05-03_11h56.27.782,search_v5,2021.1.2,Win32,60.0240096,,,space,0.352,0,131,131,47,1,,,,,,,,,,,,,,,,,
,,,,,,,,,,,,,,,,p,1,0.897,,,,,,,,line_mid_TP/3_1_1.1424_none_left_col_10_row_2.jpg,1,p,mid,line,60245c7c3df42d131232cedb,50,female,2021-05-03_11h56.27.782,search_v5,2021.1.2,Win32,60.0240096,,,space,0.416,0,132,132,134,1,,,,,,,,,,,,,,,,,
,,,,,,,,,,,,,,,,p,1,1.001,,,,,,,,line_easy_TP/7_2_0.5236_all_right_col_14_row_5.jpg,1,p,easy,line,60245c7c3df42d131232cedb,50,female,2021-05-03_11h56.27.782,search_v5,2021.1.2,Win32,60.0240096,,,space,0.501,0,133,133,53,1,,,,,,,,,,,,,,,,,
,,,,,,,,,,,,,,,,p,1,0.801,,,,,,,,line_easy_TP/11_2_0.5236_all_right_col_14_row_9.jpg,1,p,easy,line,60245c7c3df42d131232cedb,50,female,2021-05-03_11h56.27.782,search_v5,2021.1.2,Win32,60.0240096,,,space,0.45,0,134,134,3,1,,,,,,,,,,,,,,,,,
,,,,,,,,,,,,,,,,a,1,13.185,,,,,,,,line_mid_TA/11_3_NaN_all_absent.jpg,0,a,mid,line,60245c7c3df42d131232cedb,50,female,2021-05-03_11h56.27.782,search_v5,2021.1.2,Win32,60.0240096,,,space,0.505,0,135,135,107,1,,,,,,,,,,,,,,,,,
,,,,,,,,,,,,,,,,p,1,1.661,,,,,,,,line_hard_TP/9_2_2.0944_none_right_col_21_row_2.jpg,1,p,hard,line,60245c7c3df42d131232cedb,50,female,2021-05-03_11h56.27.782,search_v5,2021.1.2,Win32,60.0240096,,,space,0.462,0,136,136,102,1,,,,,,,,,,,,,,,,,
,,,,,,,,,,,,,,,,a,1,5.257,,,,,,,,line_mid_TA/3_2_NaN_none_absent.jpg,0,a,mid,line,60245c7c3df42d131232cedb,50,female,2021-05-03_11h56.27.782,search_v5,2021.1.2,Win32,60.0240096,,,space,0.471,0,137,137,114,1,,,,,,,,,,,,,,,,,
,,,,,,,,,,,,,,,,a,0,6.092,,,,,,,,line_hard_TP/11_4_2.0944_none_right_col_18_row_11.jpg,1,p,hard,line,60245c7c3df42d131232cedb,50,female,2021-05-03_11h56.27.782,search_v5,2021.1.2,Win32,60.0240096,,,space,0.523,0,138,138,7,1,,,,,,,,,,,,,,,,,
,,,,,,,,,,,,,,,,a,0,17.689,,,,,,,,line_hard_TP/24_1_2.0944_none_right_col_16_row_6.jpg,1,p,hard,line,60245c7c3df42d131232cedb,50,female,2021-05-03_11h56.27.782,search_v5,2021.1.2,Win32,60.0240096,,,space,2.357,0,139,139,93,1,,,,,,,,,,,,,,,,,
,,,,,,,,,,,,,,,,a,1,14.141,,,,,,,,line_hard_TA/6_1_NaN_none_absent.jpg,0,a,hard,line,60245c7c3df42d131232cedb,50,female,2021-05-03_11h56.27.782,search_v5,2021.1.2,Win32,60.0240096,,,space,0.462,0,140,140,80,1,,,,,,,,,,,,,,,,,
,,,,,,,,,,,,,,,,a,1,4.305,,,,,,,,line_mid_TA/8_4_NaN_all_absent.jpg,0,a,mid,line,60245c7c3df42d131232cedb,50,female,2021-05-03_11h56.27.782,search_v5,2021.1.2,Win32,60.0240096,,,space,0.483,0,141,141,125,1,,,,,,,,,,,,,,,,,
,,,,,,,,,,,,,,,,a,1,3.558,,,,,,,,line_mid_TA/5_4_NaN_none_absent.jpg,0,a,mid,line,60245c7c3df42d131232cedb,50,female,2021-05-03_11h56.27.782,search_v5,2021.1.2,Win32,60.0240096,,,space,0.452,0,142,142,120,1,,,,,,,,,,,,,,,,,
,,,,,,,,,,,,,,,,a,1,3.318,,,,,,,,line_hard_TA/10_4_NaN_none_absent.jpg,0,a,hard,line,60245c7c3df42d131232cedb,50,female,2021-05-03_11h56.27.782,search_v5,2021.1.2,Win32,60.0240096,,,space,0.479,0,143,143,4,1,,,,,,,,,,,,,,,,,
,,,,,,,,,,,,,,,,p,1,2.056,,,,,,,,line_mid_TP/9_2_1.1424_none_right_col_20_row_1.jpg,1,p,mid,line,60245c7c3df42d131232cedb,50,female,2021-05-03_11h56.27.782,search_v5,2021.1.2,Win32,60.0240096,,,space,0.738,0,144,144,10,1,,,,,,,,,,,,,,,,,
,,,,,,,,,,,,,,,,a,1,2.741,,,,,,,,line_easy_TA/4_4_NaN_all_absent.jpg,0,a,easy,line,60245c7c3df42d131232cedb,50,female,2021-05-03_11h56.27.782,search_v5,2021.1.2,Win32,60.0240096,,,space,0.451,0,145,145,29,1,,,,,,,,,,,,,,,,,
,,,,,,,,,,,,,,,,a,1,1.961,,,,,,,,line_easy_TA/3_0_NaN_all_absent.jpg,0,a,easy,line,60245c7c3df42d131232cedb,50,female,2021-05-03_11h56.27.782,search_v5,2021.1.2,Win32,60.0240096,,,space,0.482,0,146,146,25,1,,,,,,,,,,,,,,,,,
,,,,,,,,,,,,,,,,a,1,2.382,,,,,,,,line_easy_TA/16_2_NaN_all_absent.jpg,0,a,easy,line,60245c7c3df42d131232cedb,50,female,2021-05-03_11h56.27.782,search_v5,2021.1.2,Win32,60.0240096,,,space,0.471,0,147,147,15,1,,,,,,,,,,,,,,,,,
,,,,,,,,,,,,,,,,a,1,4.3,,,,,,,,line_hard_TA/23_1_NaN_none_absent.jpg,0,a,hard,line,60245c7c3df42d131232cedb,50,female,2021-05-03_11h56.27.782,search_v5,2021.1.2,Win32,60.0240096,,,space,0.437,0,148,148,73,1,,,,,,,,,,,,,,,,,
,,,,,,,,,,,,,,,,a,1,4.628,,,,,,,,line_hard_TA/17_4_NaN_none_absent.jpg,0,a,hard,line,60245c7c3df42d131232cedb,50,female,2021-05-03_11h56.27.782,search_v5,2021.1.2,Win32,60.0240096,,,space,0.468,0,149,149,65,1,,,,,,,,,,,,,,,,,
,,,,,,,,,,,,,,,,,,,,,,,,,,,,,,,60245c7c3df42d131232cedb,50,female,2021-05-03_11h56.27.782,search_v5,2021.1.2,Win32,60.0240096,,,,,,,,,,0,1,1,2,1,condLine.xlsx,lines,Look for a line tilted 45 degrees to the right (target) and indicate if it is present or absent in the array. If the target is present press 'p' and if absent press 'a'. Press SPACE to start.,line_segment_example.jpg,,,,egLine.xlsx,,,,
,,,,,,,,,,,,space,16.224,space,8.135,p,1,2.568,space,2.6,0,0,0,4,1,15_dist_green/trial1.png,1,p,hard,greenverival,60245c7c3df42d131232cedb,50,female,2021-05-03_11h56.27.782,search_v5,2021.1.2,Win32,60.0240096,,,,,,,,,,,,,,,,,,,,,,,,15,,
,,,,,,,,,,,,,,,,a,1,2.191,space,1.034,0,1,1,8,1,0_targ_10_dist_green/trial1.png,0,a,mid,greenverival,60245c7c3df42d131232cedb,50,female,2021-05-03_11h56.27.782,search_v5,2021.1.2,Win32,60.0240096,,,,,,,,,,,,,,,,,,,,,,,,10,,
,,,,,,,,,,,,,,,,p,1,2.545,space,1.232,0,2,2,2,1,9_dist_green/trial1.png,1,p,mid,greenverival,60245c7c3df42d131232cedb,50,female,2021-05-03_11h56.27.782,search_v5,2021.1.2,Win32,60.0240096,,,,,,,,,,,,,,,,,,,,,,,,9,,
,,,,,,,,,,,,,,,,p,1,1.716,space,0.618,0,3,3,3,1,9_dist_green/trial2.png,1,p,mid,greenverival,60245c7c3df42d131232cedb,50,female,2021-05-03_11h56.27.782,search_v5,2021.1.2,Win32,60.0240096,,,,,,,,,,,,,,,,,,,,,,,,9,,
,,,,,,,,,,,,,,,,a,1,1.769,space,0.869,0,4,4,11,1,0_targ_16_dist_green/trial2.png,0,a,hard,greenverival,60245c7c3df42d131232cedb,50,female,2021-05-03_11h56.27.782,search_v5,2021.1.2,Win32,60.0240096,,,,,,,,,,,,,,,,,,,,,,,,16,,
,,,,,,,,,,,,,,,,a,1,0.885,space,0.535,0,5,5,6,1,0_targ_4_dist_green/trial1.png,0,a,easy,greenverival,60245c7c3df42d131232cedb,50,female,2021-05-03_11h56.27.782,search_v5,2021.1.2,Win32,60.0240096,,,,,,,,,,,,,,,,,,,,,,,,4,,
,,,,,,,,,,,,,,,,a,1,0.888,space,0.55,0,6,6,10,1,0_targ_16_dist_green/trial1.png,0,a,hard,greenverival,60245c7c3df42d131232cedb,50,female,2021-05-03_11h56.27.782,search_v5,2021.1.2,Win32,60.0240096,,,,,,,,,,,,,,,,,,,,,,,,16,,
,,,,,,,,,,,,,,,,p,1,1.421,space,0.652,0,7,7,0,1,3_dist_green/trial1.png,1,p,easy,greenverival,60245c7c3df42d131232cedb,50,female,2021-05-03_11h56.27.782,search_v5,2021.1.2,Win32,60.0240096,,,,,,,,,,,,,,,,,,,,,,,,3,,
,,,,,,,,,,,,,,,,a,1,1.667,space,0.573,0,8,8,7,1,0_targ_4_dist_green/trial2.png,0,a,easy,greenverival,60245c7c3df42d131232cedb,50,female,2021-05-03_11h56.27.782,search_v5,2021.1.2,Win32,60.0240096,,,,,,,,,,,,,,,,,,,,,,,,4,,
,,,,,,,,,,,,,,,,p,1,1.476,space,0.568,0,9,9,1,1,3_dist_green/trial2.png,1,p,easy,greenverival,60245c7c3df42d131232cedb,50,female,2021-05-03_11h56.27.782,search_v5,2021.1.2,Win32,60.0240096,,,,,,,,,,,,,,,,,,,,,,,,3,,
,,,,,,,,,,,,,,,,a,1,1.815,space,0.39,0,10,10,9,1,0_targ_10_dist_green/trial2.png,0,a,mid,greenverival,60245c7c3df42d131232cedb,50,female,2021-05-03_11h56.27.782,search_v5,2021.1.2,Win32,60.0240096,,,,,,,,,,,,,,,,,,,,,,,,10,,
,,,,,,,,,,,,,,,,a,0,1.297,space,2.591,0,11,11,5,1,15_dist_green/trial2.png,1,p,hard,greenverival,60245c7c3df42d131232cedb,50,female,2021-05-03_11h56.27.782,search_v5,2021.1.2,Win32,60.0240096,,,,,,,,,,,,,,,,,,,,,,,,15,,
,,,,,,,,,,,,,,,,p,1,1.526,,,,,,,,15_dist_green/trial25.png,1,p,hard,greenverival,60245c7c3df42d131232cedb,50,female,2021-05-03_11h56.27.782,search_v5,2021.1.2,Win32,60.0240096,space,3.22,space,0.572,0,0,0,80,1,,,,,,,,,,,,,,,15,,
,,,,,,,,,,,,,,,,p,1,1.707,,,,,,,,9_dist_green/trial18.png,1,p,mid,greenverival,60245c7c3df42d131232cedb,50,female,2021-05-03_11h56.27.782,search_v5,2021.1.2,Win32,60.0240096,,,space,0.538,0,1,1,50,1,,,,,,,,,,,,,,,9,,
,,,,,,,,,,,,,,,,p,1,1.208,,,,,,,,3_dist_green/trial7.png,1,p,easy,greenverival,60245c7c3df42d131232cedb,50,female,2021-05-03_11h56.27.782,search_v5,2021.1.2,Win32,60.0240096,,,space,0.549,0,2,2,16,1,,,,,,,,,,,,,,,3,,
,,,,,,,,,,,,,,,,a,1,1.873,,,,,,,,0_targ_10_dist_green/trial10.png,0,a,mid,greenverival,60245c7c3df42d131232cedb,50,female,2021-05-03_11h56.27.782,search_v5,2021.1.2,Win32,60.0240096,,,space,0.662,0,3,3,111,1,,,,,,,,,,,,,,,10,,
,,,,,,,,,,,,,,,,a,1,1.131,,,,,,,,0_targ_16_dist_green/trial9.png,0,a,hard,greenverival,60245c7c3df42d131232cedb,50,female,2021-05-03_11h56.27.782,search_v5,2021.1.2,Win32,60.0240096,,,space,0.486,0,4,4,133,1,,,,,,,,,,,,,,,16,,
,,,,,,,,,,,,,,,,p,1,1.35,,,,,,,,3_dist_green/trial6.png,1,p,easy,greenverival,60245c7c3df42d131232cedb,50,female,2021-05-03_11h56.27.782,search_v5,2021.1.2,Win32,60.0240096,,,space,0.54,0,5,5,15,1,,,,,,,,,,,,,,,3,,
,,,,,,,,,,,,,,,,a,1,1.626,,,,,,,,0_targ_4_dist_green/trial11.png,0,a,easy,greenverival,60245c7c3df42d131232cedb,50,female,2021-05-03_11h56.27.782,search_v5,2021.1.2,Win32,60.0240096,,,space,0.457,0,6,6,89,1,,,,,,,,,,,,,,,4,,
,,,,,,,,,,,,,,,,a,1,1.794,,,,,,,,0_targ_16_dist_green/trial17.png,0,a,hard,greenverival,60245c7c3df42d131232cedb,50,female,2021-05-03_11h56.27.782,search_v5,2021.1.2,Win32,60.0240096,,,space,0.487,0,7,7,141,1,,,,,,,,,,,,,,,16,,
,,,,,,,,,,,,,,,,a,1,1.06,,,,,,,,0_targ_10_dist_green/trial11.png,0,a,mid,greenverival,60245c7c3df42d131232cedb,50,female,2021-05-03_11h56.27.782,search_v5,2021.1.2,Win32,60.0240096,,,space,0.569,0,8,8,112,1,,,,,,,,,,,,,,,10,,
,,,,,,,,,,,,,,,,a,1,1.366,,,,,,,,0_targ_16_dist_green/trial6.png,0,a,hard,greenverival,60245c7c3df42d131232cedb,50,female,2021-05-03_11h56.27.782,search_v5,2021.1.2,Win32,60.0240096,,,space,0.502,0,9,9,130,1,,,,,,,,,,,,,,,16,,
,,,,,,,,,,,,,,,,p,1,3.183,,,,,,,,15_dist_green/trial23.png,1,p,hard,greenverival,60245c7c3df42d131232cedb,50,female,2021-05-03_11h56.27.782,search_v5,2021.1.2,Win32,60.0240096,,,space,0.486,0,10,10,78,1,,,,,,,,,,,,,,,15,,
,,,,,,,,,,,,,,,,p,1,1.483,,,,,,,,15_dist_green/trial5.png,1,p,hard,greenverival,60245c7c3df42d131232cedb,50,female,2021-05-03_11h56.27.782,search_v5,2021.1.2,Win32,60.0240096,,,space,0.519,0,11,11,60,1,,,,,,,,,,,,,,,15,,
,,,,,,,,,,,,,,,,a,1,1.652,,,,,,,,0_targ_16_dist_green/trial19.png,0,a,hard,greenverival,60245c7c3df42d131232cedb,50,female,2021-05-03_11h56.27.782,search_v5,2021.1.2,Win32,60.0240096,,,space,0.522,0,12,12,143,1,,,,,,,,,,,,,,,16,,
,,,,,,,,,,,,,,,,a,1,0.875,,,,,,,,0_targ_4_dist_green/trial19.png,0,a,easy,greenverival,60245c7c3df42d131232cedb,50,female,2021-05-03_11h56.27.782,search_v5,2021.1.2,Win32,60.0240096,,,space,0.421,0,13,13,97,1,,,,,,,,,,,,,,,4,,
,,,,,,,,,,,,,,,,a,1,1.278,,,,,,,,0_targ_16_dist_green/trial11.png,0,a,hard,greenverival,60245c7c3df42d131232cedb,50,female,2021-05-03_11h56.27.782,search_v5,2021.1.2,Win32,60.0240096,,,space,0.501,0,14,14,135,1,,,,,,,,,,,,,,,16,,
,,,,,,,,,,,,,,,,a,1,0.872,,,,,,,,0_targ_4_dist_green/trial21.png,0,a,easy,greenverival,60245c7c3df42d131232cedb,50,female,2021-05-03_11h56.27.782,search_v5,2021.1.2,Win32,60.0240096,,,space,0.518,0,15,15,99,1,,,,,,,,,,,,,,,4,,
,,,,,,,,,,,,,,,,p,1,1.235,,,,,,,,3_dist_green/trial8.png,1,p,easy,greenverival,60245c7c3df42d131232cedb,50,female,2021-05-03_11h56.27.782,search_v5,2021.1.2,Win32,60.0240096,,,space,0.533,0,16,16,17,1,,,,,,,,,,,,,,,3,,
,,,,,,,,,,,,,,,,p,1,1.076,,,,,,,,3_dist_green/trial20.png,1,p,easy,greenverival,60245c7c3df42d131232cedb,50,female,2021-05-03_11h56.27.782,search_v5,2021.1.2,Win32,60.0240096,,,space,0.486,0,17,17,29,1,,,,,,,,,,,,,,,3,,
,,,,,,,,,,,,,,,,p,1,1.483,,,,,,,,15_dist_green/trial21.png,1,p,hard,greenverival,60245c7c3df42d131232cedb,50,female,2021-05-03_11h56.27.782,search_v5,2021.1.2,Win32,60.0240096,,,space,0.451,0,18,18,76,1,,,,,,,,,,,,,,,15,,
,,,,,,,,,,,,,,,,a,1,1.631,,,,,,,,0_targ_16_dist_green/trial13.png,0,a,hard,greenverival,60245c7c3df42d131232cedb,50,female,2021-05-03_11h56.27.782,search_v5,2021.1.2,Win32,60.0240096,,,space,0.506,0,19,19,137,1,,,,,,,,,,,,,,,16,,
,,,,,,,,,,,,,,,,p,1,1.274,,,,,,,,15_dist_green/trial24.png,1,p,hard,greenverival,60245c7c3df42d131232cedb,50,female,2021-05-03_11h56.27.782,search_v5,2021.1.2,Win32,60.0240096,,,space,0.5,0,20,20,79,1,,,,,,,,,,,,,,,15,,
,,,,,,,,,,,,,,,,p,1,1.239,,,,,,,,15_dist_green/trial10.png,1,p,hard,greenverival,60245c7c3df42d131232cedb,50,female,2021-05-03_11h56.27.782,search_v5,2021.1.2,Win32,60.0240096,,,space,0.5,0,21,21,65,1,,,,,,,,,,,,,,,15,,
,,,,,,,,,,,,,,,,a,1,1.373,,,,,,,,0_targ_16_dist_green/trial2.png,0,a,hard,greenverival,60245c7c3df42d131232cedb,50,female,2021-05-03_11h56.27.782,search_v5,2021.1.2,Win32,60.0240096,,,space,0.792,0,22,22,11,1,,,,,,,,,,,,,,,16,,
,,,,,,,,,,,,,,,,a,1,0.947,,,,,,,,0_targ_4_dist_green/trial20.png,0,a,easy,greenverival,60245c7c3df42d131232cedb,50,female,2021-05-03_11h56.27.782,search_v5,2021.1.2,Win32,60.0240096,,,space,0.485,0,23,23,98,1,,,,,,,,,,,,,,,4,,
,,,,,,,,,,,,,,,,a,1,0.711,,,,,,,,0_targ_4_dist_green/trial7.png,0,a,easy,greenverival,60245c7c3df42d131232cedb,50,female,2021-05-03_11h56.27.782,search_v5,2021.1.2,Win32,60.0240096,,,space,0.506,0,24,24,85,1,,,,,,,,,,,,,,,4,,
,,,,,,,,,,,,,,,,a,1,0.679,,,,,,,,0_targ_16_dist_green/trial22.png,0,a,hard,greenverival,60245c7c3df42d131232cedb,50,female,2021-05-03_11h56.27.782,search_v5,2021.1.2,Win32,60.0240096,,,space,0.47,0,25,25,146,1,,,,,,,,,,,,,,,16,,
,,,,,,,,,,,,,,,,p,1,1.534,,,,,,,,9_dist_green/trial6.png,1,p,mid,greenverival,60245c7c3df42d131232cedb,50,female,2021-05-03_11h56.27.782,search_v5,2021.1.2,Win32,60.0240096,,,space,0.704,0,26,26,38,1,,,,,,,,,,,,,,,9,,
,,,,,,,,,,,,,,,,a,1,1.781,,,,,,,,0_targ_16_dist_green/trial16.png,0,a,hard,greenverival,60245c7c3df42d131232cedb,50,female,2021-05-03_11h56.27.782,search_v5,2021.1.2,Win32,60.0240096,,,space,0.537,0,27,27,140,1,,,,,,,,,,,,,,,16,,
,,,,,,,,,,,,,,,,a,1,0.865,,,,,,,,0_targ_10_dist_green/trial18.png,0,a,mid,greenverival,60245c7c3df42d131232cedb,50,female,2021-05-03_11h56.27.782,search_v5,2021.1.2,Win32,60.0240096,,,space,0.439,0,28,28,119,1,,,,,,,,,,,,,,,10,,
,,,,,,,,,,,,,,,,p,1,1.326,,,,,,,,9_dist_green/trial22.png,1,p,mid,greenverival,60245c7c3df42d131232cedb,50,female,2021-05-03_11h56.27.782,search_v5,2021.1.2,Win32,60.0240096,,,space,0.484,0,29,29,54,1,,,,,,,,,,,,,,,9,,
,,,,,,,,,,,,,,,,p,1,1.381,,,,,,,,3_dist_green/trial5.png,1,p,easy,greenverival,60245c7c3df42d131232cedb,50,female,2021-05-03_11h56.27.782,search_v5,2021.1.2,Win32,60.0240096,,,space,0.398,0,30,30,14,1,,,,,,,,,,,,,,,3,,
,,,,,,,,,,,,,,,,a,1,1.386,,,,,,,,0_targ_16_dist_green/trial14.png,0,a,hard,greenverival,60245c7c3df42d131232cedb,50,female,2021-05-03_11h56.27.782,search_v5,2021.1.2,Win32,60.0240096,,,space,0.452,0,31,31,138,1,,,,,,,,,,,,,,,16,,
,,,,,,,,,,,,,,,,a,1,1,,,,,,,,0_targ_16_dist_green/trial20.png,0,a,hard,greenverival,60245c7c3df42d131232cedb,50,female,2021-05-03_11h56.27.782,search_v5,2021.1.2,Win32,60.0240096,,,space,0.488,0,32,32,144,1,,,,,,,,,,,,,,,16,,
,,,,,,,,,,,,,,,,p,1,1.299,,,,,,,,3_dist_green/trial11.png,1,p,easy,greenverival,60245c7c3df42d131232cedb,50,female,2021-05-03_11h56.27.782,search_v5,2021.1.2,Win32,60.0240096,,,space,0.399,0,33,33,20,1,,,,,,,,,,,,,,,3,,
,,,,,,,,,,,,,,,,p,1,0.964,,,,,,,,3_dist_green/trial14.png,1,p,easy,greenverival,60245c7c3df42d131232cedb,50,female,2021-05-03_11h56.27.782,search_v5,2021.1.2,Win32,60.0240096,,,space,0.441,0,34,34,23,1,,,,,,,,,,,,,,,3,,
,,,,,,,,,,,,,,,,a,1,1.274,,,,,,,,0_targ_10_dist_green/trial22.png,0,a,mid,greenverival,60245c7c3df42d131232cedb,50,female,2021-05-03_11h56.27.782,search_v5,2021.1.2,Win32,60.0240096,,,space,0.403,0,35,35,123,1,,,,,,,,,,,,,,,10,,
,,,,,,,,,,,,,,,,p,1,1.812,,,,,,,,15_dist_green/trial11.png,1,p,hard,greenverival,60245c7c3df42d131232cedb,50,female,2021-05-03_11h56.27.782,search_v5,2021.1.2,Win32,60.0240096,,,space,0.447,0,36,36,66,1,,,,,,,,,,,,,,,15,,
,,,,,,,,,,,,,,,,a,0,1.564,,,,,,,,15_dist_green/trial12.png,1,p,hard,greenverival,60245c7c3df42d131232cedb,50,female,2021-05-03_11h56.27.782,search_v5,2021.1.2,Win32,60.0240096,,,space,1.135,0,37,37,67,1,,,,,,,,,,,,,,,15,,
,,,,,,,,,,,,,,,,a,1,0.8,,,,,,,,0_targ_4_dist_green/trial17.png,0,a,easy,greenverival,60245c7c3df42d131232cedb,50,female,2021-05-03_11h56.27.782,search_v5,2021.1.2,Win32,60.0240096,,,space,0.428,0,38,38,95,1,,,,,,,,,,,,,,,4,,
,,,,,,,,,,,,,,,,a,1,1,,,,,,,,0_targ_4_dist_green/trial15.png,0,a,easy,greenverival,60245c7c3df42d131232cedb,50,female,2021-05-03_11h56.27.782,search_v5,2021.1.2,Win32,60.0240096,,,space,0.434,0,39,39,93,1,,,,,,,,,,,,,,,4,,
,,,,,,,,,,,,,,,,a,1,0.781,,,,,,,,0_targ_10_dist_green/trial17.png,0,a,mid,greenverival,60245c7c3df42d131232cedb,50,female,2021-05-03_11h56.27.782,search_v5,2021.1.2,Win32,60.0240096,,,space,0.42,0,40,40,118,1,,,,,,,,,,,,,,,10,,
,,,,,,,,,,,,,,,,a,1,0.756,,,,,,,,0_targ_4_dist_green/trial8.png,0,a,easy,greenverival,60245c7c3df42d131232cedb,50,female,2021-05-03_11h56.27.782,search_v5,2021.1.2,Win32,60.0240096,,,space,0.473,0,41,41,86,1,,,,,,,,,,,,,,,4,,
,,,,,,,,,,,,,,,,a,1,0.74,,,,,,,,0_targ_16_dist_green/trial21.png,0,a,hard,greenverival,60245c7c3df42d131232cedb,50,female,2021-05-03_11h56.27.782,search_v5,2021.1.2,Win32,60.0240096,,,space,0.434,0,42,42,145,1,,,,,,,,,,,,,,,16,,
,,,,,,,,,,,,,,,,a,1,0.692,,,,,,,,0_targ_4_dist_green/trial22.png,0,a,easy,greenverival,60245c7c3df42d131232cedb,50,female,2021-05-03_11h56.27.782,search_v5,2021.1.2,Win32,60.0240096,,,space,0.465,0,43,43,100,1,,,,,,,,,,,,,,,4,,
,,,,,,,,,,,,,,,,a,1,0.718,,,,,,,,0_targ_10_dist_green/trial24.png,0,a,mid,greenverival,60245c7c3df42d131232cedb,50,female,2021-05-03_11h56.27.782,search_v5,2021.1.2,Win32,60.0240096,,,space,0.468,0,44,44,125,1,,,,,,,,,,,,,,,10,,
,,,,,,,,,,,,,,,,p,1,1.077,,,,,,,,9_dist_green/trial14.png,1,p,mid,greenverival,60245c7c3df42d131232cedb,50,female,2021-05-03_11h56.27.782,search_v5,2021.1.2,Win32,60.0240096,,,space,0.466,0,45,45,46,1,,,,,,,,,,,,,,,9,,
,,,,,,,,,,,,,,,,p,1,1.114,,,,,,,,15_dist_green/trial9.png,1,p,hard,greenverival,60245c7c3df42d131232cedb,50,female,2021-05-03_11h56.27.782,search_v5,2021.1.2,Win32,60.0240096,,,space,0.514,0,46,46,64,1,,,,,,,,,,,,,,,15,,
,,,,,,,,,,,,,,,,a,1,1.344,,,,,,,,0_targ_10_dist_green/trial5.png,0,a,mid,greenverival,60245c7c3df42d131232cedb,50,female,2021-05-03_11h56.27.782,search_v5,2021.1.2,Win32,60.0240096,,,space,0.252,0,47,47,106,1,,,,,,,,,,,,,,,10,,
,,,,,,,,,,,,,,,,a,1,0.929,,,,,,,,0_targ_16_dist_green/trial25.png,0,a,hard,greenverival,60245c7c3df42d131232cedb,50,female,2021-05-03_11h56.27.782,search_v5,2021.1.2,Win32,60.0240096,,,space,0.402,0,48,48,149,1,,,,,,,,,,,,,,,16,,
,,,,,,,,,,,,,,,,a,1,0.766,,,,,,,,0_targ_10_dist_green/trial20.png,0,a,mid,greenverival,60245c7c3df42d131232cedb,50,female,2021-05-03_11h56.27.782,search_v5,2021.1.2,Win32,60.0240096,,,space,0.392,0,49,49,121,1,,,,,,,,,,,,,,,10,,
,,,,,,,,,,,,,,,,p,1,1.049,,,,,,,,9_dist_green/trial19.png,1,p,mid,greenverival,60245c7c3df42d131232cedb,50,female,2021-05-03_11h56.27.782,search_v5,2021.1.2,Win32,60.0240096,,,space,0.315,0,50,50,51,1,,,,,,,,,,,,,,,9,,
,,,,,,,,,,,,,,,,a,1,2.165,,,,,,,,0_targ_16_dist_green/trial4.png,0,a,hard,greenverival,60245c7c3df42d131232cedb,50,female,2021-05-03_11h56.27.782,search_v5,2021.1.2,Win32,60.0240096,,,space,1.315,0,51,51,128,1,,,,,,,,,,,,,,,16,,
,,,,,,,,,,,,,,,,p,1,1.216,,,,,,,,3_dist_green/trial21.png,1,p,easy,greenverival,60245c7c3df42d131232cedb,50,female,2021-05-03_11h56.27.782,search_v5,2021.1.2,Win32,60.0240096,,,space,0.366,0,52,52,30,1,,,,,,,,,,,,,,,3,,
,,,,,,,,,,,,,,,,p,1,1.039,,,,,,,,9_dist_green/trial15.png,1,p,mid,greenverival,60245c7c3df42d131232cedb,50,female,2021-05-03_11h56.27.782,search_v5,2021.1.2,Win32,60.0240096,,,space,0.355,0,53,53,47,1,,,,,,,,,,,,,,,9,,
,,,,,,,,,,,,,,,,a,1,1.417,,,,,,,,0_targ_16_dist_green/trial1.png,0,a,hard,greenverival,60245c7c3df42d131232cedb,50,female,2021-05-03_11h56.27.782,search_v5,2021.1.2,Win32,60.0240096,,,space,0.272,0,54,54,10,1,,,,,,,,,,,,,,,16,,
,,,,,,,,,,,,,,,,p,1,2.415,,,,,,,,3_dist_green/trial12.png,1,p,easy,greenverival,60245c7c3df42d131232cedb,50,female,2021-05-03_11h56.27.782,search_v5,2021.1.2,Win32,60.0240096,,,space,0.351,0,55,55,21,1,,,,,,,,,,,,,,,3,,
,,,,,,,,,,,,,,,,p,1,0.929,,,,,,,,3_dist_green/trial13.png,1,p,easy,greenverival,60245c7c3df42d131232cedb,50,female,2021-05-03_11h56.27.782,search_v5,2021.1.2,Win32,60.0240096,,,space,0.338,0,56,56,22,1,,,,,,,,,,,,,,,3,,
,,,,,,,,,,,,,,,,p,1,0.935,,,,,,,,3_dist_green/trial18.png,1,p,easy,greenverival,60245c7c3df42d131232cedb,50,female,2021-05-03_11h56.27.782,search_v5,2021.1.2,Win32,60.0240096,,,space,0.353,0,57,57,27,1,,,,,,,,,,,,,,,3,,
,,,,,,,,,,,,,,,,p,1,0.926,,,,,,,,9_dist_green/trial16.png,1,p,mid,greenverival,60245c7c3df42d131232cedb,50,female,2021-05-03_11h56.27.782,search_v5,2021.1.2,Win32,60.0240096,,,space,0.301,0,58,58,48,1,,,,,,,,,,,,,,,9,,
,,,,,,,,,,,,,,,,a,1,1.153,,,,,,,,0_targ_10_dist_green/trial3.png,0,a,mid,greenverival,60245c7c3df42d131232cedb,50,female,2021-05-03_11h56.27.782,search_v5,2021.1.2,Win32,60.0240096,,,space,0.441,0,59,59,104,1,,,,,,,,,,,,,,,10,,
,,,,,,,,,,,,,,,,a,1,1.063,,,,,,,,0_targ_10_dist_green/trial12.png,0,a,mid,greenverival,60245c7c3df42d131232cedb,50,female,2021-05-03_11h56.27.782,search_v5,2021.1.2,Win32,60.0240096,,,space,0.376,0,60,60,113,1,,,,,,,,,,,,,,,10,,
,,,,,,,,,,,,,,,,p,1,1.393,,,,,,,,9_dist_green/trial24.png,1,p,mid,greenverival,60245c7c3df42d131232cedb,50,female,2021-05-03_11h56.27.782,search_v5,2021.1.2,Win32,60.0240096,,,space,0.37,0,61,61,56,1,,,,,,,,,,,,,,,9,,
,,,,,,,,,,,,,,,,p,1,2.058,,,,,,,,9_dist_green/trial10.png,1,p,mid,greenverival,60245c7c3df42d131232cedb,50,female,2021-05-03_11h56.27.782,search_v5,2021.1.2,Win32,60.0240096,,,space,0.369,0,62,62,42,1,,,,,,,,,,,,,,,9,,
,,,,,,,,,,,,,,,,a,1,1.23,,,,,,,,0_targ_10_dist_green/trial4.png,0,a,mid,greenverival,60245c7c3df42d131232cedb,50,female,2021-05-03_11h56.27.782,search_v5,2021.1.2,Win32,60.0240096,,,space,0.409,0,63,63,105,1,,,,,,,,,,,,,,,10,,
,,,,,,,,,,,,,,,,a,1,0.914,,,,,,,,0_targ_10_dist_green/trial19.png,0,a,mid,greenverival,60245c7c3df42d131232cedb,50,female,2021-05-03_11h56.27.782,search_v5,2021.1.2,Win32,60.0240096,,,space,0.372,0,64,64,120,1,,,,,,,,,,,,,,,10,,
,,,,,,,,,,,,,,,,a,1,0.597,,,,,,,,0_targ_4_dist_green/trial3.png,0,a,easy,greenverival,60245c7c3df42d131232cedb,50,female,2021-05-03_11h56.27.782,search_v5,2021.1.2,Win32,60.0240096,,,space,0.838,0,65,65,81,1,,,,,,,,,,,,,,,4,,
,,,,,,,,,,,,,,,,p,1,1.334,,,,,,,,3_dist_green/trial10.png,1,p,easy,greenverival,60245c7c3df42d131232cedb,50,female,2021-05-03_11h56.27.782,search_v5,2021.1.2,Win32,60.0240096,,,space,0.356,0,66,66,19,1,,,,,,,,,,,,,,,3,,
,,,,,,,,,,,,,,,,a,1,1.253,,,,,,,,0_targ_4_dist_green/trial6.png,0,a,easy,greenverival,60245c7c3df42d131232cedb,50,female,2021-05-03_11h56.27.782,search_v5,2021.1.2,Win32,60.0240096,,,space,0.287,0,67,67,94,1,,,,,,,,,,,,,,,4,,
,,,,,,,,,,,,,,,,p,1,3.109,,,,,,,,9_dist_green/trial8.png,1,p,mid,greenverival,60245c7c3df42d131232cedb,50,female,2021-05-03_11h56.27.782,search_v5,2021.1.2,Win32,60.0240096,,,space,0.405,0,68,68,40,1,,,,,,,,,,,,,,,9,,
,,,,,,,,,,,,,,,,p,1,1.559,,,,,,,,9_dist_green/trial12.png,1,p,mid,greenverival,60245c7c3df42d131232cedb,50,female,2021-05-03_11h56.27.782,search_v5,2021.1.2,Win32,60.0240096,,,space,0.393,0,69,69,44,1,,,,,,,,,,,,,,,9,,
,,,,,,,,,,,,,,,,p,1,1.533,,,,,,,,15_dist_green/trial18.png,1,p,hard,greenverival,60245c7c3df42d131232cedb,50,female,2021-05-03_11h56.27.782,search_v5,2021.1.2,Win32,60.0240096,,,space,0.405,0,70,70,73,1,,,,,,,,,,,,,,,15,,
,,,,,,,,,,,,,,,,a,1,1.042,,,,,,,,0_targ_4_dist_green/trial23.png,0,a,easy,greenverival,60245c7c3df42d131232cedb,50,female,2021-05-03_11h56.27.782,search_v5,2021.1.2,Win32,60.0240096,,,space,0.373,0,71,71,101,1,,,,,,,,,,,,,,,4,,
,,,,,,,,,,,,,,,,a,1,0.75,,,,,,,,0_targ_10_dist_green/trial16.png,0,a,mid,greenverival,60245c7c3df42d131232cedb,50,female,2021-05-03_11h56.27.782,search_v5,2021.1.2,Win32,60.0240096,,,space,0.305,0,72,72,117,1,,,,,,,,,,,,,,,10,,
,,,,,,,,,,,,,,,,a,1,0.834,,,,,,,,0_targ_4_dist_green/trial18.png,0,a,easy,greenverival,60245c7c3df42d131232cedb,50,female,2021-05-03_11h56.27.782,search_v5,2021.1.2,Win32,60.0240096,,,space,0.268,0,73,73,96,1,,,,,,,,,,,,,,,4,,
,,,,,,,,,,,,,,,,p,1,1.329,,,,,,,,15_dist_green/trial7.png,1,p,hard,greenverival,60245c7c3df42d131232cedb,50,female,2021-05-03_11h56.27.782,search_v5,2021.1.2,Win32,60.0240096,,,space,0.291,0,74,74,62,1,,,,,,,,,,,,,,,15,,
,,,,,,,,,,,,,,,,a,1,1.224,,,,,,,,0_targ_10_dist_green/trial9.png,0,a,mid,greenverival,60245c7c3df42d131232cedb,50,female,2021-05-03_11h56.27.782,search_v5,2021.1.2,Win32,60.0240096,,,space,0.582,0,75,75,110,1,,,,,,,,,,,,,,,10,,
,,,,,,,,,,,,,,,,a,1,0.769,,,,,,,,0_targ_10_dist_green/trial2.png,0,a,mid,greenverival,60245c7c3df42d131232cedb,50,female,2021-05-03_11h56.27.782,search_v5,2021.1.2,Win32,60.0240096,,,space,0.254,0,76,76,9,1,,,,,,,,,,,,,,,10,,
,,,,,,,,,,,,,,,,a,1,0.582,,,,,,,,0_targ_4_dist_green/trial14.png,0,a,easy,greenverival,60245c7c3df42d131232cedb,50,female,2021-05-03_11h56.27.782,search_v5,2021.1.2,Win32,60.0240096,,,space,0.33,0,77,77,92,1,,,,,,,,,,,,,,,4,,
,,,,,,,,,,,,,,,,p,1,0.962,,,,,,,,3_dist_green/trial19.png,1,p,easy,greenverival,60245c7c3df42d131232cedb,50,female,2021-05-03_11h56.27.782,search_v5,2021.1.2,Win32,60.0240096,,,space,0.303,0,78,78,28,1,,,,,,,,,,,,,,,3,,
,,,,,,,,,,,,,,,,p,1,0.725,,,,,,,,3_dist_green/trial24.png,1,p,easy,greenverival,60245c7c3df42d131232cedb,50,female,2021-05-03_11h56.27.782,search_v5,2021.1.2,Win32,60.0240096,,,space,0.336,0,79,79,33,1,,,,,,,,,,,,,,,3,,
,,,,,,,,,,,,,,,,p,1,2,,,,,,,,15_dist_green/trial16.png,1,p,hard,greenverival,60245c7c3df42d131232cedb,50,female,2021-05-03_11h56.27.782,search_v5,2021.1.2,Win32,60.0240096,,,space,0.4,0,80,80,71,1,,,,,,,,,,,,,,,15,,
,,,,,,,,,,,,,,,,a,1,1.656,,,,,,,,0_targ_16_dist_green/trial15.png,0,a,hard,greenverival,60245c7c3df42d131232cedb,50,female,2021-05-03_11h56.27.782,search_v5,2021.1.2,Win32,60.0240096,,,space,0.383,0,81,81,139,1,,,,,,,,,,,,,,,16,,
,,,,,,,,,,,,,,,,a,0,0.613,,,,,,,,9_dist_green/trial25.png,1,p,mid,greenverival,60245c7c3df42d131232cedb,50,female,2021-05-03_11h56.27.782,search_v5,2021.1.2,Win32,60.0240096,,,space,2.065,0,82,82,57,1,,,,,,,,,,,,,,,9,,
,,,,,,,,,,,,,,,,p,1,1.577,,,,,,,,3_dist_green/trial4.png,1,p,easy,greenverival,60245c7c3df42d131232cedb,50,female,2021-05-03_11h56.27.782,search_v5,2021.1.2,Win32,60.0240096,,,space,0.349,0,83,83,13,1,,,,,,,,,,,,,,,3,,
,,,,,,,,,,,,,,,,a,1,1.491,,,,,,,,0_targ_10_dist_green/trial14.png,0,a,mid,greenverival,60245c7c3df42d131232cedb,50,female,2021-05-03_11h56.27.782,search_v5,2021.1.2,Win32,60.0240096,,,space,0.32,0,84,84,115,1,,,,,,,,,,,,,,,10,,
,,,,,,,,,,,,,,,,p,1,1.804,,,,,,,,9_dist_green/trial11.png,1,p,mid,greenverival,60245c7c3df42d131232cedb,50,female,2021-05-03_11h56.27.782,search_v5,2021.1.2,Win32,60.0240096,,,space,0.333,0,85,85,43,1,,,,,,,,,,,,,,,9,,
,,,,,,,,,,,,,,,,a,1,1.516,,,,,,,,0_targ_10_dist_green/trial7.png,0,a,mid,greenverival,60245c7c3df42d131232cedb,50,female,2021-05-03_11h56.27.782,search_v5,2021.1.2,Win32,60.0240096,,,space,0.224,0,86,86,108,1,,,,,,,,,,,,,,,10,,
,,,,,,,,,,,,,,,,a,1,0.909,,,,,,,,0_targ_10_dist_green/trial13.png,0,a,mid,greenverival,60245c7c3df42d131232cedb,50,female,2021-05-03_11h56.27.782,search_v5,2021.1.2,Win32,60.0240096,,,space,0.375,0,87,87,114,1,,,,,,,,,,,,,,,10,,
,,,,,,,,,,,,,,,,p,1,1.047,,,,,,,,15_dist_green/trial22.png,1,p,hard,greenverival,60245c7c3df42d131232cedb,50,female,2021-05-03_11h56.27.782,search_v5,2021.1.2,Win32,60.0240096,,,space,0.373,0,88,88,77,1,,,,,,,,,,,,,,,15,,
,,,,,,,,,,,,,,,,a,1,1.614,,,,,,,,0_targ_16_dist_green/trial3.png,0,a,hard,greenverival,60245c7c3df42d131232cedb,50,female,2021-05-03_11h56.27.782,search_v5,2021.1.2,Win32,60.0240096,,,space,0.322,0,89,89,127,1,,,,,,,,,,,,,,,16,,
,,,,,,,,,,,,,,,,p,1,1.618,,,,,,,,15_dist_green/trial8.png,1,p,hard,greenverival,60245c7c3df42d131232cedb,50,female,2021-05-03_11h56.27.782,search_v5,2021.1.2,Win32,60.0240096,,,space,0.374,0,90,90,63,1,,,,,,,,,,,,,,,15,,
,,,,,,,,,,,,,,,,a,1,1.481,,,,,,,,0_targ_10_dist_green/trial8.png,0,a,mid,greenverival,60245c7c3df42d131232cedb,50,female,2021-05-03_11h56.27.782,search_v5,2021.1.2,Win32,60.0240096,,,space,0.335,0,91,91,109,1,,,,,,,,,,,,,,,10,,
,,,,,,,,,,,,,,,,a,1,0.682,,,,,,,,0_targ_4_dist_green/trial4.png,0,a,easy,greenverival,60245c7c3df42d131232cedb,50,female,2021-05-03_11h56.27.782,search_v5,2021.1.2,Win32,60.0240096,,,space,0.335,0,92,92,82,1,,,,,,,,,,,,,,,4,,
,,,,,,,,,,,,,,,,p,1,1.288,,,,,,,,15_dist_green/trial15.png,1,p,hard,greenverival,60245c7c3df42d131232cedb,50,female,2021-05-03_11h56.27.782,search_v5,2021.1.2,Win32,60.0240096,,,space,0.285,0,93,93,70,1,,,,,,,,,,,,,,,15,,
,,,,,,,,,,,,,,,,a,1,0.992,,,,,,,,0_targ_4_dist_green/trial24.png,0,a,easy,greenverival,60245c7c3df42d131232cedb,50,female,2021-05-03_11h56.27.782,search_v5,2021.1.2,Win32,60.0240096,,,space,0.371,0,94,94,102,1,,,,,,,,,,,,,,,4,,
