key_resp_6.keys,key_resp_6.rt,key_resp_7.keys,key_resp_7.rt,key_resp_8.keys,key_resp_8.rt,key_resp_10.keys,key_resp_10.rt,key_resp_9.keys,key_resp_9.rt,key_resp_3.keys,key_resp_3.rt,key_resp_5.keys,key_resp_5.rt,key_resp.keys,key_resp.corr,key_resp.rt,key_resp_4.keys,key_resp_4.rt,trials.thisRepN,trials.thisTrialN,trials.thisN,trials.thisIndex,trials.ran,ImageFile,tarPos,tarSize,targPres,numDist,targetName,correctAns,participant,age,sex,date,expName,psychopyVersion,OS,frameRate,fbclid,trials_2.thisRepN,trials_2.thisTrialN,trials_2.thisN,trials_2.thisIndex,trials_2.ran,condsFile,targName,instructionText,colTarget,sizeTarg,posit
space,3.109,space,19.106,space,20.374,space,21.147,space,3.598,space,21.434,space,6.151,p,0,0.721,space,4.257,0,0,0,130,1,0_targ_4_dist_red/trial6.png,,,0,4,redHorizontal,a,20,26,Male,2021-02-18_09h18.08.196,exp11,2020.2.6,MacIntel,60,IwAR3H9iXHuOt4DW-9NG6f5m0zeAfDMKEA8ew_voABQPA4tzQljbzuYQBvltQ,,,,,,,,,,,
,,,,,,,,,,,,,,p,1,0.664,space,3.509,0,1,1,13,1,0_dist_red/trial14.png,,,1,0,redHorizontal,p,20,26,Male,2021-02-18_09h18.08.196,exp11,2020.2.6,MacIntel,60,IwAR3H9iXHuOt4DW-9NG6f5m0zeAfDMKEA8ew_voABQPA4tzQljbzuYQBvltQ,,,,,,,,,,,
,,,,,,,,,,,,,,p,1,0.98,space,2.229,0,2,2,51,1,9_dist_red/trial2.png,,,1,9,redHorizontal,p,20,26,Male,2021-02-18_09h18.08.196,exp11,2020.2.6,MacIntel,60,IwAR3H9iXHuOt4DW-9NG6f5m0zeAfDMKEA8ew_voABQPA4tzQljbzuYQBvltQ,,,,,,,,,,,
,,,,,,,,,,,,,,p,0,0.578,space,1.869,0,3,3,192,1,0_targ_16_dist_red/trial18.png,,,0,16,redHorizontal,a,20,26,Male,2021-02-18_09h18.08.196,exp11,2020.2.6,MacIntel,60,IwAR3H9iXHuOt4DW-9NG6f5m0zeAfDMKEA8ew_voABQPA4tzQljbzuYQBvltQ,,,,,,,,,,,
,,,,,,,,,,,,,,a,0,1.331,space,0.79,0,4,4,77,1,15_dist_red/trial3.png,,,1,15,redHorizontal,p,20,26,Male,2021-02-18_09h18.08.196,exp11,2020.2.6,MacIntel,60,IwAR3H9iXHuOt4DW-9NG6f5m0zeAfDMKEA8ew_voABQPA4tzQljbzuYQBvltQ,,,,,,,,,,,
,,,,,,,,,,,,,,a,1,0.973,space,2.844,0,5,5,151,1,0_targ_10_dist_red/trial2.png,,,0,10,redHorizontal,a,20,26,Male,2021-02-18_09h18.08.196,exp11,2020.2.6,MacIntel,60,IwAR3H9iXHuOt4DW-9NG6f5m0zeAfDMKEA8ew_voABQPA4tzQljbzuYQBvltQ,,,,,,,,,,,
,,,,,,,,,,,,,,p,1,0.709,space,2.918,0,6,6,2,1,0_dist_red/trial3.png,,,1,0,redHorizontal,p,20,26,Male,2021-02-18_09h18.08.196,exp11,2020.2.6,MacIntel,60,IwAR3H9iXHuOt4DW-9NG6f5m0zeAfDMKEA8ew_voABQPA4tzQljbzuYQBvltQ,,,,,,,,,,,
,,,,,,,,,,,,,,a,0,0.483,space,1.281,0,7,7,35,1,3_dist_red/trial11.png,,,1,3,redHorizontal,p,20,26,Male,2021-02-18_09h18.08.196,exp11,2020.2.6,MacIntel,60,IwAR3H9iXHuOt4DW-9NG6f5m0zeAfDMKEA8ew_voABQPA4tzQljbzuYQBvltQ,,,,,,,,,,,
,,,,,,,,,,,,,,p,1,0.582,space,5.875,0,8,8,1,1,0_dist_red/trial2.png,,,1,0,redHorizontal,p,20,26,Male,2021-02-18_09h18.08.196,exp11,2020.2.6,MacIntel,60,IwAR3H9iXHuOt4DW-9NG6f5m0zeAfDMKEA8ew_voABQPA4tzQljbzuYQBvltQ,,,,,,,,,,,
,,,,,,,,,,,,,,a,1,0.708,space,4.847,0,9,9,158,1,0_targ_10_dist_red/trial9.png,,,0,10,redHorizontal,a,20,26,Male,2021-02-18_09h18.08.196,exp11,2020.2.6,MacIntel,60,IwAR3H9iXHuOt4DW-9NG6f5m0zeAfDMKEA8ew_voABQPA4tzQljbzuYQBvltQ,,,,,,,,,,,
,,,,,,,,,,,,,,a,1,0.633,space,4.689,0,10,10,177,1,0_targ_16_dist_red/trial3.png,,,0,16,redHorizontal,a,20,26,Male,2021-02-18_09h18.08.196,exp11,2020.2.6,MacIntel,60,IwAR3H9iXHuOt4DW-9NG6f5m0zeAfDMKEA8ew_voABQPA4tzQljbzuYQBvltQ,,,,,,,,,,,
,,,,,,,,,,,,,,p,1,0.694,space,4.347,0,11,11,47,1,3_dist_red/trial23.png,,,1,3,redHorizontal,p,20,26,Male,2021-02-18_09h18.08.196,exp11,2020.2.6,MacIntel,60,IwAR3H9iXHuOt4DW-9NG6f5m0zeAfDMKEA8ew_voABQPA4tzQljbzuYQBvltQ,,,,,,,,,,,
,,,,,,,,,,,,,,p,1,0.682,space,3.8,0,12,12,52,1,9_dist_red/trial3.png,,,1,9,redHorizontal,p,20,26,Male,2021-02-18_09h18.08.196,exp11,2020.2.6,MacIntel,60,IwAR3H9iXHuOt4DW-9NG6f5m0zeAfDMKEA8ew_voABQPA4tzQljbzuYQBvltQ,,,,,,,,,,,
,,,,,,,,,,,,,,a,1,0.525,space,4.115,0,13,13,138,1,0_targ_4_dist_red/trial14.png,,,0,4,redHorizontal,a,20,26,Male,2021-02-18_09h18.08.196,exp11,2020.2.6,MacIntel,60,IwAR3H9iXHuOt4DW-9NG6f5m0zeAfDMKEA8ew_voABQPA4tzQljbzuYQBvltQ,,,,,,,,,,,
,,,,,,,,,,,,,,a,1,0.63,space,3.731,0,14,14,181,1,0_targ_16_dist_red/trial7.png,,,0,16,redHorizontal,a,20,26,Male,2021-02-18_09h18.08.196,exp11,2020.2.6,MacIntel,60,IwAR3H9iXHuOt4DW-9NG6f5m0zeAfDMKEA8ew_voABQPA4tzQljbzuYQBvltQ,,,,,,,,,,,
,,,,,,,,,,,,,,a,1,0.632,space,5.423,0,15,15,144,1,0_targ_4_dist_red/trial20.png,,,0,4,redHorizontal,a,20,26,Male,2021-02-18_09h18.08.196,exp11,2020.2.6,MacIntel,60,IwAR3H9iXHuOt4DW-9NG6f5m0zeAfDMKEA8ew_voABQPA4tzQljbzuYQBvltQ,,,,,,,,,,,
,,,,,,,,,,,,,,p,1,0.561,space,5.378,0,16,16,16,1,0_dist_red/trial17.png,,,1,0,redHorizontal,p,20,26,Male,2021-02-18_09h18.08.196,exp11,2020.2.6,MacIntel,60,IwAR3H9iXHuOt4DW-9NG6f5m0zeAfDMKEA8ew_voABQPA4tzQljbzuYQBvltQ,,,,,,,,,,,
,,,,,,,,,,,,,,p,1,0.747,space,4.359,0,17,17,41,1,3_dist_red/trial17.png,,,1,3,redHorizontal,p,20,26,Male,2021-02-18_09h18.08.196,exp11,2020.2.6,MacIntel,60,IwAR3H9iXHuOt4DW-9NG6f5m0zeAfDMKEA8ew_voABQPA4tzQljbzuYQBvltQ,,,,,,,,,,,
,,,,,,,,,,,,,,a,1,0.582,space,4.412,0,18,18,153,1,0_targ_10_dist_red/trial4.png,,,0,10,redHorizontal,a,20,26,Male,2021-02-18_09h18.08.196,exp11,2020.2.6,MacIntel,60,IwAR3H9iXHuOt4DW-9NG6f5m0zeAfDMKEA8ew_voABQPA4tzQljbzuYQBvltQ,,,,,,,,,,,
,,,,,,,,,,,,,,a,1,0.634,space,3.584,0,19,19,150,1,0_targ_10_dist_red/trial1.png,,,0,10,redHorizontal,a,20,26,Male,2021-02-18_09h18.08.196,exp11,2020.2.6,MacIntel,60,IwAR3H9iXHuOt4DW-9NG6f5m0zeAfDMKEA8ew_voABQPA4tzQljbzuYQBvltQ,,,,,,,,,,,
,,,,,,,,,,,,,,a,1,0.498,space,4.608,0,20,20,143,1,0_targ_4_dist_red/trial19.png,,,0,4,redHorizontal,a,20,26,Male,2021-02-18_09h18.08.196,exp11,2020.2.6,MacIntel,60,IwAR3H9iXHuOt4DW-9NG6f5m0zeAfDMKEA8ew_voABQPA4tzQljbzuYQBvltQ,,,,,,,,,,,
,,,,,,,,,,,,,,a,1,0.565,space,5.521,0,21,21,173,1,0_targ_10_dist_red/trial24.png,,,0,10,redHorizontal,a,20,26,Male,2021-02-18_09h18.08.196,exp11,2020.2.6,MacIntel,60,IwAR3H9iXHuOt4DW-9NG6f5m0zeAfDMKEA8ew_voABQPA4tzQljbzuYQBvltQ,,,,,,,,,,,
,,,,,,,,,,,,,,a,1,0.393,space,6.553,0,22,22,176,1,0_targ_16_dist_red/trial2.png,,,0,16,redHorizontal,a,20,26,Male,2021-02-18_09h18.08.196,exp11,2020.2.6,MacIntel,60,IwAR3H9iXHuOt4DW-9NG6f5m0zeAfDMKEA8ew_voABQPA4tzQljbzuYQBvltQ,,,,,,,,,,,
,,,,,,,,,,,,,,a,1,0.594,space,4.775,0,23,23,115,1,0_targ_1_dist_red/trial6.png,,,0,1,redHorizontal,a,20,26,Male,2021-02-18_09h18.08.196,exp11,2020.2.6,MacIntel,60,IwAR3H9iXHuOt4DW-9NG6f5m0zeAfDMKEA8ew_voABQPA4tzQljbzuYQBvltQ,,,,,,,,,,,
,,,,,,,,,,,,,,a,1,0.519,space,3.782,0,24,24,134,1,0_targ_4_dist_red/trial10.png,,,0,4,redHorizontal,a,20,26,Male,2021-02-18_09h18.08.196,exp11,2020.2.6,MacIntel,60,IwAR3H9iXHuOt4DW-9NG6f5m0zeAfDMKEA8ew_voABQPA4tzQljbzuYQBvltQ,,,,,,,,,,,
,,,,,,,,,,,,,,p,1,0.432,space,4.432,0,25,25,23,1,0_dist_red/trial24.png,,,1,0,redHorizontal,p,20,26,Male,2021-02-18_09h18.08.196,exp11,2020.2.6,MacIntel,60,IwAR3H9iXHuOt4DW-9NG6f5m0zeAfDMKEA8ew_voABQPA4tzQljbzuYQBvltQ,,,,,,,,,,,
,,,,,,,,,,,,,,a,0,0.465,space,6.767,0,26,26,81,1,15_dist_red/trial7.png,,,1,15,redHorizontal,p,20,26,Male,2021-02-18_09h18.08.196,exp11,2020.2.6,MacIntel,60,IwAR3H9iXHuOt4DW-9NG6f5m0zeAfDMKEA8ew_voABQPA4tzQljbzuYQBvltQ,,,,,,,,,,,
,,,,,,,,,,,,,,a,1,0.577,space,7.488,0,27,27,156,1,0_targ_10_dist_red/trial7.png,,,0,10,redHorizontal,a,20,26,Male,2021-02-18_09h18.08.196,exp11,2020.2.6,MacIntel,60,IwAR3H9iXHuOt4DW-9NG6f5m0zeAfDMKEA8ew_voABQPA4tzQljbzuYQBvltQ,,,,,,,,,,,
,,,,,,,,,,,,,,a,1,0.532,space,7.286,0,28,28,154,1,0_targ_10_dist_red/trial5.png,,,0,10,redHorizontal,a,20,26,Male,2021-02-18_09h18.08.196,exp11,2020.2.6,MacIntel,60,IwAR3H9iXHuOt4DW-9NG6f5m0zeAfDMKEA8ew_voABQPA4tzQljbzuYQBvltQ,,,,,,,,,,,
,,,,,,,,,,,,,,a,0,0.433,space,3.709,0,29,29,49,1,3_dist_red/trial25.png,,,1,3,redHorizontal,p,20,26,Male,2021-02-18_09h18.08.196,exp11,2020.2.6,MacIntel,60,IwAR3H9iXHuOt4DW-9NG6f5m0zeAfDMKEA8ew_voABQPA4tzQljbzuYQBvltQ,,,,,,,,,,,
,,,,,,,,,,,,,,a,1,0.811,space,6.257,0,30,30,186,1,0_targ_16_dist_red/trial12.png,,,0,16,redHorizontal,a,20,26,Male,2021-02-18_09h18.08.196,exp11,2020.2.6,MacIntel,60,IwAR3H9iXHuOt4DW-9NG6f5m0zeAfDMKEA8ew_voABQPA4tzQljbzuYQBvltQ,,,,,,,,,,,
,,,,,,,,,,,,,,a,1,0.582,space,2.555,0,31,31,123,1,0_targ_1_dist_red/trial24.png,,,0,1,redHorizontal,a,20,26,Male,2021-02-18_09h18.08.196,exp11,2020.2.6,MacIntel,60,IwAR3H9iXHuOt4DW-9NG6f5m0zeAfDMKEA8ew_voABQPA4tzQljbzuYQBvltQ,,,,,,,,,,,
,,,,,,,,,,,,,,p,1,0.449,space,1.686,0,32,32,7,1,0_dist_red/trial8.png,,,1,0,redHorizontal,p,20,26,Male,2021-02-18_09h18.08.196,exp11,2020.2.6,MacIntel,60,IwAR3H9iXHuOt4DW-9NG6f5m0zeAfDMKEA8ew_voABQPA4tzQljbzuYQBvltQ,,,,,,,,,,,
,,,,,,,,,,,,,,p,1,0.512,space,1.306,0,33,33,38,1,3_dist_red/trial14.png,,,1,3,redHorizontal,p,20,26,Male,2021-02-18_09h18.08.196,exp11,2020.2.6,MacIntel,60,IwAR3H9iXHuOt4DW-9NG6f5m0zeAfDMKEA8ew_voABQPA4tzQljbzuYQBvltQ,,,,,,,,,,,
,,,,,,,,,,,,,,p,1,0.609,space,1.617,0,34,34,37,1,3_dist_red/trial13.png,,,1,3,redHorizontal,p,20,26,Male,2021-02-18_09h18.08.196,exp11,2020.2.6,MacIntel,60,IwAR3H9iXHuOt4DW-9NG6f5m0zeAfDMKEA8ew_voABQPA4tzQljbzuYQBvltQ,,,,,,,,,,,
,,,,,,,,,,,,,,p,1,0.495,space,1.504,0,35,35,6,1,0_dist_red/trial7.png,,,1,0,redHorizontal,p,20,26,Male,2021-02-18_09h18.08.196,exp11,2020.2.6,MacIntel,60,IwAR3H9iXHuOt4DW-9NG6f5m0zeAfDMKEA8ew_voABQPA4tzQljbzuYQBvltQ,,,,,,,,,,,
,,,,,,,,,,,,,,a,0,0.579,space,1.332,0,36,36,40,1,3_dist_red/trial16.png,,,1,3,redHorizontal,p,20,26,Male,2021-02-18_09h18.08.196,exp11,2020.2.6,MacIntel,60,IwAR3H9iXHuOt4DW-9NG6f5m0zeAfDMKEA8ew_voABQPA4tzQljbzuYQBvltQ,,,,,,,,,,,
,,,,,,,,,,,,,,p,1,0.648,space,4.323,0,37,37,76,1,15_dist_red/trial2.png,,,1,15,redHorizontal,p,20,26,Male,2021-02-18_09h18.08.196,exp11,2020.2.6,MacIntel,60,IwAR3H9iXHuOt4DW-9NG6f5m0zeAfDMKEA8ew_voABQPA4tzQljbzuYQBvltQ,,,,,,,,,,,
,,,,,,,,,,,,,,a,1,0.845,space,5.188,0,38,38,160,1,0_targ_10_dist_red/trial11.png,,,0,10,redHorizontal,a,20,26,Male,2021-02-18_09h18.08.196,exp11,2020.2.6,MacIntel,60,IwAR3H9iXHuOt4DW-9NG6f5m0zeAfDMKEA8ew_voABQPA4tzQljbzuYQBvltQ,,,,,,,,,,,
,,,,,,,,,,,,,,p,1,0.759,space,3.311,0,39,39,74,1,9_dist_red/trial25.png,,,1,9,redHorizontal,p,20,26,Male,2021-02-18_09h18.08.196,exp11,2020.2.6,MacIntel,60,IwAR3H9iXHuOt4DW-9NG6f5m0zeAfDMKEA8ew_voABQPA4tzQljbzuYQBvltQ,,,,,,,,,,,
,,,,,,,,,,,,,,p,1,0.895,space,1.572,0,40,40,58,1,9_dist_red/trial9.png,,,1,9,redHorizontal,p,20,26,Male,2021-02-18_09h18.08.196,exp11,2020.2.6,MacIntel,60,IwAR3H9iXHuOt4DW-9NG6f5m0zeAfDMKEA8ew_voABQPA4tzQljbzuYQBvltQ,,,,,,,,,,,
,,,,,,,,,,,,,,p,1,0.551,space,0.916,0,41,41,28,1,3_dist_red/trial4.png,,,1,3,redHorizontal,p,20,26,Male,2021-02-18_09h18.08.196,exp11,2020.2.6,MacIntel,60,IwAR3H9iXHuOt4DW-9NG6f5m0zeAfDMKEA8ew_voABQPA4tzQljbzuYQBvltQ,,,,,,,,,,,
,,,,,,,,,,,,,,a,1,0.612,space,0.92,0,42,42,117,1,0_targ_1_dist_red/trial18.png,,,0,1,redHorizontal,a,20,26,Male,2021-02-18_09h18.08.196,exp11,2020.2.6,MacIntel,60,IwAR3H9iXHuOt4DW-9NG6f5m0zeAfDMKEA8ew_voABQPA4tzQljbzuYQBvltQ,,,,,,,,,,,
,,,,,,,,,,,,,,p,1,0.502,space,0.783,0,43,43,43,1,3_dist_red/trial19.png,,,1,3,redHorizontal,p,20,26,Male,2021-02-18_09h18.08.196,exp11,2020.2.6,MacIntel,60,IwAR3H9iXHuOt4DW-9NG6f5m0zeAfDMKEA8ew_voABQPA4tzQljbzuYQBvltQ,,,,,,,,,,,
,,,,,,,,,,,,,,a,1,0.613,space,0.901,0,44,44,145,1,0_targ_4_dist_red/trial21.png,,,0,4,redHorizontal,a,20,26,Male,2021-02-18_09h18.08.196,exp11,2020.2.6,MacIntel,60,IwAR3H9iXHuOt4DW-9NG6f5m0zeAfDMKEA8ew_voABQPA4tzQljbzuYQBvltQ,,,,,,,,,,,
,,,,,,,,,,,,,,a,1,0.468,space,0.584,0,45,45,140,1,0_targ_4_dist_red/trial6.png,,,0,4,redHorizontal,a,20,26,Male,2021-02-18_09h18.08.196,exp11,2020.2.6,MacIntel,60,IwAR3H9iXHuOt4DW-9NG6f5m0zeAfDMKEA8ew_voABQPA4tzQljbzuYQBvltQ,,,,,,,,,,,
,,,,,,,,,,,,,,a,0,0.495,space,2.279,0,46,46,67,1,9_dist_red/trial18.png,,,1,9,redHorizontal,p,20,26,Male,2021-02-18_09h18.08.196,exp11,2020.2.6,MacIntel,60,IwAR3H9iXHuOt4DW-9NG6f5m0zeAfDMKEA8ew_voABQPA4tzQljbzuYQBvltQ,,,,,,,,,,,
,,,,,,,,,,,,,,a,1,0.982,space,3.276,0,47,47,183,1,0_targ_16_dist_red/trial9.png,,,0,16,redHorizontal,a,20,26,Male,2021-02-18_09h18.08.196,exp11,2020.2.6,MacIntel,60,IwAR3H9iXHuOt4DW-9NG6f5m0zeAfDMKEA8ew_voABQPA4tzQljbzuYQBvltQ,,,,,,,,,,,
,,,,,,,,,,,,,,a,1,0.914,space,5.229,0,48,48,194,1,0_targ_16_dist_red/trial20.png,,,0,16,redHorizontal,a,20,26,Male,2021-02-18_09h18.08.196,exp11,2020.2.6,MacIntel,60,IwAR3H9iXHuOt4DW-9NG6f5m0zeAfDMKEA8ew_voABQPA4tzQljbzuYQBvltQ,,,,,,,,,,,
,,,,,,,,,,,,,,p,1,0.648,space,1.183,0,49,49,34,1,3_dist_red/trial10.png,,,1,3,redHorizontal,p,20,26,Male,2021-02-18_09h18.08.196,exp11,2020.2.6,MacIntel,60,IwAR3H9iXHuOt4DW-9NG6f5m0zeAfDMKEA8ew_voABQPA4tzQljbzuYQBvltQ,,,,,,,,,,,
,,,,,,,,,,,,,,p,1,0.492,space,0.851,0,50,50,3,1,0_dist_red/trial4.png,,,1,0,redHorizontal,p,20,26,Male,2021-02-18_09h18.08.196,exp11,2020.2.6,MacIntel,60,IwAR3H9iXHuOt4DW-9NG6f5m0zeAfDMKEA8ew_voABQPA4tzQljbzuYQBvltQ,,,,,,,,,,,
,,,,,,,,,,,,,,p,1,0.573,space,0.841,0,51,51,48,1,3_dist_red/trial24.png,,,1,3,redHorizontal,p,20,26,Male,2021-02-18_09h18.08.196,exp11,2020.2.6,MacIntel,60,IwAR3H9iXHuOt4DW-9NG6f5m0zeAfDMKEA8ew_voABQPA4tzQljbzuYQBvltQ,,,,,,,,,,,
,,,,,,,,,,,,,,a,1,0.734,space,1.066,0,52,52,182,1,0_targ_16_dist_red/trial8.png,,,0,16,redHorizontal,a,20,26,Male,2021-02-18_09h18.08.196,exp11,2020.2.6,MacIntel,60,IwAR3H9iXHuOt4DW-9NG6f5m0zeAfDMKEA8ew_voABQPA4tzQljbzuYQBvltQ,,,,,,,,,,,
,,,,,,,,,,,,,,p,1,0.519,space,0.972,0,53,53,42,1,3_dist_red/trial18.png,,,1,3,redHorizontal,p,20,26,Male,2021-02-18_09h18.08.196,exp11,2020.2.6,MacIntel,60,IwAR3H9iXHuOt4DW-9NG6f5m0zeAfDMKEA8ew_voABQPA4tzQljbzuYQBvltQ,,,,,,,,,,,
,,,,,,,,,,,,,,a,1,0.662,space,0.937,0,54,54,171,1,0_targ_10_dist_red/trial22.png,,,0,10,redHorizontal,a,20,26,Male,2021-02-18_09h18.08.196,exp11,2020.2.6,MacIntel,60,IwAR3H9iXHuOt4DW-9NG6f5m0zeAfDMKEA8ew_voABQPA4tzQljbzuYQBvltQ,,,,,,,,,,,
,,,,,,,,,,,,,,p,0,0.543,space,0.667,0,55,55,110,1,0_targ_1_dist_red/trial11.png,,,0,1,redHorizontal,a,20,26,Male,2021-02-18_09h18.08.196,exp11,2020.2.6,MacIntel,60,IwAR3H9iXHuOt4DW-9NG6f5m0zeAfDMKEA8ew_voABQPA4tzQljbzuYQBvltQ,,,,,,,,,,,
,,,,,,,,,,,,,,p,1,0.478,space,1.019,0,56,56,21,1,0_dist_red/trial22.png,,,1,0,redHorizontal,p,20,26,Male,2021-02-18_09h18.08.196,exp11,2020.2.6,MacIntel,60,IwAR3H9iXHuOt4DW-9NG6f5m0zeAfDMKEA8ew_voABQPA4tzQljbzuYQBvltQ,,,,,,,,,,,
,,,,,,,,,,,,,,p,1,0.53,space,1.113,0,57,57,87,1,15_dist_red/trial13.png,,,1,15,redHorizontal,p,20,26,Male,2021-02-18_09h18.08.196,exp11,2020.2.6,MacIntel,60,IwAR3H9iXHuOt4DW-9NG6f5m0zeAfDMKEA8ew_voABQPA4tzQljbzuYQBvltQ,,,,,,,,,,,
,,,,,,,,,,,,,,a,1,0.593,space,0.873,0,58,58,104,1,0_targ_1_dist_red/trial5.png,,,0,1,redHorizontal,a,20,26,Male,2021-02-18_09h18.08.196,exp11,2020.2.6,MacIntel,60,IwAR3H9iXHuOt4DW-9NG6f5m0zeAfDMKEA8ew_voABQPA4tzQljbzuYQBvltQ,,,,,,,,,,,
,,,,,,,,,,,,,,p,1,0.448,space,0.988,0,59,59,12,1,0_dist_red/trial13.png,,,1,0,redHorizontal,p,20,26,Male,2021-02-18_09h18.08.196,exp11,2020.2.6,MacIntel,60,IwAR3H9iXHuOt4DW-9NG6f5m0zeAfDMKEA8ew_voABQPA4tzQljbzuYQBvltQ,,,,,,,,,,,
,,,,,,,,,,,,,,a,1,0.531,space,1.072,0,60,60,170,1,0_targ_10_dist_red/trial21.png,,,0,10,redHorizontal,a,20,26,Male,2021-02-18_09h18.08.196,exp11,2020.2.6,MacIntel,60,IwAR3H9iXHuOt4DW-9NG6f5m0zeAfDMKEA8ew_voABQPA4tzQljbzuYQBvltQ,,,,,,,,,,,
,,,,,,,,,,,,,,p,1,0.568,space,1.332,0,61,61,36,1,3_dist_red/trial12.png,,,1,3,redHorizontal,p,20,26,Male,2021-02-18_09h18.08.196,exp11,2020.2.6,MacIntel,60,IwAR3H9iXHuOt4DW-9NG6f5m0zeAfDMKEA8ew_voABQPA4tzQljbzuYQBvltQ,,,,,,,,,,,
,,,,,,,,,,,,,,a,0,0.75,space,3.094,0,62,62,65,1,9_dist_red/trial16.png,,,1,9,redHorizontal,p,20,26,Male,2021-02-18_09h18.08.196,exp11,2020.2.6,MacIntel,60,IwAR3H9iXHuOt4DW-9NG6f5m0zeAfDMKEA8ew_voABQPA4tzQljbzuYQBvltQ,,,,,,,,,,,
,,,,,,,,,,,,,,p,1,0.667,space,1.421,0,63,63,25,1,3_dist_red/trial1.png,,,1,3,redHorizontal,p,20,26,Male,2021-02-18_09h18.08.196,exp11,2020.2.6,MacIntel,60,IwAR3H9iXHuOt4DW-9NG6f5m0zeAfDMKEA8ew_voABQPA4tzQljbzuYQBvltQ,,,,,,,,,,,
,,,,,,,,,,,,,,p,1,0.715,space,1.421,0,64,64,89,1,15_dist_red/trial15.png,,,1,15,redHorizontal,p,20,26,Male,2021-02-18_09h18.08.196,exp11,2020.2.6,MacIntel,60,IwAR3H9iXHuOt4DW-9NG6f5m0zeAfDMKEA8ew_voABQPA4tzQljbzuYQBvltQ,,,,,,,,,,,
,,,,,,,,,,,,,,p,1,0.495,space,1.154,0,65,65,22,1,0_dist_red/trial23.png,,,1,0,redHorizontal,p,20,26,Male,2021-02-18_09h18.08.196,exp11,2020.2.6,MacIntel,60,IwAR3H9iXHuOt4DW-9NG6f5m0zeAfDMKEA8ew_voABQPA4tzQljbzuYQBvltQ,,,,,,,,,,,
,,,,,,,,,,,,,,p,1,0.427,space,1.098,0,66,66,10,1,0_dist_red/trial11.png,,,1,0,redHorizontal,p,20,26,Male,2021-02-18_09h18.08.196,exp11,2020.2.6,MacIntel,60,IwAR3H9iXHuOt4DW-9NG6f5m0zeAfDMKEA8ew_voABQPA4tzQljbzuYQBvltQ,,,,,,,,,,,
,,,,,,,,,,,,,,a,1,0.759,space,1.397,0,67,67,180,1,0_targ_16_dist_red/trial6.png,,,0,16,redHorizontal,a,20,26,Male,2021-02-18_09h18.08.196,exp11,2020.2.6,MacIntel,60,IwAR3H9iXHuOt4DW-9NG6f5m0zeAfDMKEA8ew_voABQPA4tzQljbzuYQBvltQ,,,,,,,,,,,
,,,,,,,,,,,,,,p,1,0.708,space,1.969,0,68,68,90,1,15_dist_red/trial16.png,,,1,15,redHorizontal,p,20,26,Male,2021-02-18_09h18.08.196,exp11,2020.2.6,MacIntel,60,IwAR3H9iXHuOt4DW-9NG6f5m0zeAfDMKEA8ew_voABQPA4tzQljbzuYQBvltQ,,,,,,,,,,,
,,,,,,,,,,,,,,p,1,0.442,space,1.172,0,69,69,15,1,0_dist_red/trial16.png,,,1,0,redHorizontal,p,20,26,Male,2021-02-18_09h18.08.196,exp11,2020.2.6,MacIntel,60,IwAR3H9iXHuOt4DW-9NG6f5m0zeAfDMKEA8ew_voABQPA4tzQljbzuYQBvltQ,,,,,,,,,,,
,,,,,,,,,,,,,,a,1,0.633,space,1.248,0,70,70,141,1,0_targ_4_dist_red/trial17.png,,,0,4,redHorizontal,a,20,26,Male,2021-02-18_09h18.08.196,exp11,2020.2.6,MacIntel,60,IwAR3H9iXHuOt4DW-9NG6f5m0zeAfDMKEA8ew_voABQPA4tzQljbzuYQBvltQ,,,,,,,,,,,
,,,,,,,,,,,,,,p,1,0.549,space,1.233,0,71,71,85,1,15_dist_red/trial11.png,,,1,15,redHorizontal,p,20,26,Male,2021-02-18_09h18.08.196,exp11,2020.2.6,MacIntel,60,IwAR3H9iXHuOt4DW-9NG6f5m0zeAfDMKEA8ew_voABQPA4tzQljbzuYQBvltQ,,,,,,,,,,,
,,,,,,,,,,,,,,p,1,0.531,space,0.981,0,72,72,27,1,3_dist_red/trial3.png,,,1,3,redHorizontal,p,20,26,Male,2021-02-18_09h18.08.196,exp11,2020.2.6,MacIntel,60,IwAR3H9iXHuOt4DW-9NG6f5m0zeAfDMKEA8ew_voABQPA4tzQljbzuYQBvltQ,,,,,,,,,,,
,,,,,,,,,,,,,,a,0,0.664,space,2.419,0,73,73,79,1,15_dist_red/trial5.png,,,1,15,redHorizontal,p,20,26,Male,2021-02-18_09h18.08.196,exp11,2020.2.6,MacIntel,60,IwAR3H9iXHuOt4DW-9NG6f5m0zeAfDMKEA8ew_voABQPA4tzQljbzuYQBvltQ,,,,,,,,,,,
,,,,,,,,,,,,,,a,1,0.694,space,1.353,0,74,74,188,1,0_targ_16_dist_red/trial14.png,,,0,16,redHorizontal,a,20,26,Male,2021-02-18_09h18.08.196,exp11,2020.2.6,MacIntel,60,IwAR3H9iXHuOt4DW-9NG6f5m0zeAfDMKEA8ew_voABQPA4tzQljbzuYQBvltQ,,,,,,,,,,,
,,,,,,,,,,,,,,a,1,0.791,space,1.588,0,75,75,109,1,0_targ_1_dist_red/trial10.png,,,0,1,redHorizontal,a,20,26,Male,2021-02-18_09h18.08.196,exp11,2020.2.6,MacIntel,60,IwAR3H9iXHuOt4DW-9NG6f5m0zeAfDMKEA8ew_voABQPA4tzQljbzuYQBvltQ,,,,,,,,,,,
,,,,,,,,,,,,,,p,1,0.501,space,1.223,0,76,76,9,1,0_dist_red/trial10.png,,,1,0,redHorizontal,p,20,26,Male,2021-02-18_09h18.08.196,exp11,2020.2.6,MacIntel,60,IwAR3H9iXHuOt4DW-9NG6f5m0zeAfDMKEA8ew_voABQPA4tzQljbzuYQBvltQ,,,,,,,,,,,
,,,,,,,,,,,,,,a,1,0.514,space,1.016,0,77,77,132,1,0_targ_4_dist_red/trial8.png,,,0,4,redHorizontal,a,20,26,Male,2021-02-18_09h18.08.196,exp11,2020.2.6,MacIntel,60,IwAR3H9iXHuOt4DW-9NG6f5m0zeAfDMKEA8ew_voABQPA4tzQljbzuYQBvltQ,,,,,,,,,,,
,,,,,,,,,,,,,,p,1,0.898,space,1.152,0,78,78,93,1,15_dist_red/trial19.png,,,1,15,redHorizontal,p,20,26,Male,2021-02-18_09h18.08.196,exp11,2020.2.6,MacIntel,60,IwAR3H9iXHuOt4DW-9NG6f5m0zeAfDMKEA8ew_voABQPA4tzQljbzuYQBvltQ,,,,,,,,,,,
,,,,,,,,,,,,,,p,1,0.76,space,1.665,0,79,79,55,1,9_dist_red/trial6.png,,,1,9,redHorizontal,p,20,26,Male,2021-02-18_09h18.08.196,exp11,2020.2.6,MacIntel,60,IwAR3H9iXHuOt4DW-9NG6f5m0zeAfDMKEA8ew_voABQPA4tzQljbzuYQBvltQ,,,,,,,,,,,
,,,,,,,,,,,,,,a,1,0.511,space,1.005,0,80,80,105,1,0_targ_1_dist_red/trial6.png,,,0,1,redHorizontal,a,20,26,Male,2021-02-18_09h18.08.196,exp11,2020.2.6,MacIntel,60,IwAR3H9iXHuOt4DW-9NG6f5m0zeAfDMKEA8ew_voABQPA4tzQljbzuYQBvltQ,,,,,,,,,,,
,,,,,,,,,,,,,,a,1,0.895,space,1.238,0,81,81,175,1,0_targ_16_dist_red/trial1.png,,,0,16,redHorizontal,a,20,26,Male,2021-02-18_09h18.08.196,exp11,2020.2.6,MacIntel,60,IwAR3H9iXHuOt4DW-9NG6f5m0zeAfDMKEA8ew_voABQPA4tzQljbzuYQBvltQ,,,,,,,,,,,
,,,,,,,,,,,,,,a,1,0.831,space,1.022,0,82,82,169,1,0_targ_10_dist_red/trial20.png,,,0,10,redHorizontal,a,20,26,Male,2021-02-18_09h18.08.196,exp11,2020.2.6,MacIntel,60,IwAR3H9iXHuOt4DW-9NG6f5m0zeAfDMKEA8ew_voABQPA4tzQljbzuYQBvltQ,,,,,,,,,,,
,,,,,,,,,,,,,,p,1,0.513,space,0.833,0,83,83,62,1,9_dist_red/trial13.png,,,1,9,redHorizontal,p,20,26,Male,2021-02-18_09h18.08.196,exp11,2020.2.6,MacIntel,60,IwAR3H9iXHuOt4DW-9NG6f5m0zeAfDMKEA8ew_voABQPA4tzQljbzuYQBvltQ,,,,,,,,,,,
,,,,,,,,,,,,,,a,1,0.73,space,0.782,0,84,84,199,1,0_targ_16_dist_red/trial25.png,,,0,16,redHorizontal,a,20,26,Male,2021-02-18_09h18.08.196,exp11,2020.2.6,MacIntel,60,IwAR3H9iXHuOt4DW-9NG6f5m0zeAfDMKEA8ew_voABQPA4tzQljbzuYQBvltQ,,,,,,,,,,,
,,,,,,,,,,,,,,a,1,0.65,space,0.732,0,85,85,161,1,0_targ_10_dist_red/trial12.png,,,0,10,redHorizontal,a,20,26,Male,2021-02-18_09h18.08.196,exp11,2020.2.6,MacIntel,60,IwAR3H9iXHuOt4DW-9NG6f5m0zeAfDMKEA8ew_voABQPA4tzQljbzuYQBvltQ,,,,,,,,,,,
,,,,,,,,,,,,,,p,1,0.546,space,0.439,0,86,86,0,1,0_dist_red/trial1.png,,,1,0,redHorizontal,p,20,26,Male,2021-02-18_09h18.08.196,exp11,2020.2.6,MacIntel,60,IwAR3H9iXHuOt4DW-9NG6f5m0zeAfDMKEA8ew_voABQPA4tzQljbzuYQBvltQ,,,,,,,,,,,
,,,,,,,,,,,,,,a,1,0.584,space,0.306,0,87,87,101,1,0_targ_1_dist_red/trial2.png,,,0,1,redHorizontal,a,20,26,Male,2021-02-18_09h18.08.196,exp11,2020.2.6,MacIntel,60,IwAR3H9iXHuOt4DW-9NG6f5m0zeAfDMKEA8ew_voABQPA4tzQljbzuYQBvltQ,,,,,,,,,,,
,,,,,,,,,,,,,,p,1,0.535,space,0.232,0,88,88,57,1,9_dist_red/trial8.png,,,1,9,redHorizontal,p,20,26,Male,2021-02-18_09h18.08.196,exp11,2020.2.6,MacIntel,60,IwAR3H9iXHuOt4DW-9NG6f5m0zeAfDMKEA8ew_voABQPA4tzQljbzuYQBvltQ,,,,,,,,,,,
,,,,,,,,,,,,,,a,1,0.546,space,0.418,0,89,89,111,1,0_targ_1_dist_red/trial12.png,,,0,1,redHorizontal,a,20,26,Male,2021-02-18_09h18.08.196,exp11,2020.2.6,MacIntel,60,IwAR3H9iXHuOt4DW-9NG6f5m0zeAfDMKEA8ew_voABQPA4tzQljbzuYQBvltQ,,,,,,,,,,,
,,,,,,,,,,,,,,p,1,0.626,space,0.258,0,90,90,91,1,15_dist_red/trial17.png,,,1,15,redHorizontal,p,20,26,Male,2021-02-18_09h18.08.196,exp11,2020.2.6,MacIntel,60,IwAR3H9iXHuOt4DW-9NG6f5m0zeAfDMKEA8ew_voABQPA4tzQljbzuYQBvltQ,,,,,,,,,,,
,,,,,,,,,,,,,,p,1,0.748,space,0.383,0,91,91,14,1,0_dist_red/trial15.png,,,1,0,redHorizontal,p,20,26,Male,2021-02-18_09h18.08.196,exp11,2020.2.6,MacIntel,60,IwAR3H9iXHuOt4DW-9NG6f5m0zeAfDMKEA8ew_voABQPA4tzQljbzuYQBvltQ,,,,,,,,,,,
,,,,,,,,,,,,,,a,1,0.628,space,0.417,0,92,92,152,1,0_targ_10_dist_red/trial3.png,,,0,10,redHorizontal,a,20,26,Male,2021-02-18_09h18.08.196,exp11,2020.2.6,MacIntel,60,IwAR3H9iXHuOt4DW-9NG6f5m0zeAfDMKEA8ew_voABQPA4tzQljbzuYQBvltQ,,,,,,,,,,,
,,,,,,,,,,,,,,a,1,0.525,space,0.374,0,93,93,103,1,0_targ_1_dist_red/trial4.png,,,0,1,redHorizontal,a,20,26,Male,2021-02-18_09h18.08.196,exp11,2020.2.6,MacIntel,60,IwAR3H9iXHuOt4DW-9NG6f5m0zeAfDMKEA8ew_voABQPA4tzQljbzuYQBvltQ,,,,,,,,,,,
,,,,,,,,,,,,,,p,1,0.659,space,0.384,0,94,94,39,1,3_dist_red/trial15.png,,,1,3,redHorizontal,p,20,26,Male,2021-02-18_09h18.08.196,exp11,2020.2.6,MacIntel,60,IwAR3H9iXHuOt4DW-9NG6f5m0zeAfDMKEA8ew_voABQPA4tzQljbzuYQBvltQ,,,,,,,,,,,
,,,,,,,,,,,,,,a,1,0.714,space,0.418,0,95,95,172,1,0_targ_10_dist_red/trial23.png,,,0,10,redHorizontal,a,20,26,Male,2021-02-18_09h18.08.196,exp11,2020.2.6,MacIntel,60,IwAR3H9iXHuOt4DW-9NG6f5m0zeAfDMKEA8ew_voABQPA4tzQljbzuYQBvltQ,,,,,,,,,,,
,,,,,,,,,,,,,,a,1,0.695,space,0.316,0,96,96,185,1,0_targ_16_dist_red/trial11.png,,,0,16,redHorizontal,a,20,26,Male,2021-02-18_09h18.08.196,exp11,2020.2.6,MacIntel,60,IwAR3H9iXHuOt4DW-9NG6f5m0zeAfDMKEA8ew_voABQPA4tzQljbzuYQBvltQ,,,,,,,,,,,
,,,,,,,,,,,,,,a,0,1.147,space,2.252,0,97,97,59,1,9_dist_red/trial10.png,,,1,9,redHorizontal,p,20,26,Male,2021-02-18_09h18.08.196,exp11,2020.2.6,MacIntel,60,IwAR3H9iXHuOt4DW-9NG6f5m0zeAfDMKEA8ew_voABQPA4tzQljbzuYQBvltQ,,,,,,,,,,,
,,,,,,,,,,,,,,p,1,0.581,space,0.4,0,98,98,86,1,15_dist_red/trial12.png,,,1,15,redHorizontal,p,20,26,Male,2021-02-18_09h18.08.196,exp11,2020.2.6,MacIntel,60,IwAR3H9iXHuOt4DW-9NG6f5m0zeAfDMKEA8ew_voABQPA4tzQljbzuYQBvltQ,,,,,,,,,,,
,,,,,,,,,,,,,,a,1,0.668,space,0.416,0,99,99,166,1,0_targ_10_dist_red/trial17.png,,,0,10,redHorizontal,a,20,26,Male,2021-02-18_09h18.08.196,exp11,2020.2.6,MacIntel,60,IwAR3H9iXHuOt4DW-9NG6f5m0zeAfDMKEA8ew_voABQPA4tzQljbzuYQBvltQ,,,,,,,,,,,
,,,,,,,,,,,,,,p,1,0.494,space,0.424,0,100,100,24,1,0_dist_red/trial25.png,,,1,0,redHorizontal,p,20,26,Male,2021-02-18_09h18.08.196,exp11,2020.2.6,MacIntel,60,IwAR3H9iXHuOt4DW-9NG6f5m0zeAfDMKEA8ew_voABQPA4tzQljbzuYQBvltQ,,,,,,,,,,,
,,,,,,,,,,,,,,a,1,0.693,space,0.323,0,101,101,155,1,0_targ_10_dist_red/trial6.png,,,0,10,redHorizontal,a,20,26,Male,2021-02-18_09h18.08.196,exp11,2020.2.6,MacIntel,60,IwAR3H9iXHuOt4DW-9NG6f5m0zeAfDMKEA8ew_voABQPA4tzQljbzuYQBvltQ,,,,,,,,,,,
,,,,,,,,,,,,,,a,1,0.551,space,0.359,0,102,102,114,1,0_targ_1_dist_red/trial15.png,,,0,1,redHorizontal,a,20,26,Male,2021-02-18_09h18.08.196,exp11,2020.2.6,MacIntel,60,IwAR3H9iXHuOt4DW-9NG6f5m0zeAfDMKEA8ew_voABQPA4tzQljbzuYQBvltQ,,,,,,,,,,,
,,,,,,,,,,,,,,p,1,0.5,space,0.385,0,103,103,61,1,9_dist_red/trial12.png,,,1,9,redHorizontal,p,20,26,Male,2021-02-18_09h18.08.196,exp11,2020.2.6,MacIntel,60,IwAR3H9iXHuOt4DW-9NG6f5m0zeAfDMKEA8ew_voABQPA4tzQljbzuYQBvltQ,,,,,,,,,,,
,,,,,,,,,,,,,,p,1,0.733,space,0.373,0,104,104,54,1,9_dist_red/trial5.png,,,1,9,redHorizontal,p,20,26,Male,2021-02-18_09h18.08.196,exp11,2020.2.6,MacIntel,60,IwAR3H9iXHuOt4DW-9NG6f5m0zeAfDMKEA8ew_voABQPA4tzQljbzuYQBvltQ,,,,,,,,,,,
,,,,,,,,,,,,,,a,0,0.496,space,1.713,0,105,105,98,1,15_dist_red/trial24.png,,,1,15,redHorizontal,p,20,26,Male,2021-02-18_09h18.08.196,exp11,2020.2.6,MacIntel,60,IwAR3H9iXHuOt4DW-9NG6f5m0zeAfDMKEA8ew_voABQPA4tzQljbzuYQBvltQ,,,,,,,,,,,
,,,,,,,,,,,,,,p,1,0.931,space,0.632,0,106,106,84,1,15_dist_red/trial10.png,,,1,15,redHorizontal,p,20,26,Male,2021-02-18_09h18.08.196,exp11,2020.2.6,MacIntel,60,IwAR3H9iXHuOt4DW-9NG6f5m0zeAfDMKEA8ew_voABQPA4tzQljbzuYQBvltQ,,,,,,,,,,,
,,,,,,,,,,,,,,a,1,0.746,space,0.649,0,107,107,168,1,0_targ_10_dist_red/trial19.png,,,0,10,redHorizontal,a,20,26,Male,2021-02-18_09h18.08.196,exp11,2020.2.6,MacIntel,60,IwAR3H9iXHuOt4DW-9NG6f5m0zeAfDMKEA8ew_voABQPA4tzQljbzuYQBvltQ,,,,,,,,,,,
,,,,,,,,,,,,,,p,1,0.56,space,0.571,0,108,108,56,1,9_dist_red/trial7.png,,,1,9,redHorizontal,p,20,26,Male,2021-02-18_09h18.08.196,exp11,2020.2.6,MacIntel,60,IwAR3H9iXHuOt4DW-9NG6f5m0zeAfDMKEA8ew_voABQPA4tzQljbzuYQBvltQ,,,,,,,,,,,
,,,,,,,,,,,,,,a,1,0.877,space,0.456,0,109,109,121,1,0_targ_1_dist_red/trial22.png,,,0,1,redHorizontal,a,20,26,Male,2021-02-18_09h18.08.196,exp11,2020.2.6,MacIntel,60,IwAR3H9iXHuOt4DW-9NG6f5m0zeAfDMKEA8ew_voABQPA4tzQljbzuYQBvltQ,,,,,,,,,,,
,,,,,,,,,,,,,,a,1,1.181,space,1.52,0,110,110,197,1,0_targ_16_dist_red/trial23.png,,,0,16,redHorizontal,a,20,26,Male,2021-02-18_09h18.08.196,exp11,2020.2.6,MacIntel,60,IwAR3H9iXHuOt4DW-9NG6f5m0zeAfDMKEA8ew_voABQPA4tzQljbzuYQBvltQ,,,,,,,,,,,
,,,,,,,,,,,,,,a,1,0.737,space,2.347,0,111,111,179,1,0_targ_16_dist_red/trial5.png,,,0,16,redHorizontal,a,20,26,Male,2021-02-18_09h18.08.196,exp11,2020.2.6,MacIntel,60,IwAR3H9iXHuOt4DW-9NG6f5m0zeAfDMKEA8ew_voABQPA4tzQljbzuYQBvltQ,,,,,,,,,,,
,,,,,,,,,,,,,,p,1,0.5,space,1.25,0,112,112,53,1,9_dist_red/trial4.png,,,1,9,redHorizontal,p,20,26,Male,2021-02-18_09h18.08.196,exp11,2020.2.6,MacIntel,60,IwAR3H9iXHuOt4DW-9NG6f5m0zeAfDMKEA8ew_voABQPA4tzQljbzuYQBvltQ,,,,,,,,,,,
,,,,,,,,,,,,,,a,1,0.76,space,0.867,0,113,113,191,1,0_targ_16_dist_red/trial17.png,,,0,16,redHorizontal,a,20,26,Male,2021-02-18_09h18.08.196,exp11,2020.2.6,MacIntel,60,IwAR3H9iXHuOt4DW-9NG6f5m0zeAfDMKEA8ew_voABQPA4tzQljbzuYQBvltQ,,,,,,,,,,,
,,,,,,,,,,,,,,p,1,0.692,space,0.4,0,114,114,66,1,9_dist_red/trial17.png,,,1,9,redHorizontal,p,20,26,Male,2021-02-18_09h18.08.196,exp11,2020.2.6,MacIntel,60,IwAR3H9iXHuOt4DW-9NG6f5m0zeAfDMKEA8ew_voABQPA4tzQljbzuYQBvltQ,,,,,,,,,,,
,,,,,,,,,,,,,,p,1,0.827,space,0.764,0,115,115,70,1,9_dist_red/trial21.png,,,1,9,redHorizontal,p,20,26,Male,2021-02-18_09h18.08.196,exp11,2020.2.6,MacIntel,60,IwAR3H9iXHuOt4DW-9NG6f5m0zeAfDMKEA8ew_voABQPA4tzQljbzuYQBvltQ,,,,,,,,,,,
,,,,,,,,,,,,,,a,1,1.21,space,0.499,0,116,116,190,1,0_targ_16_dist_red/trial16.png,,,0,16,redHorizontal,a,20,26,Male,2021-02-18_09h18.08.196,exp11,2020.2.6,MacIntel,60,IwAR3H9iXHuOt4DW-9NG6f5m0zeAfDMKEA8ew_voABQPA4tzQljbzuYQBvltQ,,,,,,,,,,,
,,,,,,,,,,,,,,a,1,0.896,space,0.853,0,117,117,163,1,0_targ_10_dist_red/trial14.png,,,0,10,redHorizontal,a,20,26,Male,2021-02-18_09h18.08.196,exp11,2020.2.6,MacIntel,60,IwAR3H9iXHuOt4DW-9NG6f5m0zeAfDMKEA8ew_voABQPA4tzQljbzuYQBvltQ,,,,,,,,,,,
,,,,,,,,,,,,,,p,1,0.976,space,0.307,0,118,118,29,1,3_dist_red/trial5.png,,,1,3,redHorizontal,p,20,26,Male,2021-02-18_09h18.08.196,exp11,2020.2.6,MacIntel,60,IwAR3H9iXHuOt4DW-9NG6f5m0zeAfDMKEA8ew_voABQPA4tzQljbzuYQBvltQ,,,,,,,,,,,
,,,,,,,,,,,,,,a,1,0.668,space,0.704,0,119,119,124,1,0_targ_1_dist_red/trial25.png,,,0,1,redHorizontal,a,20,26,Male,2021-02-18_09h18.08.196,exp11,2020.2.6,MacIntel,60,IwAR3H9iXHuOt4DW-9NG6f5m0zeAfDMKEA8ew_voABQPA4tzQljbzuYQBvltQ,,,,,,,,,,,
,,,,,,,,,,,,,,a,1,0.696,space,0.424,0,120,120,108,1,0_targ_1_dist_red/trial9.png,,,0,1,redHorizontal,a,20,26,Male,2021-02-18_09h18.08.196,exp11,2020.2.6,MacIntel,60,IwAR3H9iXHuOt4DW-9NG6f5m0zeAfDMKEA8ew_voABQPA4tzQljbzuYQBvltQ,,,,,,,,,,,
,,,,,,,,,,,,,,a,1,0.648,space,0.572,0,121,121,120,1,0_targ_1_dist_red/trial21.png,,,0,1,redHorizontal,a,20,26,Male,2021-02-18_09h18.08.196,exp11,2020.2.6,MacIntel,60,IwAR3H9iXHuOt4DW-9NG6f5m0zeAfDMKEA8ew_voABQPA4tzQljbzuYQBvltQ,,,,,,,,,,,
,,,,,,,,,,,,,,a,1,0.482,space,0.783,0,122,122,102,1,0_targ_1_dist_red/trial3.png,,,0,1,redHorizontal,a,20,26,Male,2021-02-18_09h18.08.196,exp11,2020.2.6,MacIntel,60,IwAR3H9iXHuOt4DW-9NG6f5m0zeAfDMKEA8ew_voABQPA4tzQljbzuYQBvltQ,,,,,,,,,,,
,,,,,,,,,,,,,,p,1,0.585,space,0.341,0,123,123,44,1,3_dist_red/trial20.png,,,1,3,redHorizontal,p,20,26,Male,2021-02-18_09h18.08.196,exp11,2020.2.6,MacIntel,60,IwAR3H9iXHuOt4DW-9NG6f5m0zeAfDMKEA8ew_voABQPA4tzQljbzuYQBvltQ,,,,,,,,,,,
,,,,,,,,,,,,,,a,1,0.784,space,0.317,0,124,124,187,1,0_targ_16_dist_red/trial13.png,,,0,16,redHorizontal,a,20,26,Male,2021-02-18_09h18.08.196,exp11,2020.2.6,MacIntel,60,IwAR3H9iXHuOt4DW-9NG6f5m0zeAfDMKEA8ew_voABQPA4tzQljbzuYQBvltQ,,,,,,,,,,,
,,,,,,,,,,,,,,a,1,0.958,space,0.3,0,125,125,193,1,0_targ_16_dist_red/trial19.png,,,0,16,redHorizontal,a,20,26,Male,2021-02-18_09h18.08.196,exp11,2020.2.6,MacIntel,60,IwAR3H9iXHuOt4DW-9NG6f5m0zeAfDMKEA8ew_voABQPA4tzQljbzuYQBvltQ,,,,,,,,,,,
,,,,,,,,,,,,,,a,1,0.483,space,0.373,0,126,126,113,1,0_targ_1_dist_red/trial14.png,,,0,1,redHorizontal,a,20,26,Male,2021-02-18_09h18.08.196,exp11,2020.2.6,MacIntel,60,IwAR3H9iXHuOt4DW-9NG6f5m0zeAfDMKEA8ew_voABQPA4tzQljbzuYQBvltQ,,,,,,,,,,,
,,,,,,,,,,,,,,p,1,0.512,space,0.257,0,127,127,88,1,15_dist_red/trial14.png,,,1,15,redHorizontal,p,20,26,Male,2021-02-18_09h18.08.196,exp11,2020.2.6,MacIntel,60,IwAR3H9iXHuOt4DW-9NG6f5m0zeAfDMKEA8ew_voABQPA4tzQljbzuYQBvltQ,,,,,,,,,,,
,,,,,,,,,,,,,,a,1,0.59,space,0.288,0,128,128,167,1,0_targ_10_dist_red/trial18.png,,,0,10,redHorizontal,a,20,26,Male,2021-02-18_09h18.08.196,exp11,2020.2.6,MacIntel,60,IwAR3H9iXHuOt4DW-9NG6f5m0zeAfDMKEA8ew_voABQPA4tzQljbzuYQBvltQ,,,,,,,,,,,
,,,,,,,,,,,,,,p,1,1.121,space,0.252,0,129,129,80,1,15_dist_red/trial6.png,,,1,15,redHorizontal,p,20,26,Male,2021-02-18_09h18.08.196,exp11,2020.2.6,MacIntel,60,IwAR3H9iXHuOt4DW-9NG6f5m0zeAfDMKEA8ew_voABQPA4tzQljbzuYQBvltQ,,,,,,,,,,,
,,,,,,,,,,,,,,p,1,0.766,space,0.3,0,130,130,83,1,15_dist_red/trial9.png,,,1,15,redHorizontal,p,20,26,Male,2021-02-18_09h18.08.196,exp11,2020.2.6,MacIntel,60,IwAR3H9iXHuOt4DW-9NG6f5m0zeAfDMKEA8ew_voABQPA4tzQljbzuYQBvltQ,,,,,,,,,,,
,,,,,,,,,,,,,,a,1,0.677,space,0.368,0,131,131,159,1,0_targ_10_dist_red/trial10.png,,,0,10,redHorizontal,a,20,26,Male,2021-02-18_09h18.08.196,exp11,2020.2.6,MacIntel,60,IwAR3H9iXHuOt4DW-9NG6f5m0zeAfDMKEA8ew_voABQPA4tzQljbzuYQBvltQ,,,,,,,,,,,
,,,,,,,,,,,,,,p,1,0.501,space,0.351,0,132,132,19,1,0_dist_red/trial20.png,,,1,0,redHorizontal,p,20,26,Male,2021-02-18_09h18.08.196,exp11,2020.2.6,MacIntel,60,IwAR3H9iXHuOt4DW-9NG6f5m0zeAfDMKEA8ew_voABQPA4tzQljbzuYQBvltQ,,,,,,,,,,,
,,,,,,,,,,,,,,a,1,0.841,space,0.317,0,133,133,165,1,0_targ_10_dist_red/trial16.png,,,0,10,redHorizontal,a,20,26,Male,2021-02-18_09h18.08.196,exp11,2020.2.6,MacIntel,60,IwAR3H9iXHuOt4DW-9NG6f5m0zeAfDMKEA8ew_voABQPA4tzQljbzuYQBvltQ,,,,,,,,,,,
,,,,,,,,,,,,,,p,0,0.515,space,0.757,0,134,134,129,1,0_targ_4_dist_red/trial5.png,,,0,4,redHorizontal,a,20,26,Male,2021-02-18_09h18.08.196,exp11,2020.2.6,MacIntel,60,IwAR3H9iXHuOt4DW-9NG6f5m0zeAfDMKEA8ew_voABQPA4tzQljbzuYQBvltQ,,,,,,,,,,,
,,,,,,,,,,,,,,p,1,0.763,space,0.432,0,135,135,72,1,9_dist_red/trial23.png,,,1,9,redHorizontal,p,20,26,Male,2021-02-18_09h18.08.196,exp11,2020.2.6,MacIntel,60,IwAR3H9iXHuOt4DW-9NG6f5m0zeAfDMKEA8ew_voABQPA4tzQljbzuYQBvltQ,,,,,,,,,,,
,,,,,,,,,,,,,,p,1,0.743,space,0.515,0,136,136,63,1,9_dist_red/trial14.png,,,1,9,redHorizontal,p,20,26,Male,2021-02-18_09h18.08.196,exp11,2020.2.6,MacIntel,60,IwAR3H9iXHuOt4DW-9NG6f5m0zeAfDMKEA8ew_voABQPA4tzQljbzuYQBvltQ,,,,,,,,,,,
,,,,,,,,,,,,,,p,1,0.585,space,0.49,0,137,137,94,1,15_dist_red/trial20.png,,,1,15,redHorizontal,p,20,26,Male,2021-02-18_09h18.08.196,exp11,2020.2.6,MacIntel,60,IwAR3H9iXHuOt4DW-9NG6f5m0zeAfDMKEA8ew_voABQPA4tzQljbzuYQBvltQ,,,,,,,,,,,
,,,,,,,,,,,,,,a,1,0.866,space,0.34,0,138,138,125,1,0_targ_4_dist_red/trial1.png,,,0,4,redHorizontal,a,20,26,Male,2021-02-18_09h18.08.196,exp11,2020.2.6,MacIntel,60,IwAR3H9iXHuOt4DW-9NG6f5m0zeAfDMKEA8ew_voABQPA4tzQljbzuYQBvltQ,,,,,,,,,,,
,,,,,,,,,,,,,,a,1,0.602,space,0.485,0,139,139,122,1,0_targ_1_dist_red/trial23.png,,,0,1,redHorizontal,a,20,26,Male,2021-02-18_09h18.08.196,exp11,2020.2.6,MacIntel,60,IwAR3H9iXHuOt4DW-9NG6f5m0zeAfDMKEA8ew_voABQPA4tzQljbzuYQBvltQ,,,,,,,,,,,
,,,,,,,,,,,,,,p,1,1.424,space,0.225,0,140,140,73,1,9_dist_red/trial24.png,,,1,9,redHorizontal,p,20,26,Male,2021-02-18_09h18.08.196,exp11,2020.2.6,MacIntel,60,IwAR3H9iXHuOt4DW-9NG6f5m0zeAfDMKEA8ew_voABQPA4tzQljbzuYQBvltQ,,,,,,,,,,,
,,,,,,,,,,,,,,p,1,0.56,space,0.398,0,141,141,17,1,0_dist_red/trial18.png,,,1,0,redHorizontal,p,20,26,Male,2021-02-18_09h18.08.196,exp11,2020.2.6,MacIntel,60,IwAR3H9iXHuOt4DW-9NG6f5m0zeAfDMKEA8ew_voABQPA4tzQljbzuYQBvltQ,,,,,,,,,,,
,,,,,,,,,,,,,,p,1,1.043,space,0.384,0,142,142,4,1,0_dist_red/trial5.png,,,1,0,redHorizontal,p,20,26,Male,2021-02-18_09h18.08.196,exp11,2020.2.6,MacIntel,60,IwAR3H9iXHuOt4DW-9NG6f5m0zeAfDMKEA8ew_voABQPA4tzQljbzuYQBvltQ,,,,,,,,,,,
,,,,,,,,,,,,,,p,1,0.566,space,0.405,0,143,143,20,1,0_dist_red/trial21.png,,,1,0,redHorizontal,p,20,26,Male,2021-02-18_09h18.08.196,exp11,2020.2.6,MacIntel,60,IwAR3H9iXHuOt4DW-9NG6f5m0zeAfDMKEA8ew_voABQPA4tzQljbzuYQBvltQ,,,,,,,,,,,
,,,,,,,,,,,,,,a,1,0.727,space,0.401,0,144,144,147,1,0_targ_4_dist_red/trial23.png,,,0,4,redHorizontal,a,20,26,Male,2021-02-18_09h18.08.196,exp11,2020.2.6,MacIntel,60,IwAR3H9iXHuOt4DW-9NG6f5m0zeAfDMKEA8ew_voABQPA4tzQljbzuYQBvltQ,,,,,,,,,,,
,,,,,,,,,,,,,,p,1,0.982,space,0.252,0,145,145,97,1,15_dist_red/trial23.png,,,1,15,redHorizontal,p,20,26,Male,2021-02-18_09h18.08.196,exp11,2020.2.6,MacIntel,60,IwAR3H9iXHuOt4DW-9NG6f5m0zeAfDMKEA8ew_voABQPA4tzQljbzuYQBvltQ,,,,,,,,,,,
,,,,,,,,,,,,,,p,1,0.615,space,0.25,0,146,146,78,1,15_dist_red/trial4.png,,,1,15,redHorizontal,p,20,26,Male,2021-02-18_09h18.08.196,exp11,2020.2.6,MacIntel,60,IwAR3H9iXHuOt4DW-9NG6f5m0zeAfDMKEA8ew_voABQPA4tzQljbzuYQBvltQ,,,,,,,,,,,
,,,,,,,,,,,,,,p,1,0.649,space,0.401,0,147,147,96,1,15_dist_red/trial22.png,,,1,15,redHorizontal,p,20,26,Male,2021-02-18_09h18.08.196,exp11,2020.2.6,MacIntel,60,IwAR3H9iXHuOt4DW-9NG6f5m0zeAfDMKEA8ew_voABQPA4tzQljbzuYQBvltQ,,,,,,,,,,,
,,,,,,,,,,,,,,a,1,0.586,space,0.367,0,148,148,100,1,0_targ_1_dist_red/trial1.png,,,0,1,redHorizontal,a,20,26,Male,2021-02-18_09h18.08.196,exp11,2020.2.6,MacIntel,60,IwAR3H9iXHuOt4DW-9NG6f5m0zeAfDMKEA8ew_voABQPA4tzQljbzuYQBvltQ,,,,,,,,,,,
,,,,,,,,,,,,,,a,1,0.562,space,0.168,0,149,149,116,1,0_targ_1_dist_red/trial17.png,,,0,1,redHorizontal,a,20,26,Male,2021-02-18_09h18.08.196,exp11,2020.2.6,MacIntel,60,IwAR3H9iXHuOt4DW-9NG6f5m0zeAfDMKEA8ew_voABQPA4tzQljbzuYQBvltQ,,,,,,,,,,,
,,,,,,,,,,,,,,a,0,1.949,space,6.22,0,150,150,26,1,3_dist_red/trial2.png,,,1,3,redHorizontal,p,20,26,Male,2021-02-18_09h18.08.196,exp11,2020.2.6,MacIntel,60,IwAR3H9iXHuOt4DW-9NG6f5m0zeAfDMKEA8ew_voABQPA4tzQljbzuYQBvltQ,,,,,,,,,,,
,,,,,,,,,,,,,,p,1,0.609,space,0.466,0,151,151,45,1,3_dist_red/trial21.png,,,1,3,redHorizontal,p,20,26,Male,2021-02-18_09h18.08.196,exp11,2020.2.6,MacIntel,60,IwAR3H9iXHuOt4DW-9NG6f5m0zeAfDMKEA8ew_voABQPA4tzQljbzuYQBvltQ,,,,,,,,,,,
,,,,,,,,,,,,,,p,1,1.427,space,0.44,0,152,152,50,1,9_dist_red/trial1.png,,,1,9,redHorizontal,p,20,26,Male,2021-02-18_09h18.08.196,exp11,2020.2.6,MacIntel,60,IwAR3H9iXHuOt4DW-9NG6f5m0zeAfDMKEA8ew_voABQPA4tzQljbzuYQBvltQ,,,,,,,,,,,
,,,,,,,,,,,,,,a,1,1.045,space,0.422,0,153,153,178,1,0_targ_16_dist_red/trial4.png,,,0,16,redHorizontal,a,20,26,Male,2021-02-18_09h18.08.196,exp11,2020.2.6,MacIntel,60,IwAR3H9iXHuOt4DW-9NG6f5m0zeAfDMKEA8ew_voABQPA4tzQljbzuYQBvltQ,,,,,,,,,,,
,,,,,,,,,,,,,,a,1,0.817,space,0.339,0,154,154,184,1,0_targ_16_dist_red/trial10.png,,,0,16,redHorizontal,a,20,26,Male,2021-02-18_09h18.08.196,exp11,2020.2.6,MacIntel,60,IwAR3H9iXHuOt4DW-9NG6f5m0zeAfDMKEA8ew_voABQPA4tzQljbzuYQBvltQ,,,,,,,,,,,
,,,,,,,,,,,,,,a,1,0.645,space,0.366,0,155,155,135,1,0_targ_4_dist_red/trial11.png,,,0,4,redHorizontal,a,20,26,Male,2021-02-18_09h18.08.196,exp11,2020.2.6,MacIntel,60,IwAR3H9iXHuOt4DW-9NG6f5m0zeAfDMKEA8ew_voABQPA4tzQljbzuYQBvltQ,,,,,,,,,,,
,,,,,,,,,,,,,,p,1,0.597,space,0.401,0,156,156,11,1,0_dist_red/trial12.png,,,1,0,redHorizontal,p,20,26,Male,2021-02-18_09h18.08.196,exp11,2020.2.6,MacIntel,60,IwAR3H9iXHuOt4DW-9NG6f5m0zeAfDMKEA8ew_voABQPA4tzQljbzuYQBvltQ,,,,,,,,,,,
,,,,,,,,,,,,,,a,1,0.871,space,0.3,0,157,157,146,1,0_targ_4_dist_red/trial22.png,,,0,4,redHorizontal,a,20,26,Male,2021-02-18_09h18.08.196,exp11,2020.2.6,MacIntel,60,IwAR3H9iXHuOt4DW-9NG6f5m0zeAfDMKEA8ew_voABQPA4tzQljbzuYQBvltQ,,,,,,,,,,,
,,,,,,,,,,,,,,a,1,0.81,space,0.289,0,158,158,174,1,0_targ_10_dist_red/trial25.png,,,0,10,redHorizontal,a,20,26,Male,2021-02-18_09h18.08.196,exp11,2020.2.6,MacIntel,60,IwAR3H9iXHuOt4DW-9NG6f5m0zeAfDMKEA8ew_voABQPA4tzQljbzuYQBvltQ,,,,,,,,,,,
,,,,,,,,,,,,,,p,1,0.576,space,0.423,0,159,159,5,1,0_dist_red/trial6.png,,,1,0,redHorizontal,p,20,26,Male,2021-02-18_09h18.08.196,exp11,2020.2.6,MacIntel,60,IwAR3H9iXHuOt4DW-9NG6f5m0zeAfDMKEA8ew_voABQPA4tzQljbzuYQBvltQ,,,,,,,,,,,
,,,,,,,,,,,,,,a,1,0.643,space,0.24,0,160,160,164,1,0_targ_10_dist_red/trial15.png,,,0,10,redHorizontal,a,20,26,Male,2021-02-18_09h18.08.196,exp11,2020.2.6,MacIntel,60,IwAR3H9iXHuOt4DW-9NG6f5m0zeAfDMKEA8ew_voABQPA4tzQljbzuYQBvltQ,,,,,,,,,,,
,,,,,,,,,,,,,,a,1,0.681,space,0.45,0,161,161,149,1,0_targ_4_dist_red/trial25.png,,,0,4,redHorizontal,a,20,26,Male,2021-02-18_09h18.08.196,exp11,2020.2.6,MacIntel,60,IwAR3H9iXHuOt4DW-9NG6f5m0zeAfDMKEA8ew_voABQPA4tzQljbzuYQBvltQ,,,,,,,,,,,
,,,,,,,,,,,,,,p,1,0.634,space,0.226,0,162,162,33,1,3_dist_red/trial9.png,,,1,3,redHorizontal,p,20,26,Male,2021-02-18_09h18.08.196,exp11,2020.2.6,MacIntel,60,IwAR3H9iXHuOt4DW-9NG6f5m0zeAfDMKEA8ew_voABQPA4tzQljbzuYQBvltQ,,,,,,,,,,,
,,,,,,,,,,,,,,a,1,0.762,space,0.2,0,163,163,189,1,0_targ_16_dist_red/trial15.png,,,0,16,redHorizontal,a,20,26,Male,2021-02-18_09h18.08.196,exp11,2020.2.6,MacIntel,60,IwAR3H9iXHuOt4DW-9NG6f5m0zeAfDMKEA8ew_voABQPA4tzQljbzuYQBvltQ,,,,,,,,,,,
,,,,,,,,,,,,,,a,1,0.727,space,0.274,0,164,164,136,1,0_targ_4_dist_red/trial12.png,,,0,4,redHorizontal,a,20,26,Male,2021-02-18_09h18.08.196,exp11,2020.2.6,MacIntel,60,IwAR3H9iXHuOt4DW-9NG6f5m0zeAfDMKEA8ew_voABQPA4tzQljbzuYQBvltQ,,,,,,,,,,,
,,,,,,,,,,,,,,a,1,0.584,space,0.355,0,165,165,107,1,0_targ_1_dist_red/trial8.png,,,0,1,redHorizontal,a,20,26,Male,2021-02-18_09h18.08.196,exp11,2020.2.6,MacIntel,60,IwAR3H9iXHuOt4DW-9NG6f5m0zeAfDMKEA8ew_voABQPA4tzQljbzuYQBvltQ,,,,,,,,,,,
,,,,,,,,,,,,,,a,1,1.258,space,0.274,0,166,166,195,1,0_targ_16_dist_red/trial21.png,,,0,16,redHorizontal,a,20,26,Male,2021-02-18_09h18.08.196,exp11,2020.2.6,MacIntel,60,IwAR3H9iXHuOt4DW-9NG6f5m0zeAfDMKEA8ew_voABQPA4tzQljbzuYQBvltQ,,,,,,,,,,,
,,,,,,,,,,,,,,p,1,0.55,space,0.272,0,167,167,18,1,0_dist_red/trial19.png,,,1,0,redHorizontal,p,20,26,Male,2021-02-18_09h18.08.196,exp11,2020.2.6,MacIntel,60,IwAR3H9iXHuOt4DW-9NG6f5m0zeAfDMKEA8ew_voABQPA4tzQljbzuYQBvltQ,,,,,,,,,,,
,,,,,,,,,,,,,,a,1,0.633,space,0.238,0,168,168,142,1,0_targ_4_dist_red/trial18.png,,,0,4,redHorizontal,a,20,26,Male,2021-02-18_09h18.08.196,exp11,2020.2.6,MacIntel,60,IwAR3H9iXHuOt4DW-9NG6f5m0zeAfDMKEA8ew_voABQPA4tzQljbzuYQBvltQ,,,,,,,,,,,
,,,,,,,,,,,,,,p,1,0.663,space,0.241,0,169,169,82,1,15_dist_red/trial8.png,,,1,15,redHorizontal,p,20,26,Male,2021-02-18_09h18.08.196,exp11,2020.2.6,MacIntel,60,IwAR3H9iXHuOt4DW-9NG6f5m0zeAfDMKEA8ew_voABQPA4tzQljbzuYQBvltQ,,,,,,,,,,,
,,,,,,,,,,,,,,a,1,0.545,space,0.29,0,170,170,128,1,0_targ_4_dist_red/trial4.png,,,0,4,redHorizontal,a,20,26,Male,2021-02-18_09h18.08.196,exp11,2020.2.6,MacIntel,60,IwAR3H9iXHuOt4DW-9NG6f5m0zeAfDMKEA8ew_voABQPA4tzQljbzuYQBvltQ,,,,,,,,,,,
,,,,,,,,,,,,,,p,1,0.53,space,0.206,0,171,171,32,1,3_dist_red/trial8.png,,,1,3,redHorizontal,p,20,26,Male,2021-02-18_09h18.08.196,exp11,2020.2.6,MacIntel,60,IwAR3H9iXHuOt4DW-9NG6f5m0zeAfDMKEA8ew_voABQPA4tzQljbzuYQBvltQ,,,,,,,,,,,
,,,,,,,,,,,,,,p,1,0.692,space,0.199,0,172,172,92,1,15_dist_red/trial18.png,,,1,15,redHorizontal,p,20,26,Male,2021-02-18_09h18.08.196,exp11,2020.2.6,MacIntel,60,IwAR3H9iXHuOt4DW-9NG6f5m0zeAfDMKEA8ew_voABQPA4tzQljbzuYQBvltQ,,,,,,,,,,,
,,,,,,,,,,,,,,a,1,0.664,space,0.301,0,173,173,139,1,0_targ_4_dist_red/trial15.png,,,0,4,redHorizontal,a,20,26,Male,2021-02-18_09h18.08.196,exp11,2020.2.6,MacIntel,60,IwAR3H9iXHuOt4DW-9NG6f5m0zeAfDMKEA8ew_voABQPA4tzQljbzuYQBvltQ,,,,,,,,,,,
,,,,,,,,,,,,,,p,1,0.711,space,0.25,0,174,174,99,1,15_dist_red/trial25.png,,,1,15,redHorizontal,p,20,26,Male,2021-02-18_09h18.08.196,exp11,2020.2.6,MacIntel,60,IwAR3H9iXHuOt4DW-9NG6f5m0zeAfDMKEA8ew_voABQPA4tzQljbzuYQBvltQ,,,,,,,,,,,
,,,,,,,,,,,,,,a,1,0.585,space,0.268,0,175,175,162,1,0_targ_10_dist_red/trial13.png,,,0,10,redHorizontal,a,20,26,Male,2021-02-18_09h18.08.196,exp11,2020.2.6,MacIntel,60,IwAR3H9iXHuOt4DW-9NG6f5m0zeAfDMKEA8ew_voABQPA4tzQljbzuYQBvltQ,,,,,,,,,,,
,,,,,,,,,,,,,,a,1,1.324,space,0.648,0,176,176,137,1,0_targ_4_dist_red/trial13.png,,,0,4,redHorizontal,a,20,26,Male,2021-02-18_09h18.08.196,exp11,2020.2.6,MacIntel,60,IwAR3H9iXHuOt4DW-9NG6f5m0zeAfDMKEA8ew_voABQPA4tzQljbzuYQBvltQ,,,,,,,,,,,
,,,,,,,,,,,,,,a,1,1.614,space,0.186,0,177,177,196,1,0_targ_16_dist_red/trial22.png,,,0,16,redHorizontal,a,20,26,Male,2021-02-18_09h18.08.196,exp11,2020.2.6,MacIntel,60,IwAR3H9iXHuOt4DW-9NG6f5m0zeAfDMKEA8ew_voABQPA4tzQljbzuYQBvltQ,,,,,,,,,,,
,,,,,,,,,,,,,,p,1,0.801,space,0.357,0,178,178,60,1,9_dist_red/trial11.png,,,1,9,redHorizontal,p,20,26,Male,2021-02-18_09h18.08.196,exp11,2020.2.6,MacIntel,60,IwAR3H9iXHuOt4DW-9NG6f5m0zeAfDMKEA8ew_voABQPA4tzQljbzuYQBvltQ,,,,,,,,,,,
,,,,,,,,,,,,,,p,1,1.01,space,0.239,0,179,179,64,1,9_dist_red/trial15.png,,,1,9,redHorizontal,p,20,26,Male,2021-02-18_09h18.08.196,exp11,2020.2.6,MacIntel,60,IwAR3H9iXHuOt4DW-9NG6f5m0zeAfDMKEA8ew_voABQPA4tzQljbzuYQBvltQ,,,,,,,,,,,
,,,,,,,,,,,,,,p,1,0.646,space,0.249,0,180,180,8,1,0_dist_red/trial9.png,,,1,0,redHorizontal,p,20,26,Male,2021-02-18_09h18.08.196,exp11,2020.2.6,MacIntel,60,IwAR3H9iXHuOt4DW-9NG6f5m0zeAfDMKEA8ew_voABQPA4tzQljbzuYQBvltQ,,,,,,,,,,,
,,,,,,,,,,,,,,a,1,0.803,space,0.291,0,181,181,112,1,0_targ_1_dist_red/trial13.png,,,0,1,redHorizontal,a,20,26,Male,2021-02-18_09h18.08.196,exp11,2020.2.6,MacIntel,60,IwAR3H9iXHuOt4DW-9NG6f5m0zeAfDMKEA8ew_voABQPA4tzQljbzuYQBvltQ,,,,,,,,,,,
,,,,,,,,,,,,,,a,1,0.713,space,0.274,0,182,182,148,1,0_targ_4_dist_red/trial24.png,,,0,4,redHorizontal,a,20,26,Male,2021-02-18_09h18.08.196,exp11,2020.2.6,MacIntel,60,IwAR3H9iXHuOt4DW-9NG6f5m0zeAfDMKEA8ew_voABQPA4tzQljbzuYQBvltQ,,,,,,,,,,,
,,,,,,,,,,,,,,a,1,0.752,space,0.256,0,183,183,126,1,0_targ_4_dist_red/trial2.png,,,0,4,redHorizontal,a,20,26,Male,2021-02-18_09h18.08.196,exp11,2020.2.6,MacIntel,60,IwAR3H9iXHuOt4DW-9NG6f5m0zeAfDMKEA8ew_voABQPA4tzQljbzuYQBvltQ,,,,,,,,,,,
,,,,,,,,,,,,,,a,1,0.563,space,0.349,0,184,184,127,1,0_targ_4_dist_red/trial3.png,,,0,4,redHorizontal,a,20,26,Male,2021-02-18_09h18.08.196,exp11,2020.2.6,MacIntel,60,IwAR3H9iXHuOt4DW-9NG6f5m0zeAfDMKEA8ew_voABQPA4tzQljbzuYQBvltQ,,,,,,,,,,,
,,,,,,,,,,,,,,a,1,0.676,space,0.537,0,185,185,119,1,0_targ_1_dist_red/trial20.png,,,0,1,redHorizontal,a,20,26,Male,2021-02-18_09h18.08.196,exp11,2020.2.6,MacIntel,60,IwAR3H9iXHuOt4DW-9NG6f5m0zeAfDMKEA8ew_voABQPA4tzQljbzuYQBvltQ,,,,,,,,,,,
,,,,,,,,,,,,,,p,1,0.744,space,0.202,0,186,186,69,1,9_dist_red/trial20.png,,,1,9,redHorizontal,p,20,26,Male,2021-02-18_09h18.08.196,exp11,2020.2.6,MacIntel,60,IwAR3H9iXHuOt4DW-9NG6f5m0zeAfDMKEA8ew_voABQPA4tzQljbzuYQBvltQ,,,,,,,,,,,
,,,,,,,,,,,,,,a,0,0.811,space,0.765,0,187,187,71,1,9_dist_red/trial22.png,,,1,9,redHorizontal,p,20,26,Male,2021-02-18_09h18.08.196,exp11,2020.2.6,MacIntel,60,IwAR3H9iXHuOt4DW-9NG6f5m0zeAfDMKEA8ew_voABQPA4tzQljbzuYQBvltQ,,,,,,,,,,,
,,,,,,,,,,,,,,a,1,0.642,space,0.167,0,188,188,133,1,0_targ_4_dist_red/trial9.png,,,0,4,redHorizontal,a,20,26,Male,2021-02-18_09h18.08.196,exp11,2020.2.6,MacIntel,60,IwAR3H9iXHuOt4DW-9NG6f5m0zeAfDMKEA8ew_voABQPA4tzQljbzuYQBvltQ,,,,,,,,,,,
,,,,,,,,,,,,,,p,1,0.727,space,0.233,0,189,189,95,1,15_dist_red/trial21.png,,,1,15,redHorizontal,p,20,26,Male,2021-02-18_09h18.08.196,exp11,2020.2.6,MacIntel,60,IwAR3H9iXHuOt4DW-9NG6f5m0zeAfDMKEA8ew_voABQPA4tzQljbzuYQBvltQ,,,,,,,,,,,
,,,,,,,,,,,,,,a,1,0.531,space,0.206,0,190,190,131,1,0_targ_4_dist_red/trial7.png,,,0,4,redHorizontal,a,20,26,Male,2021-02-18_09h18.08.196,exp11,2020.2.6,MacIntel,60,IwAR3H9iXHuOt4DW-9NG6f5m0zeAfDMKEA8ew_voABQPA4tzQljbzuYQBvltQ,,,,,,,,,,,
,,,,,,,,,,,,,,a,1,0.777,space,0.185,0,191,191,157,1,0_targ_10_dist_red/trial8.png,,,0,10,redHorizontal,a,20,26,Male,2021-02-18_09h18.08.196,exp11,2020.2.6,MacIntel,60,IwAR3H9iXHuOt4DW-9NG6f5m0zeAfDMKEA8ew_voABQPA4tzQljbzuYQBvltQ,,,,,,,,,,,
,,,,,,,,,,,,,,p,1,0.584,space,0.232,0,192,192,46,1,3_dist_red/trial22.png,,,1,3,redHorizontal,p,20,26,Male,2021-02-18_09h18.08.196,exp11,2020.2.6,MacIntel,60,IwAR3H9iXHuOt4DW-9NG6f5m0zeAfDMKEA8ew_voABQPA4tzQljbzuYQBvltQ,,,,,,,,,,,
,,,,,,,,,,,,,,a,1,0.485,space,0.238,0,193,193,118,1,0_targ_1_dist_red/trial19.png,,,0,1,redHorizontal,a,20,26,Male,2021-02-18_09h18.08.196,exp11,2020.2.6,MacIntel,60,IwAR3H9iXHuOt4DW-9NG6f5m0zeAfDMKEA8ew_voABQPA4tzQljbzuYQBvltQ,,,,,,,,,,,
,,,,,,,,,,,,,,p,0,0.675,space,0.352,0,194,194,106,1,0_targ_1_dist_red/trial7.png,,,0,1,redHorizontal,a,20,26,Male,2021-02-18_09h18.08.196,exp11,2020.2.6,MacIntel,60,IwAR3H9iXHuOt4DW-9NG6f5m0zeAfDMKEA8ew_voABQPA4tzQljbzuYQBvltQ,,,,,,,,,,,
,,,,,,,,,,,,,,a,0,0.699,space,2.253,0,195,195,31,1,3_dist_red/trial7.png,,,1,3,redHorizontal,p,20,26,Male,2021-02-18_09h18.08.196,exp11,2020.2.6,MacIntel,60,IwAR3H9iXHuOt4DW-9NG6f5m0zeAfDMKEA8ew_voABQPA4tzQljbzuYQBvltQ,,,,,,,,,,,
,,,,,,,,,,,,,,p,1,0.623,space,0.439,0,196,196,68,1,9_dist_red/trial19.png,,,1,9,redHorizontal,p,20,26,Male,2021-02-18_09h18.08.196,exp11,2020.2.6,MacIntel,60,IwAR3H9iXHuOt4DW-9NG6f5m0zeAfDMKEA8ew_voABQPA4tzQljbzuYQBvltQ,,,,,,,,,,,
,,,,,,,,,,,,,,a,1,0.884,space,0.366,0,197,197,198,1,0_targ_16_dist_red/trial24.png,,,0,16,redHorizontal,a,20,26,Male,2021-02-18_09h18.08.196,exp11,2020.2.6,MacIntel,60,IwAR3H9iXHuOt4DW-9NG6f5m0zeAfDMKEA8ew_voABQPA4tzQljbzuYQBvltQ,,,,,,,,,,,
,,,,,,,,,,,,,,p,1,0.683,space,0.255,0,198,198,75,1,15_dist_red/trial1.png,,,1,15,redHorizontal,p,20,26,Male,2021-02-18_09h18.08.196,exp11,2020.2.6,MacIntel,60,IwAR3H9iXHuOt4DW-9NG6f5m0zeAfDMKEA8ew_voABQPA4tzQljbzuYQBvltQ,,,,,,,,,,,
,,,,,,,,,,,,,,p,1,0.667,space,0.184,0,199,199,30,1,3_dist_red/trial6.png,,,1,3,redHorizontal,p,20,26,Male,2021-02-18_09h18.08.196,exp11,2020.2.6,MacIntel,60,IwAR3H9iXHuOt4DW-9NG6f5m0zeAfDMKEA8ew_voABQPA4tzQljbzuYQBvltQ,,,,,,,,,,,
,,,,,,,,,,,,,,,,,,,,,,,,,,,,,,,20,26,Male,2021-02-18_09h18.08.196,exp11,2020.2.6,MacIntel,60,IwAR3H9iXHuOt4DW-9NG6f5m0zeAfDMKEA8ew_voABQPA4tzQljbzuYQBvltQ,0,0,0,1,1,conRed.xlsx,red horizontal,Look for red horizontal bar (target) and indicate if it is present or absent in the array. If red horizontal target is present press 'p' and if absent press 'a'. Press SPACE to start.,,,
,,,,,,,,,,space,15.493,space,3.126,a,1,0.899,space,0.373,0,0,0,161,1,0_targ_10_dist_green/trial12.png,,,0,10,greenverival,a,20,26,Male,2021-02-18_09h18.08.196,exp11,2020.2.6,MacIntel,60,IwAR3H9iXHuOt4DW-9NG6f5m0zeAfDMKEA8ew_voABQPA4tzQljbzuYQBvltQ,,,,,,,,,,,
,,,,,,,,,,,,,,a,1,0.658,space,0.354,0,1,1,136,1,0_targ_4_dist_green/trial12.png,,,0,4,greenverival,a,20,26,Male,2021-02-18_09h18.08.196,exp11,2020.2.6,MacIntel,60,IwAR3H9iXHuOt4DW-9NG6f5m0zeAfDMKEA8ew_voABQPA4tzQljbzuYQBvltQ,,,,,,,,,,,
,,,,,,,,,,,,,,a,1,1.315,space,0.374,0,2,2,186,1,0_targ_16_dist_green/trial12.png,,,0,16,greenverival,a,20,26,Male,2021-02-18_09h18.08.196,exp11,2020.2.6,MacIntel,60,IwAR3H9iXHuOt4DW-9NG6f5m0zeAfDMKEA8ew_voABQPA4tzQljbzuYQBvltQ,,,,,,,,,,,
,,,,,,,,,,,,,,p,1,0.986,space,0.252,0,3,3,74,1,9_dist_green/trial25.png,,,1,9,greenverival,p,20,26,Male,2021-02-18_09h18.08.196,exp11,2020.2.6,MacIntel,60,IwAR3H9iXHuOt4DW-9NG6f5m0zeAfDMKEA8ew_voABQPA4tzQljbzuYQBvltQ,,,,,,,,,,,
,,,,,,,,,,,,,,a,1,0.628,space,0.298,0,4,4,145,1,0_targ_4_dist_green/trial21.png,,,0,4,greenverival,a,20,26,Male,2021-02-18_09h18.08.196,exp11,2020.2.6,MacIntel,60,IwAR3H9iXHuOt4DW-9NG6f5m0zeAfDMKEA8ew_voABQPA4tzQljbzuYQBvltQ,,,,,,,,,,,
,,,,,,,,,,,,,,a,1,0.585,space,0.268,0,5,5,164,1,0_targ_10_dist_green/trial15.png,,,0,10,greenverival,a,20,26,Male,2021-02-18_09h18.08.196,exp11,2020.2.6,MacIntel,60,IwAR3H9iXHuOt4DW-9NG6f5m0zeAfDMKEA8ew_voABQPA4tzQljbzuYQBvltQ,,,,,,,,,,,
,,,,,,,,,,,,,,a,1,0.66,space,0.202,0,6,6,131,1,0_targ_4_dist_green/trial7.png,,,0,4,greenverival,a,20,26,Male,2021-02-18_09h18.08.196,exp11,2020.2.6,MacIntel,60,IwAR3H9iXHuOt4DW-9NG6f5m0zeAfDMKEA8ew_voABQPA4tzQljbzuYQBvltQ,,,,,,,,,,,
,,,,,,,,,,,,,,a,1,0.518,space,0.2,0,7,7,129,1,0_targ_4_dist_green/trial5.png,,,0,4,greenverival,a,20,26,Male,2021-02-18_09h18.08.196,exp11,2020.2.6,MacIntel,60,IwAR3H9iXHuOt4DW-9NG6f5m0zeAfDMKEA8ew_voABQPA4tzQljbzuYQBvltQ,,,,,,,,,,,
,,,,,,,,,,,,,,p,1,0.642,space,0.19,0,8,8,39,1,3_dist_green/trial15.png,,,1,3,greenverival,p,20,26,Male,2021-02-18_09h18.08.196,exp11,2020.2.6,MacIntel,60,IwAR3H9iXHuOt4DW-9NG6f5m0zeAfDMKEA8ew_voABQPA4tzQljbzuYQBvltQ,,,,,,,,,,,
,,,,,,,,,,,,,,a,1,0.584,space,0.15,0,9,9,143,1,0_targ_4_dist_green/trial19.png,,,0,4,greenverival,a,20,26,Male,2021-02-18_09h18.08.196,exp11,2020.2.6,MacIntel,60,IwAR3H9iXHuOt4DW-9NG6f5m0zeAfDMKEA8ew_voABQPA4tzQljbzuYQBvltQ,,,,,,,,,,,
,,,,,,,,,,,,,,a,1,0.517,space,0.192,0,10,10,163,1,0_targ_10_dist_green/trial14.png,,,0,10,greenverival,a,20,26,Male,2021-02-18_09h18.08.196,exp11,2020.2.6,MacIntel,60,IwAR3H9iXHuOt4DW-9NG6f5m0zeAfDMKEA8ew_voABQPA4tzQljbzuYQBvltQ,,,,,,,,,,,
,,,,,,,,,,,,,,p,1,0.934,space,0.317,0,11,11,29,1,3_dist_green/trial5.png,,,1,3,greenverival,p,20,26,Male,2021-02-18_09h18.08.196,exp11,2020.2.6,MacIntel,60,IwAR3H9iXHuOt4DW-9NG6f5m0zeAfDMKEA8ew_voABQPA4tzQljbzuYQBvltQ,,,,,,,,,,,
,,,,,,,,,,,,,,a,1,0.676,space,0.184,0,12,12,193,1,0_targ_16_dist_green/trial19.png,,,0,16,greenverival,a,20,26,Male,2021-02-18_09h18.08.196,exp11,2020.2.6,MacIntel,60,IwAR3H9iXHuOt4DW-9NG6f5m0zeAfDMKEA8ew_voABQPA4tzQljbzuYQBvltQ,,,,,,,,,,,
,,,,,,,,,,,,,,a,1,0.517,space,0.29,0,13,13,141,1,0_targ_4_dist_green/trial17.png,,,0,4,greenverival,a,20,26,Male,2021-02-18_09h18.08.196,exp11,2020.2.6,MacIntel,60,IwAR3H9iXHuOt4DW-9NG6f5m0zeAfDMKEA8ew_voABQPA4tzQljbzuYQBvltQ,,,,,,,,,,,
,,,,,,,,,,,,,,p,1,0.711,space,0.185,0,14,14,42,1,3_dist_green/trial18.png,,,1,3,greenverival,p,20,26,Male,2021-02-18_09h18.08.196,exp11,2020.2.6,MacIntel,60,IwAR3H9iXHuOt4DW-9NG6f5m0zeAfDMKEA8ew_voABQPA4tzQljbzuYQBvltQ,,,,,,,,,,,
,,,,,,,,,,,,,,a,1,0.562,space,0.133,0,15,15,119,1,0_targ_1_dist_green/trial20.png,,,0,1,greenverival,a,20,26,Male,2021-02-18_09h18.08.196,exp11,2020.2.6,MacIntel,60,IwAR3H9iXHuOt4DW-9NG6f5m0zeAfDMKEA8ew_voABQPA4tzQljbzuYQBvltQ,,,,,,,,,,,
,,,,,,,,,,,,,,a,1,1.015,space,0.174,0,16,16,194,1,0_targ_16_dist_green/trial20.png,,,0,16,greenverival,a,20,26,Male,2021-02-18_09h18.08.196,exp11,2020.2.6,MacIntel,60,IwAR3H9iXHuOt4DW-9NG6f5m0zeAfDMKEA8ew_voABQPA4tzQljbzuYQBvltQ,,,,,,,,,,,
,,,,,,,,,,,,,,p,1,0.542,space,0.135,0,17,17,0,1,0_dist_green/trial1.png,,,1,0,greenverival,p,20,26,Male,2021-02-18_09h18.08.196,exp11,2020.2.6,MacIntel,60,IwAR3H9iXHuOt4DW-9NG6f5m0zeAfDMKEA8ew_voABQPA4tzQljbzuYQBvltQ,,,,,,,,,,,
,,,,,,,,,,,,,,a,1,0.497,space,0.106,0,18,18,134,1,0_targ_4_dist_green/trial10.png,,,0,4,greenverival,a,20,26,Male,2021-02-18_09h18.08.196,exp11,2020.2.6,MacIntel,60,IwAR3H9iXHuOt4DW-9NG6f5m0zeAfDMKEA8ew_voABQPA4tzQljbzuYQBvltQ,,,,,,,,,,,
,,,,,,,,,,,,,,a,1,0.733,space,0.108,0,19,19,148,1,0_targ_4_dist_green/trial24.png,,,0,4,greenverival,a,20,26,Male,2021-02-18_09h18.08.196,exp11,2020.2.6,MacIntel,60,IwAR3H9iXHuOt4DW-9NG6f5m0zeAfDMKEA8ew_voABQPA4tzQljbzuYQBvltQ,,,,,,,,,,,
,,,,,,,,,,,,,,a,0,0.7,space,1.222,0,20,20,82,1,15_dist_green/trial8.png,,,1,15,greenverival,p,20,26,Male,2021-02-18_09h18.08.196,exp11,2020.2.6,MacIntel,60,IwAR3H9iXHuOt4DW-9NG6f5m0zeAfDMKEA8ew_voABQPA4tzQljbzuYQBvltQ,,,,,,,,,,,
,,,,,,,,,,,,,,a,1,0.708,space,0.155,0,21,21,195,1,0_targ_16_dist_green/trial21.png,,,0,16,greenverival,a,20,26,Male,2021-02-18_09h18.08.196,exp11,2020.2.6,MacIntel,60,IwAR3H9iXHuOt4DW-9NG6f5m0zeAfDMKEA8ew_voABQPA4tzQljbzuYQBvltQ,,,,,,,,,,,
,,,,,,,,,,,,,,a,1,0.675,space,0.124,0,22,22,125,1,0_targ_4_dist_green/trial1.png,,,0,4,greenverival,a,20,26,Male,2021-02-18_09h18.08.196,exp11,2020.2.6,MacIntel,60,IwAR3H9iXHuOt4DW-9NG6f5m0zeAfDMKEA8ew_voABQPA4tzQljbzuYQBvltQ,,,,,,,,,,,
,,,,,,,,,,,,,,p,1,0.506,space,0.167,0,23,23,17,1,0_dist_green/trial18.png,,,1,0,greenverival,p,20,26,Male,2021-02-18_09h18.08.196,exp11,2020.2.6,MacIntel,60,IwAR3H9iXHuOt4DW-9NG6f5m0zeAfDMKEA8ew_voABQPA4tzQljbzuYQBvltQ,,,,,,,,,,,
,,,,,,,,,,,,,,p,1,0.844,space,0.606,0,24,24,22,1,0_dist_green/trial23.png,,,1,0,greenverival,p,20,26,Male,2021-02-18_09h18.08.196,exp11,2020.2.6,MacIntel,60,IwAR3H9iXHuOt4DW-9NG6f5m0zeAfDMKEA8ew_voABQPA4tzQljbzuYQBvltQ,,,,,,,,,,,
,,,,,,,,,,,,,,a,1,0.583,space,0.188,0,25,25,126,1,0_targ_4_dist_green/trial2.png,,,0,4,greenverival,a,20,26,Male,2021-02-18_09h18.08.196,exp11,2020.2.6,MacIntel,60,IwAR3H9iXHuOt4DW-9NG6f5m0zeAfDMKEA8ew_voABQPA4tzQljbzuYQBvltQ,,,,,,,,,,,
,,,,,,,,,,,,,,a,1,0.827,space,0.152,0,26,26,180,1,0_targ_16_dist_green/trial6.png,,,0,16,greenverival,a,20,26,Male,2021-02-18_09h18.08.196,exp11,2020.2.6,MacIntel,60,IwAR3H9iXHuOt4DW-9NG6f5m0zeAfDMKEA8ew_voABQPA4tzQljbzuYQBvltQ,,,,,,,,,,,
,,,,,,,,,,,,,,p,1,1.148,space,0.306,0,27,27,46,1,3_dist_green/trial22.png,,,1,3,greenverival,p,20,26,Male,2021-02-18_09h18.08.196,exp11,2020.2.6,MacIntel,60,IwAR3H9iXHuOt4DW-9NG6f5m0zeAfDMKEA8ew_voABQPA4tzQljbzuYQBvltQ,,,,,,,,,,,
,,,,,,,,,,,,,,p,1,0.581,space,0.168,0,28,28,8,1,0_dist_green/trial9.png,,,1,0,greenverival,p,20,26,Male,2021-02-18_09h18.08.196,exp11,2020.2.6,MacIntel,60,IwAR3H9iXHuOt4DW-9NG6f5m0zeAfDMKEA8ew_voABQPA4tzQljbzuYQBvltQ,,,,,,,,,,,
,,,,,,,,,,,,,,p,1,0.548,space,0.089,0,29,29,72,1,9_dist_green/trial23.png,,,1,9,greenverival,p,20,26,Male,2021-02-18_09h18.08.196,exp11,2020.2.6,MacIntel,60,IwAR3H9iXHuOt4DW-9NG6f5m0zeAfDMKEA8ew_voABQPA4tzQljbzuYQBvltQ,,,,,,,,,,,
,,,,,,,,,,,,,,p,1,0.801,space,0.108,0,30,30,35,1,3_dist_green/trial11.png,,,1,3,greenverival,p,20,26,Male,2021-02-18_09h18.08.196,exp11,2020.2.6,MacIntel,60,IwAR3H9iXHuOt4DW-9NG6f5m0zeAfDMKEA8ew_voABQPA4tzQljbzuYQBvltQ,,,,,,,,,,,
,,,,,,,,,,,,,,a,1,0.794,space,0.366,0,31,31,172,1,0_targ_10_dist_green/trial23.png,,,0,10,greenverival,a,20,26,Male,2021-02-18_09h18.08.196,exp11,2020.2.6,MacIntel,60,IwAR3H9iXHuOt4DW-9NG6f5m0zeAfDMKEA8ew_voABQPA4tzQljbzuYQBvltQ,,,,,,,,,,,
,,,,,,,,,,,,,,a,1,0.665,space,0.167,0,32,32,127,1,0_targ_4_dist_green/trial3.png,,,0,4,greenverival,a,20,26,Male,2021-02-18_09h18.08.196,exp11,2020.2.6,MacIntel,60,IwAR3H9iXHuOt4DW-9NG6f5m0zeAfDMKEA8ew_voABQPA4tzQljbzuYQBvltQ,,,,,,,,,,,
,,,,,,,,,,,,,,p,1,0.708,space,0.173,0,33,33,98,1,15_dist_green/trial24.png,,,1,15,greenverival,p,20,26,Male,2021-02-18_09h18.08.196,exp11,2020.2.6,MacIntel,60,IwAR3H9iXHuOt4DW-9NG6f5m0zeAfDMKEA8ew_voABQPA4tzQljbzuYQBvltQ,,,,,,,,,,,
,,,,,,,,,,,,,,a,1,0.849,space,0.133,0,34,34,122,1,0_targ_1_dist_green/trial23.png,,,0,1,greenverival,a,20,26,Male,2021-02-18_09h18.08.196,exp11,2020.2.6,MacIntel,60,IwAR3H9iXHuOt4DW-9NG6f5m0zeAfDMKEA8ew_voABQPA4tzQljbzuYQBvltQ,,,,,,,,,,,
,,,,,,,,,,,,,,p,1,0.875,space,0.183,0,35,35,93,1,15_dist_green/trial19.png,,,1,15,greenverival,p,20,26,Male,2021-02-18_09h18.08.196,exp11,2020.2.6,MacIntel,60,IwAR3H9iXHuOt4DW-9NG6f5m0zeAfDMKEA8ew_voABQPA4tzQljbzuYQBvltQ,,,,,,,,,,,
,,,,,,,,,,,,,,a,1,0.563,space,0.201,0,36,36,103,1,0_targ_1_dist_green/trial4.png,,,0,1,greenverival,a,20,26,Male,2021-02-18_09h18.08.196,exp11,2020.2.6,MacIntel,60,IwAR3H9iXHuOt4DW-9NG6f5m0zeAfDMKEA8ew_voABQPA4tzQljbzuYQBvltQ,,,,,,,,,,,
,,,,,,,,,,,,,,a,1,0.598,space,0.172,0,37,37,130,1,0_targ_4_dist_green/trial6.png,,,0,4,greenverival,a,20,26,Male,2021-02-18_09h18.08.196,exp11,2020.2.6,MacIntel,60,IwAR3H9iXHuOt4DW-9NG6f5m0zeAfDMKEA8ew_voABQPA4tzQljbzuYQBvltQ,,,,,,,,,,,
,,,,,,,,,,,,,,a,1,0.713,space,0.167,0,38,38,188,1,0_targ_16_dist_green/trial14.png,,,0,16,greenverival,a,20,26,Male,2021-02-18_09h18.08.196,exp11,2020.2.6,MacIntel,60,IwAR3H9iXHuOt4DW-9NG6f5m0zeAfDMKEA8ew_voABQPA4tzQljbzuYQBvltQ,,,,,,,,,,,
,,,,,,,,,,,,,,a,1,0.75,space,0.124,0,39,39,184,1,0_targ_16_dist_green/trial10.png,,,0,16,greenverival,a,20,26,Male,2021-02-18_09h18.08.196,exp11,2020.2.6,MacIntel,60,IwAR3H9iXHuOt4DW-9NG6f5m0zeAfDMKEA8ew_voABQPA4tzQljbzuYQBvltQ,,,,,,,,,,,
,,,,,,,,,,,,,,p,1,1.086,space,0.257,0,40,40,87,1,15_dist_green/trial13.png,,,1,15,greenverival,p,20,26,Male,2021-02-18_09h18.08.196,exp11,2020.2.6,MacIntel,60,IwAR3H9iXHuOt4DW-9NG6f5m0zeAfDMKEA8ew_voABQPA4tzQljbzuYQBvltQ,,,,,,,,,,,
,,,,,,,,,,,,,,a,1,0.65,space,0.124,0,41,41,174,1,0_targ_10_dist_green/trial25.png,,,0,10,greenverival,a,20,26,Male,2021-02-18_09h18.08.196,exp11,2020.2.6,MacIntel,60,IwAR3H9iXHuOt4DW-9NG6f5m0zeAfDMKEA8ew_voABQPA4tzQljbzuYQBvltQ,,,,,,,,,,,
,,,,,,,,,,,,,,a,1,0.614,space,0.119,0,42,42,198,1,0_targ_16_dist_green/trial24.png,,,0,16,greenverival,a,20,26,Male,2021-02-18_09h18.08.196,exp11,2020.2.6,MacIntel,60,IwAR3H9iXHuOt4DW-9NG6f5m0zeAfDMKEA8ew_voABQPA4tzQljbzuYQBvltQ,,,,,,,,,,,
,,,,,,,,,,,,,,a,0,0.813,space,6.757,0,43,43,91,1,15_dist_green/trial17.png,,,1,15,greenverival,p,20,26,Male,2021-02-18_09h18.08.196,exp11,2020.2.6,MacIntel,60,IwAR3H9iXHuOt4DW-9NG6f5m0zeAfDMKEA8ew_voABQPA4tzQljbzuYQBvltQ,,,,,,,,,,,
,,,,,,,,,,,,,,p,1,0.647,space,0.2,0,44,44,67,1,9_dist_green/trial18.png,,,1,9,greenverival,p,20,26,Male,2021-02-18_09h18.08.196,exp11,2020.2.6,MacIntel,60,IwAR3H9iXHuOt4DW-9NG6f5m0zeAfDMKEA8ew_voABQPA4tzQljbzuYQBvltQ,,,,,,,,,,,
,,,,,,,,,,,,,,p,0,0.577,space,0.432,0,45,45,105,1,0_targ_1_dist_green/trial6.png,,,0,1,greenverival,a,20,26,Male,2021-02-18_09h18.08.196,exp11,2020.2.6,MacIntel,60,IwAR3H9iXHuOt4DW-9NG6f5m0zeAfDMKEA8ew_voABQPA4tzQljbzuYQBvltQ,,,,,,,,,,,
,,,,,,,,,,,,,,p,1,0.866,space,0.249,0,46,46,83,1,15_dist_green/trial9.png,,,1,15,greenverival,p,20,26,Male,2021-02-18_09h18.08.196,exp11,2020.2.6,MacIntel,60,IwAR3H9iXHuOt4DW-9NG6f5m0zeAfDMKEA8ew_voABQPA4tzQljbzuYQBvltQ,,,,,,,,,,,
,,,,,,,,,,,,,,p,1,0.618,space,0.141,0,47,47,38,1,3_dist_green/trial14.png,,,1,3,greenverival,p,20,26,Male,2021-02-18_09h18.08.196,exp11,2020.2.6,MacIntel,60,IwAR3H9iXHuOt4DW-9NG6f5m0zeAfDMKEA8ew_voABQPA4tzQljbzuYQBvltQ,,,,,,,,,,,
,,,,,,,,,,,,,,a,1,1.028,space,0.138,0,48,48,157,1,0_targ_10_dist_green/trial8.png,,,0,10,greenverival,a,20,26,Male,2021-02-18_09h18.08.196,exp11,2020.2.6,MacIntel,60,IwAR3H9iXHuOt4DW-9NG6f5m0zeAfDMKEA8ew_voABQPA4tzQljbzuYQBvltQ,,,,,,,,,,,
,,,,,,,,,,,,,,p,1,0.828,space,0.472,0,49,49,34,1,3_dist_green/trial10.png,,,1,3,greenverival,p,20,26,Male,2021-02-18_09h18.08.196,exp11,2020.2.6,MacIntel,60,IwAR3H9iXHuOt4DW-9NG6f5m0zeAfDMKEA8ew_voABQPA4tzQljbzuYQBvltQ,,,,,,,,,,,
,,,,,,,,,,,,,,p,1,0.681,space,0.373,0,50,50,89,1,15_dist_green/trial15.png,,,1,15,greenverival,p,20,26,Male,2021-02-18_09h18.08.196,exp11,2020.2.6,MacIntel,60,IwAR3H9iXHuOt4DW-9NG6f5m0zeAfDMKEA8ew_voABQPA4tzQljbzuYQBvltQ,,,,,,,,,,,
,,,,,,,,,,,,,,p,1,0.629,space,0.156,0,51,51,36,1,3_dist_green/trial12.png,,,1,3,greenverival,p,20,26,Male,2021-02-18_09h18.08.196,exp11,2020.2.6,MacIntel,60,IwAR3H9iXHuOt4DW-9NG6f5m0zeAfDMKEA8ew_voABQPA4tzQljbzuYQBvltQ,,,,,,,,,,,
,,,,,,,,,,,,,,p,1,1.166,space,0.142,0,52,52,97,1,15_dist_green/trial23.png,,,1,15,greenverival,p,20,26,Male,2021-02-18_09h18.08.196,exp11,2020.2.6,MacIntel,60,IwAR3H9iXHuOt4DW-9NG6f5m0zeAfDMKEA8ew_voABQPA4tzQljbzuYQBvltQ,,,,,,,,,,,
,,,,,,,,,,,,,,p,1,0.562,space,0.089,0,53,53,84,1,15_dist_green/trial10.png,,,1,15,greenverival,p,20,26,Male,2021-02-18_09h18.08.196,exp11,2020.2.6,MacIntel,60,IwAR3H9iXHuOt4DW-9NG6f5m0zeAfDMKEA8ew_voABQPA4tzQljbzuYQBvltQ,,,,,,,,,,,
,,,,,,,,,,,,,,p,1,0.633,space,0.059,0,54,54,10,1,0_dist_green/trial11.png,,,1,0,greenverival,p,20,26,Male,2021-02-18_09h18.08.196,exp11,2020.2.6,MacIntel,60,IwAR3H9iXHuOt4DW-9NG6f5m0zeAfDMKEA8ew_voABQPA4tzQljbzuYQBvltQ,,,,,,,,,,,
,,,,,,,,,,,,,,p,1,0.858,space,0.068,0,55,55,31,1,3_dist_green/trial7.png,,,1,3,greenverival,p,20,26,Male,2021-02-18_09h18.08.196,exp11,2020.2.6,MacIntel,60,IwAR3H9iXHuOt4DW-9NG6f5m0zeAfDMKEA8ew_voABQPA4tzQljbzuYQBvltQ,,,,,,,,,,,
,,,,,,,,,,,,,,p,1,0.829,space,0.555,0,56,56,62,1,9_dist_green/trial13.png,,,1,9,greenverival,p,20,26,Male,2021-02-18_09h18.08.196,exp11,2020.2.6,MacIntel,60,IwAR3H9iXHuOt4DW-9NG6f5m0zeAfDMKEA8ew_voABQPA4tzQljbzuYQBvltQ,,,,,,,,,,,
,,,,,,,,,,,,,,p,1,0.582,space,0.283,0,57,57,61,1,9_dist_green/trial12.png,,,1,9,greenverival,p,20,26,Male,2021-02-18_09h18.08.196,exp11,2020.2.6,MacIntel,60,IwAR3H9iXHuOt4DW-9NG6f5m0zeAfDMKEA8ew_voABQPA4tzQljbzuYQBvltQ,,,,,,,,,,,
,,,,,,,,,,,,,,p,1,0.878,space,0.484,0,58,58,55,1,9_dist_green/trial6.png,,,1,9,greenverival,p,20,26,Male,2021-02-18_09h18.08.196,exp11,2020.2.6,MacIntel,60,IwAR3H9iXHuOt4DW-9NG6f5m0zeAfDMKEA8ew_voABQPA4tzQljbzuYQBvltQ,,,,,,,,,,,
,,,,,,,,,,,,,,p,1,0.662,space,0.239,0,59,59,54,1,9_dist_green/trial5.png,,,1,9,greenverival,p,20,26,Male,2021-02-18_09h18.08.196,exp11,2020.2.6,MacIntel,60,IwAR3H9iXHuOt4DW-9NG6f5m0zeAfDMKEA8ew_voABQPA4tzQljbzuYQBvltQ,,,,,,,,,,,
,,,,,,,,,,,,,,p,1,0.646,space,0.356,0,60,60,18,1,0_dist_green/trial19.png,,,1,0,greenverival,p,20,26,Male,2021-02-18_09h18.08.196,exp11,2020.2.6,MacIntel,60,IwAR3H9iXHuOt4DW-9NG6f5m0zeAfDMKEA8ew_voABQPA4tzQljbzuYQBvltQ,,,,,,,,,,,
,,,,,,,,,,,,,,a,1,0.699,space,0.201,0,61,61,165,1,0_targ_10_dist_green/trial16.png,,,0,10,greenverival,a,20,26,Male,2021-02-18_09h18.08.196,exp11,2020.2.6,MacIntel,60,IwAR3H9iXHuOt4DW-9NG6f5m0zeAfDMKEA8ew_voABQPA4tzQljbzuYQBvltQ,,,,,,,,,,,
,,,,,,,,,,,,,,p,1,0.778,space,0.238,0,62,62,7,1,0_dist_green/trial8.png,,,1,0,greenverival,p,20,26,Male,2021-02-18_09h18.08.196,exp11,2020.2.6,MacIntel,60,IwAR3H9iXHuOt4DW-9NG6f5m0zeAfDMKEA8ew_voABQPA4tzQljbzuYQBvltQ,,,,,,,,,,,
,,,,,,,,,,,,,,a,1,0.575,space,0.118,0,63,63,109,1,0_targ_1_dist_green/trial10.png,,,0,1,greenverival,a,20,26,Male,2021-02-18_09h18.08.196,exp11,2020.2.6,MacIntel,60,IwAR3H9iXHuOt4DW-9NG6f5m0zeAfDMKEA8ew_voABQPA4tzQljbzuYQBvltQ,,,,,,,,,,,
,,,,,,,,,,,,,,p,0,0.749,space,0.119,0,64,64,140,1,0_targ_4_dist_green/trial6.png,,,0,4,greenverival,a,20,26,Male,2021-02-18_09h18.08.196,exp11,2020.2.6,MacIntel,60,IwAR3H9iXHuOt4DW-9NG6f5m0zeAfDMKEA8ew_voABQPA4tzQljbzuYQBvltQ,,,,,,,,,,,
,,,,,,,,,,,,,,p,1,0.544,space,0.191,0,65,65,47,1,3_dist_green/trial23.png,,,1,3,greenverival,p,20,26,Male,2021-02-18_09h18.08.196,exp11,2020.2.6,MacIntel,60,IwAR3H9iXHuOt4DW-9NG6f5m0zeAfDMKEA8ew_voABQPA4tzQljbzuYQBvltQ,,,,,,,,,,,
,,,,,,,,,,,,,,p,1,0.762,space,1.017,0,66,66,16,1,0_dist_green/trial17.png,,,1,0,greenverival,p,20,26,Male,2021-02-18_09h18.08.196,exp11,2020.2.6,MacIntel,60,IwAR3H9iXHuOt4DW-9NG6f5m0zeAfDMKEA8ew_voABQPA4tzQljbzuYQBvltQ,,,,,,,,,,,
,,,,,,,,,,,,,,p,1,0.417,space,1.173,0,67,67,1,1,0_dist_green/trial2.png,,,1,0,greenverival,p,20,26,Male,2021-02-18_09h18.08.196,exp11,2020.2.6,MacIntel,60,IwAR3H9iXHuOt4DW-9NG6f5m0zeAfDMKEA8ew_voABQPA4tzQljbzuYQBvltQ,,,,,,,,,,,
,,,,,,,,,,,,,,p,1,0.442,space,0.772,0,68,68,2,1,0_dist_green/trial3.png,,,1,0,greenverival,p,20,26,Male,2021-02-18_09h18.08.196,exp11,2020.2.6,MacIntel,60,IwAR3H9iXHuOt4DW-9NG6f5m0zeAfDMKEA8ew_voABQPA4tzQljbzuYQBvltQ,,,,,,,,,,,
,,,,,,,,,,,,,,a,1,0.528,space,1.171,0,69,69,154,1,0_targ_10_dist_green/trial5.png,,,0,10,greenverival,a,20,26,Male,2021-02-18_09h18.08.196,exp11,2020.2.6,MacIntel,60,IwAR3H9iXHuOt4DW-9NG6f5m0zeAfDMKEA8ew_voABQPA4tzQljbzuYQBvltQ,,,,,,,,,,,
,,,,,,,,,,,,,,a,1,0.533,space,1.071,0,70,70,152,1,0_targ_10_dist_green/trial3.png,,,0,10,greenverival,a,20,26,Male,2021-02-18_09h18.08.196,exp11,2020.2.6,MacIntel,60,IwAR3H9iXHuOt4DW-9NG6f5m0zeAfDMKEA8ew_voABQPA4tzQljbzuYQBvltQ,,,,,,,,,,,
,,,,,,,,,,,,,,p,1,0.41,space,0.798,0,71,71,56,1,9_dist_green/trial7.png,,,1,9,greenverival,p,20,26,Male,2021-02-18_09h18.08.196,exp11,2020.2.6,MacIntel,60,IwAR3H9iXHuOt4DW-9NG6f5m0zeAfDMKEA8ew_voABQPA4tzQljbzuYQBvltQ,,,,,,,,,,,
,,,,,,,,,,,,,,a,0,0.709,space,1.371,0,72,72,49,1,3_dist_green/trial25.png,,,1,3,greenverival,p,20,26,Male,2021-02-18_09h18.08.196,exp11,2020.2.6,MacIntel,60,IwAR3H9iXHuOt4DW-9NG6f5m0zeAfDMKEA8ew_voABQPA4tzQljbzuYQBvltQ,,,,,,,,,,,
,,,,,,,,,,,,,,p,1,0.618,space,1.236,0,73,73,90,1,15_dist_green/trial16.png,,,1,15,greenverival,p,20,26,Male,2021-02-18_09h18.08.196,exp11,2020.2.6,MacIntel,60,IwAR3H9iXHuOt4DW-9NG6f5m0zeAfDMKEA8ew_voABQPA4tzQljbzuYQBvltQ,,,,,,,,,,,
,,,,,,,,,,,,,,p,1,0.395,space,1.48,0,74,74,19,1,0_dist_green/trial20.png,,,1,0,greenverival,p,20,26,Male,2021-02-18_09h18.08.196,exp11,2020.2.6,MacIntel,60,IwAR3H9iXHuOt4DW-9NG6f5m0zeAfDMKEA8ew_voABQPA4tzQljbzuYQBvltQ,,,,,,,,,,,
,,,,,,,,,,,,,,a,1,0.527,space,1.288,0,75,75,111,1,0_targ_1_dist_green/trial12.png,,,0,1,greenverival,a,20,26,Male,2021-02-18_09h18.08.196,exp11,2020.2.6,MacIntel,60,IwAR3H9iXHuOt4DW-9NG6f5m0zeAfDMKEA8ew_voABQPA4tzQljbzuYQBvltQ,,,,,,,,,,,
,,,,,,,,,,,,,,a,1,0.499,space,1.216,0,76,76,153,1,0_targ_10_dist_green/trial4.png,,,0,10,greenverival,a,20,26,Male,2021-02-18_09h18.08.196,exp11,2020.2.6,MacIntel,60,IwAR3H9iXHuOt4DW-9NG6f5m0zeAfDMKEA8ew_voABQPA4tzQljbzuYQBvltQ,,,,,,,,,,,
,,,,,,,,,,,,,,a,0,0.512,space,0.716,0,77,77,30,1,3_dist_green/trial6.png,,,1,3,greenverival,p,20,26,Male,2021-02-18_09h18.08.196,exp11,2020.2.6,MacIntel,60,IwAR3H9iXHuOt4DW-9NG6f5m0zeAfDMKEA8ew_voABQPA4tzQljbzuYQBvltQ,,,,,,,,,,,
,,,,,,,,,,,,,,p,1,1.109,space,1.031,0,78,78,77,1,15_dist_green/trial3.png,,,1,15,greenverival,p,20,26,Male,2021-02-18_09h18.08.196,exp11,2020.2.6,MacIntel,60,IwAR3H9iXHuOt4DW-9NG6f5m0zeAfDMKEA8ew_voABQPA4tzQljbzuYQBvltQ,,,,,,,,,,,
,,,,,,,,,,,,,,a,1,0.56,space,0.5,0,79,79,128,1,0_targ_4_dist_green/trial4.png,,,0,4,greenverival,a,20,26,Male,2021-02-18_09h18.08.196,exp11,2020.2.6,MacIntel,60,IwAR3H9iXHuOt4DW-9NG6f5m0zeAfDMKEA8ew_voABQPA4tzQljbzuYQBvltQ,,,,,,,,,,,
,,,,,,,,,,,,,,a,1,0.896,space,0.351,0,80,80,160,1,0_targ_10_dist_green/trial11.png,,,0,10,greenverival,a,20,26,Male,2021-02-18_09h18.08.196,exp11,2020.2.6,MacIntel,60,IwAR3H9iXHuOt4DW-9NG6f5m0zeAfDMKEA8ew_voABQPA4tzQljbzuYQBvltQ,,,,,,,,,,,
,,,,,,,,,,,,,,a,1,0.892,space,0.865,0,81,81,183,1,0_targ_16_dist_green/trial9.png,,,0,16,greenverival,a,20,26,Male,2021-02-18_09h18.08.196,exp11,2020.2.6,MacIntel,60,IwAR3H9iXHuOt4DW-9NG6f5m0zeAfDMKEA8ew_voABQPA4tzQljbzuYQBvltQ,,,,,,,,,,,
,,,,,,,,,,,,,,p,1,0.799,space,2.247,0,82,82,95,1,15_dist_green/trial21.png,,,1,15,greenverival,p,20,26,Male,2021-02-18_09h18.08.196,exp11,2020.2.6,MacIntel,60,IwAR3H9iXHuOt4DW-9NG6f5m0zeAfDMKEA8ew_voABQPA4tzQljbzuYQBvltQ,,,,,,,,,,,
,,,,,,,,,,,,,,p,1,0.575,space,0.34,0,83,83,71,1,9_dist_green/trial22.png,,,1,9,greenverival,p,20,26,Male,2021-02-18_09h18.08.196,exp11,2020.2.6,MacIntel,60,IwAR3H9iXHuOt4DW-9NG6f5m0zeAfDMKEA8ew_voABQPA4tzQljbzuYQBvltQ,,,,,,,,,,,
,,,,,,,,,,,,,,a,1,0.734,space,0.225,0,84,84,199,1,0_targ_16_dist_green/trial25.png,,,0,16,greenverival,a,20,26,Male,2021-02-18_09h18.08.196,exp11,2020.2.6,MacIntel,60,IwAR3H9iXHuOt4DW-9NG6f5m0zeAfDMKEA8ew_voABQPA4tzQljbzuYQBvltQ,,,,,,,,,,,
,,,,,,,,,,,,,,p,1,0.779,space,1.27,0,85,85,51,1,9_dist_green/trial2.png,,,1,9,greenverival,p,20,26,Male,2021-02-18_09h18.08.196,exp11,2020.2.6,MacIntel,60,IwAR3H9iXHuOt4DW-9NG6f5m0zeAfDMKEA8ew_voABQPA4tzQljbzuYQBvltQ,,,,,,,,,,,
,,,,,,,,,,,,,,p,1,0.812,space,0.85,0,86,86,63,1,9_dist_green/trial14.png,,,1,9,greenverival,p,20,26,Male,2021-02-18_09h18.08.196,exp11,2020.2.6,MacIntel,60,IwAR3H9iXHuOt4DW-9NG6f5m0zeAfDMKEA8ew_voABQPA4tzQljbzuYQBvltQ,,,,,,,,,,,
,,,,,,,,,,,,,,a,0,0.662,space,1.315,0,87,87,80,1,15_dist_green/trial6.png,,,1,15,greenverival,p,20,26,Male,2021-02-18_09h18.08.196,exp11,2020.2.6,MacIntel,60,IwAR3H9iXHuOt4DW-9NG6f5m0zeAfDMKEA8ew_voABQPA4tzQljbzuYQBvltQ,,,,,,,,,,,
,,,,,,,,,,,,,,p,1,0.782,space,0.134,0,88,88,73,1,9_dist_green/trial24.png,,,1,9,greenverival,p,20,26,Male,2021-02-18_09h18.08.196,exp11,2020.2.6,MacIntel,60,IwAR3H9iXHuOt4DW-9NG6f5m0zeAfDMKEA8ew_voABQPA4tzQljbzuYQBvltQ,,,,,,,,,,,
,,,,,,,,,,,,,,p,1,0.78,space,0.888,0,89,89,86,1,15_dist_green/trial12.png,,,1,15,greenverival,p,20,26,Male,2021-02-18_09h18.08.196,exp11,2020.2.6,MacIntel,60,IwAR3H9iXHuOt4DW-9NG6f5m0zeAfDMKEA8ew_voABQPA4tzQljbzuYQBvltQ,,,,,,,,,,,
,,,,,,,,,,,,,,a,1,0.708,space,0.972,0,90,90,118,1,0_targ_1_dist_green/trial19.png,,,0,1,greenverival,a,20,26,Male,2021-02-18_09h18.08.196,exp11,2020.2.6,MacIntel,60,IwAR3H9iXHuOt4DW-9NG6f5m0zeAfDMKEA8ew_voABQPA4tzQljbzuYQBvltQ,,,,,,,,,,,
,,,,,,,,,,,,,,p,1,0.561,space,1.931,0,91,91,28,1,3_dist_green/trial4.png,,,1,3,greenverival,p,20,26,Male,2021-02-18_09h18.08.196,exp11,2020.2.6,MacIntel,60,IwAR3H9iXHuOt4DW-9NG6f5m0zeAfDMKEA8ew_voABQPA4tzQljbzuYQBvltQ,,,,,,,,,,,
,,,,,,,,,,,,,,a,1,0.747,space,1.255,0,92,92,159,1,0_targ_10_dist_green/trial10.png,,,0,10,greenverival,a,20,26,Male,2021-02-18_09h18.08.196,exp11,2020.2.6,MacIntel,60,IwAR3H9iXHuOt4DW-9NG6f5m0zeAfDMKEA8ew_voABQPA4tzQljbzuYQBvltQ,,,,,,,,,,,
,,,,,,,,,,,,,,a,1,0.467,space,1.197,0,93,93,104,1,0_targ_1_dist_green/trial5.png,,,0,1,greenverival,a,20,26,Male,2021-02-18_09h18.08.196,exp11,2020.2.6,MacIntel,60,IwAR3H9iXHuOt4DW-9NG6f5m0zeAfDMKEA8ew_voABQPA4tzQljbzuYQBvltQ,,,,,,,,,,,
,,,,,,,,,,,,,,a,1,0.48,space,1.678,0,94,94,151,1,0_targ_10_dist_green/trial2.png,,,0,10,greenverival,a,20,26,Male,2021-02-18_09h18.08.196,exp11,2020.2.6,MacIntel,60,IwAR3H9iXHuOt4DW-9NG6f5m0zeAfDMKEA8ew_voABQPA4tzQljbzuYQBvltQ,,,,,,,,,,,
,,,,,,,,,,,,,,a,0,0.53,space,0.431,0,95,95,43,1,3_dist_green/trial19.png,,,1,3,greenverival,p,20,26,Male,2021-02-18_09h18.08.196,exp11,2020.2.6,MacIntel,60,IwAR3H9iXHuOt4DW-9NG6f5m0zeAfDMKEA8ew_voABQPA4tzQljbzuYQBvltQ,,,,,,,,,,,
,,,,,,,,,,,,,,a,1,0.562,space,0.888,0,96,96,147,1,0_targ_4_dist_green/trial23.png,,,0,4,greenverival,a,20,26,Male,2021-02-18_09h18.08.196,exp11,2020.2.6,MacIntel,60,IwAR3H9iXHuOt4DW-9NG6f5m0zeAfDMKEA8ew_voABQPA4tzQljbzuYQBvltQ,,,,,,,,,,,
,,,,,,,,,,,,,,a,1,0.649,space,0.289,0,97,97,169,1,0_targ_10_dist_green/trial20.png,,,0,10,greenverival,a,20,26,Male,2021-02-18_09h18.08.196,exp11,2020.2.6,MacIntel,60,IwAR3H9iXHuOt4DW-9NG6f5m0zeAfDMKEA8ew_voABQPA4tzQljbzuYQBvltQ,,,,,,,,,,,
,,,,,,,,,,,,,,a,1,0.616,space,0.571,0,98,98,156,1,0_targ_10_dist_green/trial7.png,,,0,10,greenverival,a,20,26,Male,2021-02-18_09h18.08.196,exp11,2020.2.6,MacIntel,60,IwAR3H9iXHuOt4DW-9NG6f5m0zeAfDMKEA8ew_voABQPA4tzQljbzuYQBvltQ,,,,,,,,,,,
,,,,,,,,,,,,,,a,1,0.748,space,0.385,0,99,99,170,1,0_targ_10_dist_green/trial21.png,,,0,10,greenverival,a,20,26,Male,2021-02-18_09h18.08.196,exp11,2020.2.6,MacIntel,60,IwAR3H9iXHuOt4DW-9NG6f5m0zeAfDMKEA8ew_voABQPA4tzQljbzuYQBvltQ,,,,,,,,,,,
,,,,,,,,,,,,,,a,0,0.927,space,2.038,0,100,100,79,1,15_dist_green/trial5.png,,,1,15,greenverival,p,20,26,Male,2021-02-18_09h18.08.196,exp11,2020.2.6,MacIntel,60,IwAR3H9iXHuOt4DW-9NG6f5m0zeAfDMKEA8ew_voABQPA4tzQljbzuYQBvltQ,,,,,,,,,,,
,,,,,,,,,,,,,,a,1,0.665,space,0.405,0,101,101,107,1,0_targ_1_dist_green/trial8.png,,,0,1,greenverival,a,20,26,Male,2021-02-18_09h18.08.196,exp11,2020.2.6,MacIntel,60,IwAR3H9iXHuOt4DW-9NG6f5m0zeAfDMKEA8ew_voABQPA4tzQljbzuYQBvltQ,,,,,,,,,,,
,,,,,,,,,,,,,,p,1,0.749,space,0.35,0,102,102,65,1,9_dist_green/trial16.png,,,1,9,greenverival,p,20,26,Male,2021-02-18_09h18.08.196,exp11,2020.2.6,MacIntel,60,IwAR3H9iXHuOt4DW-9NG6f5m0zeAfDMKEA8ew_voABQPA4tzQljbzuYQBvltQ,,,,,,,,,,,
,,,,,,,,,,,,,,p,1,1.16,space,0.932,0,103,103,99,1,15_dist_green/trial25.png,,,1,15,greenverival,p,20,26,Male,2021-02-18_09h18.08.196,exp11,2020.2.6,MacIntel,60,IwAR3H9iXHuOt4DW-9NG6f5m0zeAfDMKEA8ew_voABQPA4tzQljbzuYQBvltQ,,,,,,,,,,,
,,,,,,,,,,,,,,p,1,0.477,space,0.236,0,104,104,3,1,0_dist_green/trial4.png,,,1,0,greenverival,p,20,26,Male,2021-02-18_09h18.08.196,exp11,2020.2.6,MacIntel,60,IwAR3H9iXHuOt4DW-9NG6f5m0zeAfDMKEA8ew_voABQPA4tzQljbzuYQBvltQ,,,,,,,,,,,
,,,,,,,,,,,,,,a,1,0.535,space,0.307,0,105,105,121,1,0_targ_1_dist_green/trial22.png,,,0,1,greenverival,a,20,26,Male,2021-02-18_09h18.08.196,exp11,2020.2.6,MacIntel,60,IwAR3H9iXHuOt4DW-9NG6f5m0zeAfDMKEA8ew_voABQPA4tzQljbzuYQBvltQ,,,,,,,,,,,
,,,,,,,,,,,,,,a,1,0.745,space,0.209,0,106,106,150,1,0_targ_10_dist_green/trial1.png,,,0,10,greenverival,a,20,26,Male,2021-02-18_09h18.08.196,exp11,2020.2.6,MacIntel,60,IwAR3H9iXHuOt4DW-9NG6f5m0zeAfDMKEA8ew_voABQPA4tzQljbzuYQBvltQ,,,,,,,,,,,
,,,,,,,,,,,,,,a,1,0.948,space,0.175,0,107,107,179,1,0_targ_16_dist_green/trial5.png,,,0,16,greenverival,a,20,26,Male,2021-02-18_09h18.08.196,exp11,2020.2.6,MacIntel,60,IwAR3H9iXHuOt4DW-9NG6f5m0zeAfDMKEA8ew_voABQPA4tzQljbzuYQBvltQ,,,,,,,,,,,
,,,,,,,,,,,,,,a,1,0.704,space,0.472,0,108,108,167,1,0_targ_10_dist_green/trial18.png,,,0,10,greenverival,a,20,26,Male,2021-02-18_09h18.08.196,exp11,2020.2.6,MacIntel,60,IwAR3H9iXHuOt4DW-9NG6f5m0zeAfDMKEA8ew_voABQPA4tzQljbzuYQBvltQ,,,,,,,,,,,
,,,,,,,,,,,,,,a,1,0.608,space,0.938,0,109,109,146,1,0_targ_4_dist_green/trial22.png,,,0,4,greenverival,a,20,26,Male,2021-02-18_09h18.08.196,exp11,2020.2.6,MacIntel,60,IwAR3H9iXHuOt4DW-9NG6f5m0zeAfDMKEA8ew_voABQPA4tzQljbzuYQBvltQ,,,,,,,,,,,
,,,,,,,,,,,,,,p,1,0.684,space,0.356,0,110,110,94,1,15_dist_green/trial20.png,,,1,15,greenverival,p,20,26,Male,2021-02-18_09h18.08.196,exp11,2020.2.6,MacIntel,60,IwAR3H9iXHuOt4DW-9NG6f5m0zeAfDMKEA8ew_voABQPA4tzQljbzuYQBvltQ,,,,,,,,,,,
,,,,,,,,,,,,,,a,1,0.578,space,0.17,0,111,111,175,1,0_targ_16_dist_green/trial1.png,,,0,16,greenverival,a,20,26,Male,2021-02-18_09h18.08.196,exp11,2020.2.6,MacIntel,60,IwAR3H9iXHuOt4DW-9NG6f5m0zeAfDMKEA8ew_voABQPA4tzQljbzuYQBvltQ,,,,,,,,,,,
,,,,,,,,,,,,,,a,1,0.614,space,0.335,0,112,112,115,1,0_targ_1_dist_green/trial6.png,,,0,1,greenverival,a,20,26,Male,2021-02-18_09h18.08.196,exp11,2020.2.6,MacIntel,60,IwAR3H9iXHuOt4DW-9NG6f5m0zeAfDMKEA8ew_voABQPA4tzQljbzuYQBvltQ,,,,,,,,,,,
,,,,,,,,,,,,,,p,1,0.513,space,0.184,0,113,113,57,1,9_dist_green/trial8.png,,,1,9,greenverival,p,20,26,Male,2021-02-18_09h18.08.196,exp11,2020.2.6,MacIntel,60,IwAR3H9iXHuOt4DW-9NG6f5m0zeAfDMKEA8ew_voABQPA4tzQljbzuYQBvltQ,,,,,,,,,,,
,,,,,,,,,,,,,,p,1,0.577,space,0.317,0,114,114,15,1,0_dist_green/trial16.png,,,1,0,greenverival,p,20,26,Male,2021-02-18_09h18.08.196,exp11,2020.2.6,MacIntel,60,IwAR3H9iXHuOt4DW-9NG6f5m0zeAfDMKEA8ew_voABQPA4tzQljbzuYQBvltQ,,,,,,,,,,,
,,,,,,,,,,,,,,a,1,0.595,space,0.173,0,115,115,187,1,0_targ_16_dist_green/trial13.png,,,0,16,greenverival,a,20,26,Male,2021-02-18_09h18.08.196,exp11,2020.2.6,MacIntel,60,IwAR3H9iXHuOt4DW-9NG6f5m0zeAfDMKEA8ew_voABQPA4tzQljbzuYQBvltQ,,,,,,,,,,,
,,,,,,,,,,,,,,p,1,0.5,space,0.241,0,116,116,41,1,3_dist_green/trial17.png,,,1,3,greenverival,p,20,26,Male,2021-02-18_09h18.08.196,exp11,2020.2.6,MacIntel,60,IwAR3H9iXHuOt4DW-9NG6f5m0zeAfDMKEA8ew_voABQPA4tzQljbzuYQBvltQ,,,,,,,,,,,
,,,,,,,,,,,,,,p,1,0.595,space,0.239,0,117,117,6,1,0_dist_green/trial7.png,,,1,0,greenverival,p,20,26,Male,2021-02-18_09h18.08.196,exp11,2020.2.6,MacIntel,60,IwAR3H9iXHuOt4DW-9NG6f5m0zeAfDMKEA8ew_voABQPA4tzQljbzuYQBvltQ,,,,,,,,,,,
,,,,,,,,,,,,,,a,1,0.68,space,0.207,0,118,118,181,1,0_targ_16_dist_green/trial7.png,,,0,16,greenverival,a,20,26,Male,2021-02-18_09h18.08.196,exp11,2020.2.6,MacIntel,60,IwAR3H9iXHuOt4DW-9NG6f5m0zeAfDMKEA8ew_voABQPA4tzQljbzuYQBvltQ,,,,,,,,,,,
,,,,,,,,,,,,,,p,1,0.497,space,0.274,0,119,119,21,1,0_dist_green/trial22.png,,,1,0,greenverival,p,20,26,Male,2021-02-18_09h18.08.196,exp11,2020.2.6,MacIntel,60,IwAR3H9iXHuOt4DW-9NG6f5m0zeAfDMKEA8ew_voABQPA4tzQljbzuYQBvltQ,,,,,,,,,,,
,,,,,,,,,,,,,,a,1,0.495,space,0.249,0,120,120,101,1,0_targ_1_dist_green/trial2.png,,,0,1,greenverival,a,20,26,Male,2021-02-18_09h18.08.196,exp11,2020.2.6,MacIntel,60,IwAR3H9iXHuOt4DW-9NG6f5m0zeAfDMKEA8ew_voABQPA4tzQljbzuYQBvltQ,,,,,,,,,,,
,,,,,,,,,,,,,,p,1,0.545,space,0.351,0,121,121,69,1,9_dist_green/trial20.png,,,1,9,greenverival,p,20,26,Male,2021-02-18_09h18.08.196,exp11,2020.2.6,MacIntel,60,IwAR3H9iXHuOt4DW-9NG6f5m0zeAfDMKEA8ew_voABQPA4tzQljbzuYQBvltQ,,,,,,,,,,,
,,,,,,,,,,,,,,p,1,0.515,space,0.233,0,122,122,11,1,0_dist_green/trial12.png,,,1,0,greenverival,p,20,26,Male,2021-02-18_09h18.08.196,exp11,2020.2.6,MacIntel,60,IwAR3H9iXHuOt4DW-9NG6f5m0zeAfDMKEA8ew_voABQPA4tzQljbzuYQBvltQ,,,,,,,,,,,
,,,,,,,,,,,,,,a,1,0.497,space,0.172,0,123,123,149,1,0_targ_4_dist_green/trial25.png,,,0,4,greenverival,a,20,26,Male,2021-02-18_09h18.08.196,exp11,2020.2.6,MacIntel,60,IwAR3H9iXHuOt4DW-9NG6f5m0zeAfDMKEA8ew_voABQPA4tzQljbzuYQBvltQ,,,,,,,,,,,
,,,,,,,,,,,,,,a,1,0.918,space,0.168,0,124,124,173,1,0_targ_10_dist_green/trial24.png,,,0,10,greenverival,a,20,26,Male,2021-02-18_09h18.08.196,exp11,2020.2.6,MacIntel,60,IwAR3H9iXHuOt4DW-9NG6f5m0zeAfDMKEA8ew_voABQPA4tzQljbzuYQBvltQ,,,,,,,,,,,
,,,,,,,,,,,,,,p,1,0.633,space,0.24,0,125,125,27,1,3_dist_green/trial3.png,,,1,3,greenverival,p,20,26,Male,2021-02-18_09h18.08.196,exp11,2020.2.6,MacIntel,60,IwAR3H9iXHuOt4DW-9NG6f5m0zeAfDMKEA8ew_voABQPA4tzQljbzuYQBvltQ,,,,,,,,,,,
,,,,,,,,,,,,,,p,1,0.876,space,0.35,0,126,126,88,1,15_dist_green/trial14.png,,,1,15,greenverival,p,20,26,Male,2021-02-18_09h18.08.196,exp11,2020.2.6,MacIntel,60,IwAR3H9iXHuOt4DW-9NG6f5m0zeAfDMKEA8ew_voABQPA4tzQljbzuYQBvltQ,,,,,,,,,,,
,,,,,,,,,,,,,,a,1,0.493,space,0.19,0,127,127,142,1,0_targ_4_dist_green/trial18.png,,,0,4,greenverival,a,20,26,Male,2021-02-18_09h18.08.196,exp11,2020.2.6,MacIntel,60,IwAR3H9iXHuOt4DW-9NG6f5m0zeAfDMKEA8ew_voABQPA4tzQljbzuYQBvltQ,,,,,,,,,,,
,,,,,,,,,,,,,,p,1,0.569,space,0.268,0,128,128,48,1,3_dist_green/trial24.png,,,1,3,greenverival,p,20,26,Male,2021-02-18_09h18.08.196,exp11,2020.2.6,MacIntel,60,IwAR3H9iXHuOt4DW-9NG6f5m0zeAfDMKEA8ew_voABQPA4tzQljbzuYQBvltQ,,,,,,,,,,,
,,,,,,,,,,,,,,p,1,0.928,space,0.151,0,129,129,96,1,15_dist_green/trial22.png,,,1,15,greenverival,p,20,26,Male,2021-02-18_09h18.08.196,exp11,2020.2.6,MacIntel,60,IwAR3H9iXHuOt4DW-9NG6f5m0zeAfDMKEA8ew_voABQPA4tzQljbzuYQBvltQ,,,,,,,,,,,
,,,,,,,,,,,,,,p,1,0.646,space,0.24,0,130,130,9,1,0_dist_green/trial10.png,,,1,0,greenverival,p,20,26,Male,2021-02-18_09h18.08.196,exp11,2020.2.6,MacIntel,60,IwAR3H9iXHuOt4DW-9NG6f5m0zeAfDMKEA8ew_voABQPA4tzQljbzuYQBvltQ,,,,,,,,,,,
,,,,,,,,,,,,,,a,1,0.61,space,0.209,0,131,131,133,1,0_targ_4_dist_green/trial9.png,,,0,4,greenverival,a,20,26,Male,2021-02-18_09h18.08.196,exp11,2020.2.6,MacIntel,60,IwAR3H9iXHuOt4DW-9NG6f5m0zeAfDMKEA8ew_voABQPA4tzQljbzuYQBvltQ,,,,,,,,,,,
,,,,,,,,,,,,,,a,1,1.639,space,0.252,0,132,132,176,1,0_targ_16_dist_green/trial2.png,,,0,16,greenverival,a,20,26,Male,2021-02-18_09h18.08.196,exp11,2020.2.6,MacIntel,60,IwAR3H9iXHuOt4DW-9NG6f5m0zeAfDMKEA8ew_voABQPA4tzQljbzuYQBvltQ,,,,,,,,,,,
,,,,,,,,,,,,,,p,1,0.658,space,0.2,0,133,133,12,1,0_dist_green/trial13.png,,,1,0,greenverival,p,20,26,Male,2021-02-18_09h18.08.196,exp11,2020.2.6,MacIntel,60,IwAR3H9iXHuOt4DW-9NG6f5m0zeAfDMKEA8ew_voABQPA4tzQljbzuYQBvltQ,,,,,,,,,,,
,,,,,,,,,,,,,,p,1,0.767,space,0.15,0,134,134,26,1,3_dist_green/trial2.png,,,1,3,greenverival,p,20,26,Male,2021-02-18_09h18.08.196,exp11,2020.2.6,MacIntel,60,IwAR3H9iXHuOt4DW-9NG6f5m0zeAfDMKEA8ew_voABQPA4tzQljbzuYQBvltQ,,,,,,,,,,,
,,,,,,,,,,,,,,a,1,0.91,space,0.089,0,135,135,191,1,0_targ_16_dist_green/trial17.png,,,0,16,greenverival,a,20,26,Male,2021-02-18_09h18.08.196,exp11,2020.2.6,MacIntel,60,IwAR3H9iXHuOt4DW-9NG6f5m0zeAfDMKEA8ew_voABQPA4tzQljbzuYQBvltQ,,,,,,,,,,,
,,,,,,,,,,,,,,p,1,0.611,space,0.32,0,136,136,68,1,9_dist_green/trial19.png,,,1,9,greenverival,p,20,26,Male,2021-02-18_09h18.08.196,exp11,2020.2.6,MacIntel,60,IwAR3H9iXHuOt4DW-9NG6f5m0zeAfDMKEA8ew_voABQPA4tzQljbzuYQBvltQ,,,,,,,,,,,
,,,,,,,,,,,,,,p,1,0.814,space,0.203,0,137,137,13,1,0_dist_green/trial14.png,,,1,0,greenverival,p,20,26,Male,2021-02-18_09h18.08.196,exp11,2020.2.6,MacIntel,60,IwAR3H9iXHuOt4DW-9NG6f5m0zeAfDMKEA8ew_voABQPA4tzQljbzuYQBvltQ,,,,,,,,,,,
,,,,,,,,,,,,,,p,1,1.032,space,0.198,0,138,138,85,1,15_dist_green/trial11.png,,,1,15,greenverival,p,20,26,Male,2021-02-18_09h18.08.196,exp11,2020.2.6,MacIntel,60,IwAR3H9iXHuOt4DW-9NG6f5m0zeAfDMKEA8ew_voABQPA4tzQljbzuYQBvltQ,,,,,,,,,,,
,,,,,,,,,,,,,,p,1,0.788,space,0.257,0,139,139,24,1,0_dist_green/trial25.png,,,1,0,greenverival,p,20,26,Male,2021-02-18_09h18.08.196,exp11,2020.2.6,MacIntel,60,IwAR3H9iXHuOt4DW-9NG6f5m0zeAfDMKEA8ew_voABQPA4tzQljbzuYQBvltQ,,,,,,,,,,,
,,,,,,,,,,,,,,p,1,0.742,space,0.117,0,140,140,50,1,9_dist_green/trial1.png,,,1,9,greenverival,p,20,26,Male,2021-02-18_09h18.08.196,exp11,2020.2.6,MacIntel,60,IwAR3H9iXHuOt4DW-9NG6f5m0zeAfDMKEA8ew_voABQPA4tzQljbzuYQBvltQ,,,,,,,,,,,
,,,,,,,,,,,,,,a,1,0.732,space,0.134,0,141,141,177,1,0_targ_16_dist_green/trial3.png,,,0,16,greenverival,a,20,26,Male,2021-02-18_09h18.08.196,exp11,2020.2.6,MacIntel,60,IwAR3H9iXHuOt4DW-9NG6f5m0zeAfDMKEA8ew_voABQPA4tzQljbzuYQBvltQ,,,,,,,,,,,
,,,,,,,,,,,,,,p,1,0.716,space,0.065,0,142,142,60,1,9_dist_green/trial11.png,,,1,9,greenverival,p,20,26,Male,2021-02-18_09h18.08.196,exp11,2020.2.6,MacIntel,60,IwAR3H9iXHuOt4DW-9NG6f5m0zeAfDMKEA8ew_voABQPA4tzQljbzuYQBvltQ,,,,,,,,,,,
,,,,,,,,,,,,,,p,1,0.596,space,0.034,0,143,143,14,1,0_dist_green/trial15.png,,,1,0,greenverival,p,20,26,Male,2021-02-18_09h18.08.196,exp11,2020.2.6,MacIntel,60,IwAR3H9iXHuOt4DW-9NG6f5m0zeAfDMKEA8ew_voABQPA4tzQljbzuYQBvltQ,,,,,,,,,,,
,,,,,,,,,,,,,,p,1,1.111,space,0.556,0,144,144,78,1,15_dist_green/trial4.png,,,1,15,greenverival,p,20,26,Male,2021-02-18_09h18.08.196,exp11,2020.2.6,MacIntel,60,IwAR3H9iXHuOt4DW-9NG6f5m0zeAfDMKEA8ew_voABQPA4tzQljbzuYQBvltQ,,,,,,,,,,,
,,,,,,,,,,,,,,p,1,0.445,space,0.366,0,145,145,23,1,0_dist_green/trial24.png,,,1,0,greenverival,p,20,26,Male,2021-02-18_09h18.08.196,exp11,2020.2.6,MacIntel,60,IwAR3H9iXHuOt4DW-9NG6f5m0zeAfDMKEA8ew_voABQPA4tzQljbzuYQBvltQ,,,,,,,,,,,
,,,,,,,,,,,,,,a,1,0.478,space,0.186,0,146,146,102,1,0_targ_1_dist_green/trial3.png,,,0,1,greenverival,a,20,26,Male,2021-02-18_09h18.08.196,exp11,2020.2.6,MacIntel,60,IwAR3H9iXHuOt4DW-9NG6f5m0zeAfDMKEA8ew_voABQPA4tzQljbzuYQBvltQ,,,,,,,,,,,
,,,,,,,,,,,,,,p,1,0.599,space,0.251,0,147,147,81,1,15_dist_green/trial7.png,,,1,15,greenverival,p,20,26,Male,2021-02-18_09h18.08.196,exp11,2020.2.6,MacIntel,60,IwAR3H9iXHuOt4DW-9NG6f5m0zeAfDMKEA8ew_voABQPA4tzQljbzuYQBvltQ,,,,,,,,,,,
,,,,,,,,,,,,,,a,1,0.782,space,0.219,0,148,148,171,1,0_targ_10_dist_green/trial22.png,,,0,10,greenverival,a,20,26,Male,2021-02-18_09h18.08.196,exp11,2020.2.6,MacIntel,60,IwAR3H9iXHuOt4DW-9NG6f5m0zeAfDMKEA8ew_voABQPA4tzQljbzuYQBvltQ,,,,,,,,,,,
,,,,,,,,,,,,,,p,1,0.649,space,0.316,0,149,149,45,1,3_dist_green/trial21.png,,,1,3,greenverival,p,20,26,Male,2021-02-18_09h18.08.196,exp11,2020.2.6,MacIntel,60,IwAR3H9iXHuOt4DW-9NG6f5m0zeAfDMKEA8ew_voABQPA4tzQljbzuYQBvltQ,,,,,,,,,,,
,,,,,,,,,,,,,,a,1,0.551,space,0.225,0,150,150,113,1,0_targ_1_dist_green/trial14.png,,,0,1,greenverival,a,20,26,Male,2021-02-18_09h18.08.196,exp11,2020.2.6,MacIntel,60,IwAR3H9iXHuOt4DW-9NG6f5m0zeAfDMKEA8ew_voABQPA4tzQljbzuYQBvltQ,,,,,,,,,,,
,,,,,,,,,,,,,,p,1,0.617,space,0.176,0,151,151,53,1,9_dist_green/trial4.png,,,1,9,greenverival,p,20,26,Male,2021-02-18_09h18.08.196,exp11,2020.2.6,MacIntel,60,IwAR3H9iXHuOt4DW-9NG6f5m0zeAfDMKEA8ew_voABQPA4tzQljbzuYQBvltQ,,,,,,,,,,,
,,,,,,,,,,,,,,a,1,0.746,space,0.191,0,152,152,162,1,0_targ_10_dist_green/trial13.png,,,0,10,greenverival,a,20,26,Male,2021-02-18_09h18.08.196,exp11,2020.2.6,MacIntel,60,IwAR3H9iXHuOt4DW-9NG6f5m0zeAfDMKEA8ew_voABQPA4tzQljbzuYQBvltQ,,,,,,,,,,,
,,,,,,,,,,,,,,p,1,0.71,space,0.158,0,153,153,44,1,3_dist_green/trial20.png,,,1,3,greenverival,p,20,26,Male,2021-02-18_09h18.08.196,exp11,2020.2.6,MacIntel,60,IwAR3H9iXHuOt4DW-9NG6f5m0zeAfDMKEA8ew_voABQPA4tzQljbzuYQBvltQ,,,,,,,,,,,
,,,,,,,,,,,,,,a,1,0.497,space,0.217,0,154,154,110,1,0_targ_1_dist_green/trial11.png,,,0,1,greenverival,a,20,26,Male,2021-02-18_09h18.08.196,exp11,2020.2.6,MacIntel,60,IwAR3H9iXHuOt4DW-9NG6f5m0zeAfDMKEA8ew_voABQPA4tzQljbzuYQBvltQ,,,,,,,,,,,
,,,,,,,,,,,,,,p,0,0.595,space,5.256,0,155,155,144,1,0_targ_4_dist_green/trial20.png,,,0,4,greenverival,a,20,26,Male,2021-02-18_09h18.08.196,exp11,2020.2.6,MacIntel,60,IwAR3H9iXHuOt4DW-9NG6f5m0zeAfDMKEA8ew_voABQPA4tzQljbzuYQBvltQ,,,,,,,,,,,
,,,,,,,,,,,,,,a,1,0.716,space,0.332,0,156,156,155,1,0_targ_10_dist_green/trial6.png,,,0,10,greenverival,a,20,26,Male,2021-02-18_09h18.08.196,exp11,2020.2.6,MacIntel,60,IwAR3H9iXHuOt4DW-9NG6f5m0zeAfDMKEA8ew_voABQPA4tzQljbzuYQBvltQ,,,,,,,,,,,
,,,,,,,,,,,,,,p,1,0.492,space,0.422,0,157,157,32,1,3_dist_green/trial8.png,,,1,3,greenverival,p,20,26,Male,2021-02-18_09h18.08.196,exp11,2020.2.6,MacIntel,60,IwAR3H9iXHuOt4DW-9NG6f5m0zeAfDMKEA8ew_voABQPA4tzQljbzuYQBvltQ,,,,,,,,,,,
,,,,,,,,,,,,,,a,1,0.633,space,0.373,0,158,158,166,1,0_targ_10_dist_green/trial17.png,,,0,10,greenverival,a,20,26,Male,2021-02-18_09h18.08.196,exp11,2020.2.6,MacIntel,60,IwAR3H9iXHuOt4DW-9NG6f5m0zeAfDMKEA8ew_voABQPA4tzQljbzuYQBvltQ,,,,,,,,,,,
,,,,,,,,,,,,,,a,1,0.746,space,0.648,0,159,159,185,1,0_targ_16_dist_green/trial11.png,,,0,16,greenverival,a,20,26,Male,2021-02-18_09h18.08.196,exp11,2020.2.6,MacIntel,60,IwAR3H9iXHuOt4DW-9NG6f5m0zeAfDMKEA8ew_voABQPA4tzQljbzuYQBvltQ,,,,,,,,,,,
,,,,,,,,,,,,,,a,1,0.85,space,0.376,0,160,160,100,1,0_targ_1_dist_green/trial1.png,,,0,1,greenverival,a,20,26,Male,2021-02-18_09h18.08.196,exp11,2020.2.6,MacIntel,60,IwAR3H9iXHuOt4DW-9NG6f5m0zeAfDMKEA8ew_voABQPA4tzQljbzuYQBvltQ,,,,,,,,,,,
,,,,,,,,,,,,,,a,1,0.614,space,0.271,0,161,161,124,1,0_targ_1_dist_green/trial25.png,,,0,1,greenverival,a,20,26,Male,2021-02-18_09h18.08.196,exp11,2020.2.6,MacIntel,60,IwAR3H9iXHuOt4DW-9NG6f5m0zeAfDMKEA8ew_voABQPA4tzQljbzuYQBvltQ,,,,,,,,,,,
,,,,,,,,,,,,,,a,1,0.628,space,0.267,0,162,162,135,1,0_targ_4_dist_green/trial11.png,,,0,4,greenverival,a,20,26,Male,2021-02-18_09h18.08.196,exp11,2020.2.6,MacIntel,60,IwAR3H9iXHuOt4DW-9NG6f5m0zeAfDMKEA8ew_voABQPA4tzQljbzuYQBvltQ,,,,,,,,,,,
,,,,,,,,,,,,,,a,1,0.731,space,0.207,0,163,163,138,1,0_targ_4_dist_green/trial14.png,,,0,4,greenverival,a,20,26,Male,2021-02-18_09h18.08.196,exp11,2020.2.6,MacIntel,60,IwAR3H9iXHuOt4DW-9NG6f5m0zeAfDMKEA8ew_voABQPA4tzQljbzuYQBvltQ,,,,,,,,,,,
,,,,,,,,,,,,,,a,0,0.635,space,0.815,0,164,164,20,1,0_dist_green/trial21.png,,,1,0,greenverival,p,20,26,Male,2021-02-18_09h18.08.196,exp11,2020.2.6,MacIntel,60,IwAR3H9iXHuOt4DW-9NG6f5m0zeAfDMKEA8ew_voABQPA4tzQljbzuYQBvltQ,,,,,,,,,,,
,,,,,,,,,,,,,,p,1,0.643,space,0.354,0,165,165,75,1,15_dist_green/trial1.png,,,1,15,greenverival,p,20,26,Male,2021-02-18_09h18.08.196,exp11,2020.2.6,MacIntel,60,IwAR3H9iXHuOt4DW-9NG6f5m0zeAfDMKEA8ew_voABQPA4tzQljbzuYQBvltQ,,,,,,,,,,,
,,,,,,,,,,,,,,a,1,0.451,space,0.301,0,166,166,117,1,0_targ_1_dist_green/trial18.png,,,0,1,greenverival,a,20,26,Male,2021-02-18_09h18.08.196,exp11,2020.2.6,MacIntel,60,IwAR3H9iXHuOt4DW-9NG6f5m0zeAfDMKEA8ew_voABQPA4tzQljbzuYQBvltQ,,,,,,,,,,,
,,,,,,,,,,,,,,a,1,0.999,space,0.904,0,167,167,178,1,0_targ_16_dist_green/trial4.png,,,0,16,greenverival,a,20,26,Male,2021-02-18_09h18.08.196,exp11,2020.2.6,MacIntel,60,IwAR3H9iXHuOt4DW-9NG6f5m0zeAfDMKEA8ew_voABQPA4tzQljbzuYQBvltQ,,,,,,,,,,,
,,,,,,,,,,,,,,p,1,0.617,space,0.308,0,168,168,64,1,9_dist_green/trial15.png,,,1,9,greenverival,p,20,26,Male,2021-02-18_09h18.08.196,exp11,2020.2.6,MacIntel,60,IwAR3H9iXHuOt4DW-9NG6f5m0zeAfDMKEA8ew_voABQPA4tzQljbzuYQBvltQ,,,,,,,,,,,
,,,,,,,,,,,,,,a,0,0.814,space,0.567,0,169,169,40,1,3_dist_green/trial16.png,,,1,3,greenverival,p,20,26,Male,2021-02-18_09h18.08.196,exp11,2020.2.6,MacIntel,60,IwAR3H9iXHuOt4DW-9NG6f5m0zeAfDMKEA8ew_voABQPA4tzQljbzuYQBvltQ,,,,,,,,,,,
,,,,,,,,,,,,,,p,1,0.476,space,0.305,0,170,170,58,1,9_dist_green/trial9.png,,,1,9,greenverival,p,20,26,Male,2021-02-18_09h18.08.196,exp11,2020.2.6,MacIntel,60,IwAR3H9iXHuOt4DW-9NG6f5m0zeAfDMKEA8ew_voABQPA4tzQljbzuYQBvltQ,,,,,,,,,,,
,,,,,,,,,,,,,,a,1,0.552,space,0.307,0,171,171,158,1,0_targ_10_dist_green/trial9.png,,,0,10,greenverival,a,20,26,Male,2021-02-18_09h18.08.196,exp11,2020.2.6,MacIntel,60,IwAR3H9iXHuOt4DW-9NG6f5m0zeAfDMKEA8ew_voABQPA4tzQljbzuYQBvltQ,,,,,,,,,,,
,,,,,,,,,,,,,,p,1,0.562,space,0.405,0,172,172,66,1,9_dist_green/trial17.png,,,1,9,greenverival,p,20,26,Male,2021-02-18_09h18.08.196,exp11,2020.2.6,MacIntel,60,IwAR3H9iXHuOt4DW-9NG6f5m0zeAfDMKEA8ew_voABQPA4tzQljbzuYQBvltQ,,,,,,,,,,,
,,,,,,,,,,,,,,p,1,0.592,space,0.273,0,173,173,76,1,15_dist_green/trial2.png,,,1,15,greenverival,p,20,26,Male,2021-02-18_09h18.08.196,exp11,2020.2.6,MacIntel,60,IwAR3H9iXHuOt4DW-9NG6f5m0zeAfDMKEA8ew_voABQPA4tzQljbzuYQBvltQ,,,,,,,,,,,
,,,,,,,,,,,,,,a,1,0.648,space,0.275,0,174,174,182,1,0_targ_16_dist_green/trial8.png,,,0,16,greenverival,a,20,26,Male,2021-02-18_09h18.08.196,exp11,2020.2.6,MacIntel,60,IwAR3H9iXHuOt4DW-9NG6f5m0zeAfDMKEA8ew_voABQPA4tzQljbzuYQBvltQ,,,,,,,,,,,
,,,,,,,,,,,,,,a,1,0.585,space,0.241,0,175,175,112,1,0_targ_1_dist_green/trial13.png,,,0,1,greenverival,a,20,26,Male,2021-02-18_09h18.08.196,exp11,2020.2.6,MacIntel,60,IwAR3H9iXHuOt4DW-9NG6f5m0zeAfDMKEA8ew_voABQPA4tzQljbzuYQBvltQ,,,,,,,,,,,
,,,,,,,,,,,,,,a,1,0.93,space,0.374,0,176,176,168,1,0_targ_10_dist_green/trial19.png,,,0,10,greenverival,a,20,26,Male,2021-02-18_09h18.08.196,exp11,2020.2.6,MacIntel,60,IwAR3H9iXHuOt4DW-9NG6f5m0zeAfDMKEA8ew_voABQPA4tzQljbzuYQBvltQ,,,,,,,,,,,
,,,,,,,,,,,,,,p,1,0.595,space,0.205,0,177,177,59,1,9_dist_green/trial10.png,,,1,9,greenverival,p,20,26,Male,2021-02-18_09h18.08.196,exp11,2020.2.6,MacIntel,60,IwAR3H9iXHuOt4DW-9NG6f5m0zeAfDMKEA8ew_voABQPA4tzQljbzuYQBvltQ,,,,,,,,,,,
,,,,,,,,,,,,,,a,1,0.563,space,0.931,0,178,178,120,1,0_targ_1_dist_green/trial21.png,,,0,1,greenverival,a,20,26,Male,2021-02-18_09h18.08.196,exp11,2020.2.6,MacIntel,60,IwAR3H9iXHuOt4DW-9NG6f5m0zeAfDMKEA8ew_voABQPA4tzQljbzuYQBvltQ,,,,,,,,,,,
,,,,,,,,,,,,,,a,0,0.792,space,1.471,0,179,179,92,1,15_dist_green/trial18.png,,,1,15,greenverival,p,20,26,Male,2021-02-18_09h18.08.196,exp11,2020.2.6,MacIntel,60,IwAR3H9iXHuOt4DW-9NG6f5m0zeAfDMKEA8ew_voABQPA4tzQljbzuYQBvltQ,,,,,,,,,,,
,,,,,,,,,,,,,,a,1,0.613,space,0.457,0,180,180,137,1,0_targ_4_dist_green/trial13.png,,,0,4,greenverival,a,20,26,Male,2021-02-18_09h18.08.196,exp11,2020.2.6,MacIntel,60,IwAR3H9iXHuOt4DW-9NG6f5m0zeAfDMKEA8ew_voABQPA4tzQljbzuYQBvltQ,,,,,,,,,,,
,,,,,,,,,,,,,,p,1,0.752,space,0.572,0,181,181,70,1,9_dist_green/trial21.png,,,1,9,greenverival,p,20,26,Male,2021-02-18_09h18.08.196,exp11,2020.2.6,MacIntel,60,IwAR3H9iXHuOt4DW-9NG6f5m0zeAfDMKEA8ew_voABQPA4tzQljbzuYQBvltQ,,,,,,,,,,,
,,,,,,,,,,,,,,a,1,0.842,space,0.449,0,182,182,197,1,0_targ_16_dist_green/trial23.png,,,0,16,greenverival,a,20,26,Male,2021-02-18_09h18.08.196,exp11,2020.2.6,MacIntel,60,IwAR3H9iXHuOt4DW-9NG6f5m0zeAfDMKEA8ew_voABQPA4tzQljbzuYQBvltQ,,,,,,,,,,,
,,,,,,,,,,,,,,p,1,0.775,space,0.484,0,183,183,52,1,9_dist_green/trial3.png,,,1,9,greenverival,p,20,26,Male,2021-02-18_09h18.08.196,exp11,2020.2.6,MacIntel,60,IwAR3H9iXHuOt4DW-9NG6f5m0zeAfDMKEA8ew_voABQPA4tzQljbzuYQBvltQ,,,,,,,,,,,
,,,,,,,,,,,,,,a,1,0.518,space,0.473,0,184,184,139,1,0_targ_4_dist_green/trial15.png,,,0,4,greenverival,a,20,26,Male,2021-02-18_09h18.08.196,exp11,2020.2.6,MacIntel,60,IwAR3H9iXHuOt4DW-9NG6f5m0zeAfDMKEA8ew_voABQPA4tzQljbzuYQBvltQ,,,,,,,,,,,
,,,,,,,,,,,,,,p,1,0.607,space,0.307,0,185,185,25,1,3_dist_green/trial1.png,,,1,3,greenverival,p,20,26,Male,2021-02-18_09h18.08.196,exp11,2020.2.6,MacIntel,60,IwAR3H9iXHuOt4DW-9NG6f5m0zeAfDMKEA8ew_voABQPA4tzQljbzuYQBvltQ,,,,,,,,,,,
,,,,,,,,,,,,,,a,1,0.533,space,0.503,0,186,186,114,1,0_targ_1_dist_green/trial15.png,,,0,1,greenverival,a,20,26,Male,2021-02-18_09h18.08.196,exp11,2020.2.6,MacIntel,60,IwAR3H9iXHuOt4DW-9NG6f5m0zeAfDMKEA8ew_voABQPA4tzQljbzuYQBvltQ,,,,,,,,,,,
,,,,,,,,,,,,,,p,1,0.444,space,0.24,0,187,187,33,1,3_dist_green/trial9.png,,,1,3,greenverival,p,20,26,Male,2021-02-18_09h18.08.196,exp11,2020.2.6,MacIntel,60,IwAR3H9iXHuOt4DW-9NG6f5m0zeAfDMKEA8ew_voABQPA4tzQljbzuYQBvltQ,,,,,,,,,,,
,,,,,,,,,,,,,,a,1,0.613,space,0.391,0,188,188,190,1,0_targ_16_dist_green/trial16.png,,,0,16,greenverival,a,20,26,Male,2021-02-18_09h18.08.196,exp11,2020.2.6,MacIntel,60,IwAR3H9iXHuOt4DW-9NG6f5m0zeAfDMKEA8ew_voABQPA4tzQljbzuYQBvltQ,,,,,,,,,,,
,,,,,,,,,,,,,,a,1,0.582,space,0.49,0,189,189,132,1,0_targ_4_dist_green/trial8.png,,,0,4,greenverival,a,20,26,Male,2021-02-18_09h18.08.196,exp11,2020.2.6,MacIntel,60,IwAR3H9iXHuOt4DW-9NG6f5m0zeAfDMKEA8ew_voABQPA4tzQljbzuYQBvltQ,,,,,,,,,,,
,,,,,,,,,,,,,,a,1,0.478,space,0.367,0,190,190,123,1,0_targ_1_dist_green/trial24.png,,,0,1,greenverival,a,20,26,Male,2021-02-18_09h18.08.196,exp11,2020.2.6,MacIntel,60,IwAR3H9iXHuOt4DW-9NG6f5m0zeAfDMKEA8ew_voABQPA4tzQljbzuYQBvltQ,,,,,,,,,,,
,,,,,,,,,,,,,,a,1,0.848,space,0.433,0,191,191,192,1,0_targ_16_dist_green/trial18.png,,,0,16,greenverival,a,20,26,Male,2021-02-18_09h18.08.196,exp11,2020.2.6,MacIntel,60,IwAR3H9iXHuOt4DW-9NG6f5m0zeAfDMKEA8ew_voABQPA4tzQljbzuYQBvltQ,,,,,,,,,,,
,,,,,,,,,,,,,,a,1,0.436,space,0.266,0,192,192,108,1,0_targ_1_dist_green/trial9.png,,,0,1,greenverival,a,20,26,Male,2021-02-18_09h18.08.196,exp11,2020.2.6,MacIntel,60,IwAR3H9iXHuOt4DW-9NG6f5m0zeAfDMKEA8ew_voABQPA4tzQljbzuYQBvltQ,,,,,,,,,,,
,,,,,,,,,,,,,,a,1,0.677,space,0.222,0,193,193,189,1,0_targ_16_dist_green/trial15.png,,,0,16,greenverival,a,20,26,Male,2021-02-18_09h18.08.196,exp11,2020.2.6,MacIntel,60,IwAR3H9iXHuOt4DW-9NG6f5m0zeAfDMKEA8ew_voABQPA4tzQljbzuYQBvltQ,,,,,,,,,,,
,,,,,,,,,,,,,,p,1,0.411,space,0.356,0,194,194,5,1,0_dist_green/trial6.png,,,1,0,greenverival,p,20,26,Male,2021-02-18_09h18.08.196,exp11,2020.2.6,MacIntel,60,IwAR3H9iXHuOt4DW-9NG6f5m0zeAfDMKEA8ew_voABQPA4tzQljbzuYQBvltQ,,,,,,,,,,,
,,,,,,,,,,,,,,a,1,0.401,space,0.283,0,195,195,106,1,0_targ_1_dist_green/trial7.png,,,0,1,greenverival,a,20,26,Male,2021-02-18_09h18.08.196,exp11,2020.2.6,MacIntel,60,IwAR3H9iXHuOt4DW-9NG6f5m0zeAfDMKEA8ew_voABQPA4tzQljbzuYQBvltQ,,,,,,,,,,,
,,,,,,,,,,,,,,a,1,0.952,space,0.368,0,196,196,196,1,0_targ_16_dist_green/trial22.png,,,0,16,greenverival,a,20,26,Male,2021-02-18_09h18.08.196,exp11,2020.2.6,MacIntel,60,IwAR3H9iXHuOt4DW-9NG6f5m0zeAfDMKEA8ew_voABQPA4tzQljbzuYQBvltQ,,,,,,,,,,,
,,,,,,,,,,,,,,p,1,0.431,space,0.367,0,197,197,4,1,0_dist_green/trial5.png,,,1,0,greenverival,p,20,26,Male,2021-02-18_09h18.08.196,exp11,2020.2.6,MacIntel,60,IwAR3H9iXHuOt4DW-9NG6f5m0zeAfDMKEA8ew_voABQPA4tzQljbzuYQBvltQ,,,,,,,,,,,
,,,,,,,,,,,,,,p,1,0.761,space,0.233,0,198,198,37,1,3_dist_green/trial13.png,,,1,3,greenverival,p,20,26,Male,2021-02-18_09h18.08.196,exp11,2020.2.6,MacIntel,60,IwAR3H9iXHuOt4DW-9NG6f5m0zeAfDMKEA8ew_voABQPA4tzQljbzuYQBvltQ,,,,,,,,,,,
,,,,,,,,,,,,,,a,1,0.633,space,0.268,0,199,199,116,1,0_targ_1_dist_green/trial17.png,,,0,1,greenverival,a,20,26,Male,2021-02-18_09h18.08.196,exp11,2020.2.6,MacIntel,60,IwAR3H9iXHuOt4DW-9NG6f5m0zeAfDMKEA8ew_voABQPA4tzQljbzuYQBvltQ,,,,,,,,,,,
,,,,,,,,,,,,,,,,,,,,,,,,,,,,,,,20,26,Male,2021-02-18_09h18.08.196,exp11,2020.2.6,MacIntel,60,IwAR3H9iXHuOt4DW-9NG6f5m0zeAfDMKEA8ew_voABQPA4tzQljbzuYQBvltQ,0,1,1,0,1,conGreen.xlsx,green vertical,Look for green vertical bar (target) and indicate if it is present or absent in the array. If green vertical target is present press 'p' and if absent press 'a'. Press SPACE to start.,,,
