key_resp_6.keys,key_resp_6.rt,key_resp_7.keys,key_resp_7.rt,key_resp_8.keys,key_resp_8.rt,key_resp_10.keys,key_resp_10.rt,key_resp_9.keys,key_resp_9.rt,key_resp_3.keys,key_resp_3.rt,key_resp_5.keys,key_resp_5.rt,key_resp.keys,key_resp.corr,key_resp.rt,key_resp_4.keys,key_resp_4.rt,trials.thisRepN,trials.thisTrialN,trials.thisN,trials.thisIndex,trials.ran,ImageFile,tarPos,tarSize,targPres,numDist,targetName,correctAns,participant,age,sex,date,expName,psychopyVersion,OS,frameRate,trials_2.thisRepN,trials_2.thisTrialN,trials_2.thisN,trials_2.thisIndex,trials_2.ran,condsFile,targName,instructionText,colTarget,sizeTarg,posit
space,7.797525,space,22.238485,space,10.93423,space,17.54323,space,9.89823,space,8.95176,space,4.265255,p,1,0.658505,space,4.384995,0,0,0,86,1,15_dist_green/trial12.png,,,1,15,greenverival,p,21,20,Male,2021-02-18_19h17.07.925,exp11,2020.2.6,Win32,60,,,,,,,,,,,
,,,,,,,,,,,,,,a,1,0.868,space,2.3801,0,1,1,129,1,0_targ_4_dist_green/trial5.png,,,0,4,greenverival,a,21,20,Male,2021-02-18_19h17.07.925,exp11,2020.2.6,Win32,60,,,,,,,,,,,
,,,,,,,,,,,,,,a,1,1.16685,space,2.86673,0,2,2,144,1,0_targ_4_dist_green/trial20.png,,,0,4,greenverival,a,21,20,Male,2021-02-18_19h17.07.925,exp11,2020.2.6,Win32,60,,,,,,,,,,,
,,,,,,,,,,,,,,p,1,0.593995,space,2.486225,0,3,3,41,1,3_dist_green/trial17.png,,,1,3,greenverival,p,21,20,Male,2021-02-18_19h17.07.925,exp11,2020.2.6,Win32,60,,,,,,,,,,,
,,,,,,,,,,,,,,a,1,0.71148,space,2.07742,0,4,4,127,1,0_targ_4_dist_green/trial3.png,,,0,4,greenverival,a,21,20,Male,2021-02-18_19h17.07.925,exp11,2020.2.6,Win32,60,,,,,,,,,,,
,,,,,,,,,,,,,,p,1,1.03,space,2.31938,0,5,5,66,1,9_dist_green/trial17.png,,,1,9,greenverival,p,21,20,Male,2021-02-18_19h17.07.925,exp11,2020.2.6,Win32,60,,,,,,,,,,,
,,,,,,,,,,,,,,p,1,0.75001,space,1.793425,0,6,6,97,1,15_dist_green/trial23.png,,,1,15,greenverival,p,21,20,Male,2021-02-18_19h17.07.925,exp11,2020.2.6,Win32,60,,,,,,,,,,,
,,,,,,,,,,,,,,a,1,0.60238,space,0.81733,0,7,7,105,1,0_targ_1_dist_green/trial6.png,,,0,1,greenverival,a,21,20,Male,2021-02-18_19h17.07.925,exp11,2020.2.6,Win32,60,,,,,,,,,,,
,,,,,,,,,,,,,,a,1,0.711675,space,0.417785,0,8,8,125,1,0_targ_4_dist_green/trial1.png,,,0,4,greenverival,a,21,20,Male,2021-02-18_19h17.07.925,exp11,2020.2.6,Win32,60,,,,,,,,,,,
,,,,,,,,,,,,,,a,1,0.6083,space,0.368115,0,9,9,104,1,0_targ_1_dist_green/trial5.png,,,0,1,greenverival,a,21,20,Male,2021-02-18_19h17.07.925,exp11,2020.2.6,Win32,60,,,,,,,,,,,
,,,,,,,,,,,,,,p,1,0.57794,space,0.353545,0,10,10,70,1,9_dist_green/trial21.png,,,1,9,greenverival,p,21,20,Male,2021-02-18_19h17.07.925,exp11,2020.2.6,Win32,60,,,,,,,,,,,
,,,,,,,,,,,,,,a,1,1.14685,space,0.617705,0,11,11,193,1,0_targ_16_dist_green/trial19.png,,,0,16,greenverival,a,21,20,Male,2021-02-18_19h17.07.925,exp11,2020.2.6,Win32,60,,,,,,,,,,,
,,,,,,,,,,,,,,a,1,2.150775,space,0.596505,0,12,12,171,1,0_targ_10_dist_green/trial22.png,,,0,10,greenverival,a,21,20,Male,2021-02-18_19h17.07.925,exp11,2020.2.6,Win32,60,,,,,,,,,,,
,,,,,,,,,,,,,,p,1,0.785335,space,0.422665,0,13,13,48,1,3_dist_green/trial24.png,,,1,3,greenverival,p,21,20,Male,2021-02-18_19h17.07.925,exp11,2020.2.6,Win32,60,,,,,,,,,,,
,,,,,,,,,,,,,,a,1,0.73844,space,0.37497,0,14,14,174,1,0_targ_10_dist_green/trial25.png,,,0,10,greenverival,a,21,20,Male,2021-02-18_19h17.07.925,exp11,2020.2.6,Win32,60,,,,,,,,,,,
,,,,,,,,,,,,,,a,1,1.31708,space,0.55497,0,15,15,178,1,0_targ_16_dist_green/trial4.png,,,0,16,greenverival,a,21,20,Male,2021-02-18_19h17.07.925,exp11,2020.2.6,Win32,60,,,,,,,,,,,
,,,,,,,,,,,,,,a,1,0.79175,space,0.372115,0,16,16,146,1,0_targ_4_dist_green/trial22.png,,,0,4,greenverival,a,21,20,Male,2021-02-18_19h17.07.925,exp11,2020.2.6,Win32,60,,,,,,,,,,,
,,,,,,,,,,,,,,a,1,0.819905,space,0.401675,0,17,17,117,1,0_targ_1_dist_green/trial18.png,,,0,1,greenverival,a,21,20,Male,2021-02-18_19h17.07.925,exp11,2020.2.6,Win32,60,,,,,,,,,,,
,,,,,,,,,,,,,,a,1,0.755785,space,0.26791,0,18,18,136,1,0_targ_4_dist_green/trial12.png,,,0,4,greenverival,a,21,20,Male,2021-02-18_19h17.07.925,exp11,2020.2.6,Win32,60,,,,,,,,,,,
,,,,,,,,,,,,,,a,1,0.95603,space,0.389935,0,19,19,172,1,0_targ_10_dist_green/trial23.png,,,0,10,greenverival,a,21,20,Male,2021-02-18_19h17.07.925,exp11,2020.2.6,Win32,60,,,,,,,,,,,
,,,,,,,,,,,,,,p,1,0.575265,space,0.427465,0,20,20,9,1,0_dist_green/trial10.png,,,1,0,greenverival,p,21,20,Male,2021-02-18_19h17.07.925,exp11,2020.2.6,Win32,60,,,,,,,,,,,
,,,,,,,,,,,,,,p,1,0.674405,space,0.437155,0,21,21,38,1,3_dist_green/trial14.png,,,1,3,greenverival,p,21,20,Male,2021-02-18_19h17.07.925,exp11,2020.2.6,Win32,60,,,,,,,,,,,
,,,,,,,,,,,,,,p,1,0.812795,space,0.352145,0,22,22,51,1,9_dist_green/trial2.png,,,1,9,greenverival,p,21,20,Male,2021-02-18_19h17.07.925,exp11,2020.2.6,Win32,60,,,,,,,,,,,
,,,,,,,,,,,,,,a,1,0.996215,space,0.372565,0,23,23,161,1,0_targ_10_dist_green/trial12.png,,,0,10,greenverival,a,21,20,Male,2021-02-18_19h17.07.925,exp11,2020.2.6,Win32,60,,,,,,,,,,,
,,,,,,,,,,,,,,a,1,0.88957,space,0.30063,0,24,24,133,1,0_targ_4_dist_green/trial9.png,,,0,4,greenverival,a,21,20,Male,2021-02-18_19h17.07.925,exp11,2020.2.6,Win32,60,,,,,,,,,,,
,,,,,,,,,,,,,,p,1,0.501815,space,0.413145,0,25,25,2,1,0_dist_green/trial3.png,,,1,0,greenverival,p,21,20,Male,2021-02-18_19h17.07.925,exp11,2020.2.6,Win32,60,,,,,,,,,,,
,,,,,,,,,,,,,,a,1,0.770965,space,0.33192,0,26,26,166,1,0_targ_10_dist_green/trial17.png,,,0,10,greenverival,a,21,20,Male,2021-02-18_19h17.07.925,exp11,2020.2.6,Win32,60,,,,,,,,,,,
,,,,,,,,,,,,,,a,1,0.86004,space,0.40031,0,27,27,118,1,0_targ_1_dist_green/trial19.png,,,0,1,greenverival,a,21,20,Male,2021-02-18_19h17.07.925,exp11,2020.2.6,Win32,60,,,,,,,,,,,
,,,,,,,,,,,,,,a,1,1.223165,space,0.301335,0,28,28,163,1,0_targ_10_dist_green/trial14.png,,,0,10,greenverival,a,21,20,Male,2021-02-18_19h17.07.925,exp11,2020.2.6,Win32,60,,,,,,,,,,,
,,,,,,,,,,,,,,a,1,0.7772,space,0.371545,0,29,29,131,1,0_targ_4_dist_green/trial7.png,,,0,4,greenverival,a,21,20,Male,2021-02-18_19h17.07.925,exp11,2020.2.6,Win32,60,,,,,,,,,,,
,,,,,,,,,,,,,,a,1,0.641845,space,0.27845,0,30,30,110,1,0_targ_1_dist_green/trial11.png,,,0,1,greenverival,a,21,20,Male,2021-02-18_19h17.07.925,exp11,2020.2.6,Win32,60,,,,,,,,,,,
,,,,,,,,,,,,,,a,1,1.05076,space,0.308835,0,31,31,184,1,0_targ_16_dist_green/trial10.png,,,0,16,greenverival,a,21,20,Male,2021-02-18_19h17.07.925,exp11,2020.2.6,Win32,60,,,,,,,,,,,
,,,,,,,,,,,,,,p,1,0.681345,space,0.30394,0,32,32,62,1,9_dist_green/trial13.png,,,1,9,greenverival,p,21,20,Male,2021-02-18_19h17.07.925,exp11,2020.2.6,Win32,60,,,,,,,,,,,
,,,,,,,,,,,,,,a,1,0.972975,space,0.351535,0,33,33,159,1,0_targ_10_dist_green/trial10.png,,,0,10,greenverival,a,21,20,Male,2021-02-18_19h17.07.925,exp11,2020.2.6,Win32,60,,,,,,,,,,,
,,,,,,,,,,,,,,a,1,1.245975,space,0.254525,0,34,34,196,1,0_targ_16_dist_green/trial22.png,,,0,16,greenverival,a,21,20,Male,2021-02-18_19h17.07.925,exp11,2020.2.6,Win32,60,,,,,,,,,,,
,,,,,,,,,,,,,,a,1,1.06579,space,0.721655,0,35,35,197,1,0_targ_16_dist_green/trial23.png,,,0,16,greenverival,a,21,20,Male,2021-02-18_19h17.07.925,exp11,2020.2.6,Win32,60,,,,,,,,,,,
,,,,,,,,,,,,,,a,1,0.8415,space,0.38832,0,36,36,108,1,0_targ_1_dist_green/trial9.png,,,0,1,greenverival,a,21,20,Male,2021-02-18_19h17.07.925,exp11,2020.2.6,Win32,60,,,,,,,,,,,
,,,,,,,,,,,,,,p,1,0.541195,space,0.368095,0,37,37,32,1,3_dist_green/trial8.png,,,1,3,greenverival,p,21,20,Male,2021-02-18_19h17.07.925,exp11,2020.2.6,Win32,60,,,,,,,,,,,
,,,,,,,,,,,,,,a,1,0.68444,space,0.33772,0,38,38,170,1,0_targ_10_dist_green/trial21.png,,,0,10,greenverival,a,21,20,Male,2021-02-18_19h17.07.925,exp11,2020.2.6,Win32,60,,,,,,,,,,,
,,,,,,,,,,,,,,a,1,1.045195,space,0.338715,0,39,39,162,1,0_targ_10_dist_green/trial13.png,,,0,10,greenverival,a,21,20,Male,2021-02-18_19h17.07.925,exp11,2020.2.6,Win32,60,,,,,,,,,,,
,,,,,,,,,,,,,,p,0,0.7909,space,2.043165,0,40,40,120,1,0_targ_1_dist_green/trial21.png,,,0,1,greenverival,a,21,20,Male,2021-02-18_19h17.07.925,exp11,2020.2.6,Win32,60,,,,,,,,,,,
,,,,,,,,,,,,,,a,1,0.6877,space,0.92428,0,41,41,132,1,0_targ_4_dist_green/trial8.png,,,0,4,greenverival,a,21,20,Male,2021-02-18_19h17.07.925,exp11,2020.2.6,Win32,60,,,,,,,,,,,
,,,,,,,,,,,,,,p,1,0.617655,space,0.308735,0,42,42,31,1,3_dist_green/trial7.png,,,1,3,greenverival,p,21,20,Male,2021-02-18_19h17.07.925,exp11,2020.2.6,Win32,60,,,,,,,,,,,
,,,,,,,,,,,,,,p,1,0.92956,space,0.29004,0,43,43,79,1,15_dist_green/trial5.png,,,1,15,greenverival,p,21,20,Male,2021-02-18_19h17.07.925,exp11,2020.2.6,Win32,60,,,,,,,,,,,
,,,,,,,,,,,,,,p,1,0.529435,space,0.367255,0,44,44,14,1,0_dist_green/trial15.png,,,1,0,greenverival,p,21,20,Male,2021-02-18_19h17.07.925,exp11,2020.2.6,Win32,60,,,,,,,,,,,
,,,,,,,,,,,,,,a,1,0.60983,space,0.3842,0,45,45,111,1,0_targ_1_dist_green/trial12.png,,,0,1,greenverival,a,21,20,Male,2021-02-18_19h17.07.925,exp11,2020.2.6,Win32,60,,,,,,,,,,,
,,,,,,,,,,,,,,p,1,0.613265,space,0.23502,0,46,46,84,1,15_dist_green/trial10.png,,,1,15,greenverival,p,21,20,Male,2021-02-18_19h17.07.925,exp11,2020.2.6,Win32,60,,,,,,,,,,,
,,,,,,,,,,,,,,p,1,0.665645,space,0.379345,0,47,47,57,1,9_dist_green/trial8.png,,,1,9,greenverival,p,21,20,Male,2021-02-18_19h17.07.925,exp11,2020.2.6,Win32,60,,,,,,,,,,,
,,,,,,,,,,,,,,a,1,0.67612,space,0.401625,0,48,48,173,1,0_targ_10_dist_green/trial24.png,,,0,10,greenverival,a,21,20,Male,2021-02-18_19h17.07.925,exp11,2020.2.6,Win32,60,,,,,,,,,,,
,,,,,,,,,,,,,,p,1,0.578855,space,0.326485,0,49,49,11,1,0_dist_green/trial12.png,,,1,0,greenverival,p,21,20,Male,2021-02-18_19h17.07.925,exp11,2020.2.6,Win32,60,,,,,,,,,,,
,,,,,,,,,,,,,,p,1,0.52086,space,0.262925,0,50,50,35,1,3_dist_green/trial11.png,,,1,3,greenverival,p,21,20,Male,2021-02-18_19h17.07.925,exp11,2020.2.6,Win32,60,,,,,,,,,,,
,,,,,,,,,,,,,,a,0,1.06925,space,0.973435,0,51,51,91,1,15_dist_green/trial17.png,,,1,15,greenverival,p,21,20,Male,2021-02-18_19h17.07.925,exp11,2020.2.6,Win32,60,,,,,,,,,,,
,,,,,,,,,,,,,,a,1,0.89266,space,0.51976,0,52,52,167,1,0_targ_10_dist_green/trial18.png,,,0,10,greenverival,a,21,20,Male,2021-02-18_19h17.07.925,exp11,2020.2.6,Win32,60,,,,,,,,,,,
,,,,,,,,,,,,,,a,1,1.060605,space,0.567345,0,53,53,102,1,0_targ_1_dist_green/trial3.png,,,0,1,greenverival,a,21,20,Male,2021-02-18_19h17.07.925,exp11,2020.2.6,Win32,60,,,,,,,,,,,
,,,,,,,,,,,,,,a,1,0.74285,space,0.26744,0,54,54,112,1,0_targ_1_dist_green/trial13.png,,,0,1,greenverival,a,21,20,Male,2021-02-18_19h17.07.925,exp11,2020.2.6,Win32,60,,,,,,,,,,,
,,,,,,,,,,,,,,p,1,0.70083,space,0.283035,0,55,55,29,1,3_dist_green/trial5.png,,,1,3,greenverival,p,21,20,Male,2021-02-18_19h17.07.925,exp11,2020.2.6,Win32,60,,,,,,,,,,,
,,,,,,,,,,,,,,p,1,0.66049,space,0.30499,0,56,56,92,1,15_dist_green/trial18.png,,,1,15,greenverival,p,21,20,Male,2021-02-18_19h17.07.925,exp11,2020.2.6,Win32,60,,,,,,,,,,,
,,,,,,,,,,,,,,a,1,0.720425,space,0.31159,0,57,57,140,1,0_targ_4_dist_green/trial6.png,,,0,4,greenverival,a,21,20,Male,2021-02-18_19h17.07.925,exp11,2020.2.6,Win32,60,,,,,,,,,,,
,,,,,,,,,,,,,,p,1,0.659205,space,0.284335,0,58,58,20,1,0_dist_green/trial21.png,,,1,0,greenverival,p,21,20,Male,2021-02-18_19h17.07.925,exp11,2020.2.6,Win32,60,,,,,,,,,,,
,,,,,,,,,,,,,,p,1,0.6444,space,0.338685,0,59,59,34,1,3_dist_green/trial10.png,,,1,3,greenverival,p,21,20,Male,2021-02-18_19h17.07.925,exp11,2020.2.6,Win32,60,,,,,,,,,,,
,,,,,,,,,,,,,,a,1,0.735485,space,0.355165,0,60,60,157,1,0_targ_10_dist_green/trial8.png,,,0,10,greenverival,a,21,20,Male,2021-02-18_19h17.07.925,exp11,2020.2.6,Win32,60,,,,,,,,,,,
,,,,,,,,,,,,,,p,1,1.180985,space,0.324575,0,61,61,73,1,9_dist_green/trial24.png,,,1,9,greenverival,p,21,20,Male,2021-02-18_19h17.07.925,exp11,2020.2.6,Win32,60,,,,,,,,,,,
,,,,,,,,,,,,,,p,1,0.746805,space,0.32962,0,62,62,76,1,15_dist_green/trial2.png,,,1,15,greenverival,p,21,20,Male,2021-02-18_19h17.07.925,exp11,2020.2.6,Win32,60,,,,,,,,,,,
,,,,,,,,,,,,,,p,1,0.940995,space,0.44167,0,63,63,77,1,15_dist_green/trial3.png,,,1,15,greenverival,p,21,20,Male,2021-02-18_19h17.07.925,exp11,2020.2.6,Win32,60,,,,,,,,,,,
,,,,,,,,,,,,,,a,1,1.00848,space,0.35485,0,64,64,169,1,0_targ_10_dist_green/trial20.png,,,0,10,greenverival,a,21,20,Male,2021-02-18_19h17.07.925,exp11,2020.2.6,Win32,60,,,,,,,,,,,
,,,,,,,,,,,,,,a,1,1.084295,space,0.35656,0,65,65,141,1,0_targ_4_dist_green/trial17.png,,,0,4,greenverival,a,21,20,Male,2021-02-18_19h17.07.925,exp11,2020.2.6,Win32,60,,,,,,,,,,,
,,,,,,,,,,,,,,p,1,0.69813,space,0.38914,0,66,66,15,1,0_dist_green/trial16.png,,,1,0,greenverival,p,21,20,Male,2021-02-18_19h17.07.925,exp11,2020.2.6,Win32,60,,,,,,,,,,,
,,,,,,,,,,,,,,p,1,0.639435,space,0.393155,0,67,67,26,1,3_dist_green/trial2.png,,,1,3,greenverival,p,21,20,Male,2021-02-18_19h17.07.925,exp11,2020.2.6,Win32,60,,,,,,,,,,,
,,,,,,,,,,,,,,a,1,1.065095,space,0.35105,0,68,68,148,1,0_targ_4_dist_green/trial24.png,,,0,4,greenverival,a,21,20,Male,2021-02-18_19h17.07.925,exp11,2020.2.6,Win32,60,,,,,,,,,,,
,,,,,,,,,,,,,,a,1,0.793205,space,0.3518,0,69,69,109,1,0_targ_1_dist_green/trial10.png,,,0,1,greenverival,a,21,20,Male,2021-02-18_19h17.07.925,exp11,2020.2.6,Win32,60,,,,,,,,,,,
,,,,,,,,,,,,,,p,1,0.65646,space,0.304655,0,70,70,13,1,0_dist_green/trial14.png,,,1,0,greenverival,p,21,20,Male,2021-02-18_19h17.07.925,exp11,2020.2.6,Win32,60,,,,,,,,,,,
,,,,,,,,,,,,,,p,1,1.08123,space,0.312325,0,71,71,45,1,3_dist_green/trial21.png,,,1,3,greenverival,p,21,20,Male,2021-02-18_19h17.07.925,exp11,2020.2.6,Win32,60,,,,,,,,,,,
,,,,,,,,,,,,,,a,1,0.901175,space,0.95177,0,72,72,156,1,0_targ_10_dist_green/trial7.png,,,0,10,greenverival,a,21,20,Male,2021-02-18_19h17.07.925,exp11,2020.2.6,Win32,60,,,,,,,,,,,
,,,,,,,,,,,,,,p,1,0.5665,space,0.396855,0,73,73,39,1,3_dist_green/trial15.png,,,1,3,greenverival,p,21,20,Male,2021-02-18_19h17.07.925,exp11,2020.2.6,Win32,60,,,,,,,,,,,
,,,,,,,,,,,,,,p,1,0.750155,space,0.72396,0,74,74,55,1,9_dist_green/trial6.png,,,1,9,greenverival,p,21,20,Male,2021-02-18_19h17.07.925,exp11,2020.2.6,Win32,60,,,,,,,,,,,
,,,,,,,,,,,,,,p,1,0.65325,space,0.3183,0,75,75,60,1,9_dist_green/trial11.png,,,1,9,greenverival,p,21,20,Male,2021-02-18_19h17.07.925,exp11,2020.2.6,Win32,60,,,,,,,,,,,
,,,,,,,,,,,,,,p,1,0.649595,space,0.445095,0,76,76,7,1,0_dist_green/trial8.png,,,1,0,greenverival,p,21,20,Male,2021-02-18_19h17.07.925,exp11,2020.2.6,Win32,60,,,,,,,,,,,
,,,,,,,,,,,,,,a,1,1.62506,space,0.354335,0,77,77,130,1,0_targ_4_dist_green/trial6.png,,,0,4,greenverival,a,21,20,Male,2021-02-18_19h17.07.925,exp11,2020.2.6,Win32,60,,,,,,,,,,,
,,,,,,,,,,,,,,a,1,0.695015,space,0.318595,0,78,78,137,1,0_targ_4_dist_green/trial13.png,,,0,4,greenverival,a,21,20,Male,2021-02-18_19h17.07.925,exp11,2020.2.6,Win32,60,,,,,,,,,,,
,,,,,,,,,,,,,,a,1,0.931905,space,0.33932,0,79,79,115,1,0_targ_1_dist_green/trial6.png,,,0,1,greenverival,a,21,20,Male,2021-02-18_19h17.07.925,exp11,2020.2.6,Win32,60,,,,,,,,,,,
,,,,,,,,,,,,,,p,1,0.90211,space,0.50063,0,80,80,94,1,15_dist_green/trial20.png,,,1,15,greenverival,p,21,20,Male,2021-02-18_19h17.07.925,exp11,2020.2.6,Win32,60,,,,,,,,,,,
,,,,,,,,,,,,,,a,1,1.087725,space,0.51288,0,81,81,138,1,0_targ_4_dist_green/trial14.png,,,0,4,greenverival,a,21,20,Male,2021-02-18_19h17.07.925,exp11,2020.2.6,Win32,60,,,,,,,,,,,
,,,,,,,,,,,,,,a,1,0.894485,space,0.367335,0,82,82,149,1,0_targ_4_dist_green/trial25.png,,,0,4,greenverival,a,21,20,Male,2021-02-18_19h17.07.925,exp11,2020.2.6,Win32,60,,,,,,,,,,,
,,,,,,,,,,,,,,a,1,0.754965,space,0.32428,0,83,83,155,1,0_targ_10_dist_green/trial6.png,,,0,10,greenverival,a,21,20,Male,2021-02-18_19h17.07.925,exp11,2020.2.6,Win32,60,,,,,,,,,,,
,,,,,,,,,,,,,,p,1,0.717505,space,0.277835,0,84,84,59,1,9_dist_green/trial10.png,,,1,9,greenverival,p,21,20,Male,2021-02-18_19h17.07.925,exp11,2020.2.6,Win32,60,,,,,,,,,,,
,,,,,,,,,,,,,,a,1,0.891225,space,0.292265,0,85,85,190,1,0_targ_16_dist_green/trial16.png,,,0,16,greenverival,a,21,20,Male,2021-02-18_19h17.07.925,exp11,2020.2.6,Win32,60,,,,,,,,,,,
,,,,,,,,,,,,,,p,1,0.60757,space,0.2834,0,86,86,5,1,0_dist_green/trial6.png,,,1,0,greenverival,p,21,20,Male,2021-02-18_19h17.07.925,exp11,2020.2.6,Win32,60,,,,,,,,,,,
,,,,,,,,,,,,,,a,1,0.849365,space,0.334055,0,87,87,107,1,0_targ_1_dist_green/trial8.png,,,0,1,greenverival,a,21,20,Male,2021-02-18_19h17.07.925,exp11,2020.2.6,Win32,60,,,,,,,,,,,
,,,,,,,,,,,,,,p,1,0.691755,space,0.30256,0,88,88,10,1,0_dist_green/trial11.png,,,1,0,greenverival,p,21,20,Male,2021-02-18_19h17.07.925,exp11,2020.2.6,Win32,60,,,,,,,,,,,
,,,,,,,,,,,,,,p,1,0.72884,space,0.30226,0,89,89,53,1,9_dist_green/trial4.png,,,1,9,greenverival,p,21,20,Male,2021-02-18_19h17.07.925,exp11,2020.2.6,Win32,60,,,,,,,,,,,
,,,,,,,,,,,,,,p,1,0.63547,space,0.325915,0,90,90,33,1,3_dist_green/trial9.png,,,1,3,greenverival,p,21,20,Male,2021-02-18_19h17.07.925,exp11,2020.2.6,Win32,60,,,,,,,,,,,
,,,,,,,,,,,,,,p,1,0.46794,space,0.824815,0,91,91,8,1,0_dist_green/trial9.png,,,1,0,greenverival,p,21,20,Male,2021-02-18_19h17.07.925,exp11,2020.2.6,Win32,60,,,,,,,,,,,
,,,,,,,,,,,,,,p,1,0.83147,space,0.256815,0,92,92,4,1,0_dist_green/trial5.png,,,1,0,greenverival,p,21,20,Male,2021-02-18_19h17.07.925,exp11,2020.2.6,Win32,60,,,,,,,,,,,
,,,,,,,,,,,,,,a,1,0.75907,space,0.494155,0,93,93,198,1,0_targ_16_dist_green/trial24.png,,,0,16,greenverival,a,21,20,Male,2021-02-18_19h17.07.925,exp11,2020.2.6,Win32,60,,,,,,,,,,,
,,,,,,,,,,,,,,p,1,0.794515,space,0.271695,0,94,94,85,1,15_dist_green/trial11.png,,,1,15,greenverival,p,21,20,Male,2021-02-18_19h17.07.925,exp11,2020.2.6,Win32,60,,,,,,,,,,,
,,,,,,,,,,,,,,p,1,0.65371,space,0.285395,0,95,95,71,1,9_dist_green/trial22.png,,,1,9,greenverival,p,21,20,Male,2021-02-18_19h17.07.925,exp11,2020.2.6,Win32,60,,,,,,,,,,,
,,,,,,,,,,,,,,a,1,1.268185,space,0.27365,0,96,96,175,1,0_targ_16_dist_green/trial1.png,,,0,16,greenverival,a,21,20,Male,2021-02-18_19h17.07.925,exp11,2020.2.6,Win32,60,,,,,,,,,,,
,,,,,,,,,,,,,,p,1,0.79182,space,0.25311,0,97,97,98,1,15_dist_green/trial24.png,,,1,15,greenverival,p,21,20,Male,2021-02-18_19h17.07.925,exp11,2020.2.6,Win32,60,,,,,,,,,,,
,,,,,,,,,,,,,,p,1,0.619955,space,0.37297,0,98,98,24,1,0_dist_green/trial25.png,,,1,0,greenverival,p,21,20,Male,2021-02-18_19h17.07.925,exp11,2020.2.6,Win32,60,,,,,,,,,,,
,,,,,,,,,,,,,,a,1,0.875985,space,0.305645,0,99,99,195,1,0_targ_16_dist_green/trial21.png,,,0,16,greenverival,a,21,20,Male,2021-02-18_19h17.07.925,exp11,2020.2.6,Win32,60,,,,,,,,,,,
,,,,,,,,,,,,,,p,1,0.581475,space,0.232375,0,100,100,22,1,0_dist_green/trial23.png,,,1,0,greenverival,p,21,20,Male,2021-02-18_19h17.07.925,exp11,2020.2.6,Win32,60,,,,,,,,,,,
,,,,,,,,,,,,,,a,1,0.723085,space,0.257285,0,101,101,121,1,0_targ_1_dist_green/trial22.png,,,0,1,greenverival,a,21,20,Male,2021-02-18_19h17.07.925,exp11,2020.2.6,Win32,60,,,,,,,,,,,
,,,,,,,,,,,,,,p,1,0.823245,space,0.281015,0,102,102,52,1,9_dist_green/trial3.png,,,1,9,greenverival,p,21,20,Male,2021-02-18_19h17.07.925,exp11,2020.2.6,Win32,60,,,,,,,,,,,
,,,,,,,,,,,,,,a,1,0.651205,space,0.247655,0,103,103,114,1,0_targ_1_dist_green/trial15.png,,,0,1,greenverival,a,21,20,Male,2021-02-18_19h17.07.925,exp11,2020.2.6,Win32,60,,,,,,,,,,,
,,,,,,,,,,,,,,p,1,0.677,space,0.26789,0,104,104,90,1,15_dist_green/trial16.png,,,1,15,greenverival,p,21,20,Male,2021-02-18_19h17.07.925,exp11,2020.2.6,Win32,60,,,,,,,,,,,
,,,,,,,,,,,,,,p,1,0.701555,space,0.304485,0,105,105,16,1,0_dist_green/trial17.png,,,1,0,greenverival,p,21,20,Male,2021-02-18_19h17.07.925,exp11,2020.2.6,Win32,60,,,,,,,,,,,
,,,,,,,,,,,,,,p,1,1.273395,space,0.25436,0,106,106,82,1,15_dist_green/trial8.png,,,1,15,greenverival,p,21,20,Male,2021-02-18_19h17.07.925,exp11,2020.2.6,Win32,60,,,,,,,,,,,
,,,,,,,,,,,,,,p,1,0.64517,space,0.305395,0,107,107,83,1,15_dist_green/trial9.png,,,1,15,greenverival,p,21,20,Male,2021-02-18_19h17.07.925,exp11,2020.2.6,Win32,60,,,,,,,,,,,
,,,,,,,,,,,,,,p,1,0.689375,space,0.26275,0,108,108,27,1,3_dist_green/trial3.png,,,1,3,greenverival,p,21,20,Male,2021-02-18_19h17.07.925,exp11,2020.2.6,Win32,60,,,,,,,,,,,
,,,,,,,,,,,,,,p,1,0.69511,space,0.29776,0,109,109,96,1,15_dist_green/trial22.png,,,1,15,greenverival,p,21,20,Male,2021-02-18_19h17.07.925,exp11,2020.2.6,Win32,60,,,,,,,,,,,
,,,,,,,,,,,,,,p,1,0.492675,space,0.29109,0,110,110,6,1,0_dist_green/trial7.png,,,1,0,greenverival,p,21,20,Male,2021-02-18_19h17.07.925,exp11,2020.2.6,Win32,60,,,,,,,,,,,
,,,,,,,,,,,,,,a,1,0.64264,space,0.255635,0,111,111,119,1,0_targ_1_dist_green/trial20.png,,,0,1,greenverival,a,21,20,Male,2021-02-18_19h17.07.925,exp11,2020.2.6,Win32,60,,,,,,,,,,,
,,,,,,,,,,,,,,a,1,1.14733,space,0.2286,0,112,112,186,1,0_targ_16_dist_green/trial12.png,,,0,16,greenverival,a,21,20,Male,2021-02-18_19h17.07.925,exp11,2020.2.6,Win32,60,,,,,,,,,,,
,,,,,,,,,,,,,,p,1,0.536445,space,0.25606,0,113,113,21,1,0_dist_green/trial22.png,,,1,0,greenverival,p,21,20,Male,2021-02-18_19h17.07.925,exp11,2020.2.6,Win32,60,,,,,,,,,,,
,,,,,,,,,,,,,,a,1,0.62489,space,0.2851,0,114,114,106,1,0_targ_1_dist_green/trial7.png,,,0,1,greenverival,a,21,20,Male,2021-02-18_19h17.07.925,exp11,2020.2.6,Win32,60,,,,,,,,,,,
,,,,,,,,,,,,,,a,1,0.879235,space,0.56837,0,115,115,158,1,0_targ_10_dist_green/trial9.png,,,0,10,greenverival,a,21,20,Male,2021-02-18_19h17.07.925,exp11,2020.2.6,Win32,60,,,,,,,,,,,
,,,,,,,,,,,,,,a,1,1.00812,space,0.240625,0,116,116,142,1,0_targ_4_dist_green/trial18.png,,,0,4,greenverival,a,21,20,Male,2021-02-18_19h17.07.925,exp11,2020.2.6,Win32,60,,,,,,,,,,,
,,,,,,,,,,,,,,p,1,0.65234,space,0.21129,0,117,117,81,1,15_dist_green/trial7.png,,,1,15,greenverival,p,21,20,Male,2021-02-18_19h17.07.925,exp11,2020.2.6,Win32,60,,,,,,,,,,,
,,,,,,,,,,,,,,p,1,1.827185,space,0.44106,0,118,118,87,1,15_dist_green/trial13.png,,,1,15,greenverival,p,21,20,Male,2021-02-18_19h17.07.925,exp11,2020.2.6,Win32,60,,,,,,,,,,,
,,,,,,,,,,,,,,p,1,0.65237,space,0.429695,0,119,119,68,1,9_dist_green/trial19.png,,,1,9,greenverival,p,21,20,Male,2021-02-18_19h17.07.925,exp11,2020.2.6,Win32,60,,,,,,,,,,,
,,,,,,,,,,,,,,a,1,1.18981,space,0.307245,0,120,120,182,1,0_targ_16_dist_green/trial8.png,,,0,16,greenverival,a,21,20,Male,2021-02-18_19h17.07.925,exp11,2020.2.6,Win32,60,,,,,,,,,,,
,,,,,,,,,,,,,,p,1,0.52977,space,0.273485,0,121,121,17,1,0_dist_green/trial18.png,,,1,0,greenverival,p,21,20,Male,2021-02-18_19h17.07.925,exp11,2020.2.6,Win32,60,,,,,,,,,,,
,,,,,,,,,,,,,,a,1,0.786565,space,0.33615,0,122,122,183,1,0_targ_16_dist_green/trial9.png,,,0,16,greenverival,a,21,20,Male,2021-02-18_19h17.07.925,exp11,2020.2.6,Win32,60,,,,,,,,,,,
,,,,,,,,,,,,,,p,1,0.59972,space,0.250115,0,123,123,0,1,0_dist_green/trial1.png,,,1,0,greenverival,p,21,20,Male,2021-02-18_19h17.07.925,exp11,2020.2.6,Win32,60,,,,,,,,,,,
,,,,,,,,,,,,,,p,1,0.773305,space,0.30744,0,124,124,36,1,3_dist_green/trial12.png,,,1,3,greenverival,p,21,20,Male,2021-02-18_19h17.07.925,exp11,2020.2.6,Win32,60,,,,,,,,,,,
,,,,,,,,,,,,,,p,1,0.66207,space,0.28859,0,125,125,18,1,0_dist_green/trial19.png,,,1,0,greenverival,p,21,20,Male,2021-02-18_19h17.07.925,exp11,2020.2.6,Win32,60,,,,,,,,,,,
,,,,,,,,,,,,,,p,1,0.639945,space,0.286435,0,126,126,67,1,9_dist_green/trial18.png,,,1,9,greenverival,p,21,20,Male,2021-02-18_19h17.07.925,exp11,2020.2.6,Win32,60,,,,,,,,,,,
,,,,,,,,,,,,,,p,1,0.68985,space,0.27863,0,127,127,1,1,0_dist_green/trial2.png,,,1,0,greenverival,p,21,20,Male,2021-02-18_19h17.07.925,exp11,2020.2.6,Win32,60,,,,,,,,,,,
,,,,,,,,,,,,,,p,1,0.546715,space,0.287755,0,128,128,12,1,0_dist_green/trial13.png,,,1,0,greenverival,p,21,20,Male,2021-02-18_19h17.07.925,exp11,2020.2.6,Win32,60,,,,,,,,,,,
,,,,,,,,,,,,,,a,1,0.929975,space,0.271515,0,129,129,179,1,0_targ_16_dist_green/trial5.png,,,0,16,greenverival,a,21,20,Male,2021-02-18_19h17.07.925,exp11,2020.2.6,Win32,60,,,,,,,,,,,
,,,,,,,,,,,,,,p,1,0.68293,space,0.27084,0,130,130,80,1,15_dist_green/trial6.png,,,1,15,greenverival,p,21,20,Male,2021-02-18_19h17.07.925,exp11,2020.2.6,Win32,60,,,,,,,,,,,
,,,,,,,,,,,,,,a,1,0.750625,space,0.301525,0,131,131,135,1,0_targ_4_dist_green/trial11.png,,,0,4,greenverival,a,21,20,Male,2021-02-18_19h17.07.925,exp11,2020.2.6,Win32,60,,,,,,,,,,,
,,,,,,,,,,,,,,p,1,0.663315,space,0.27025,0,132,132,50,1,9_dist_green/trial1.png,,,1,9,greenverival,p,21,20,Male,2021-02-18_19h17.07.925,exp11,2020.2.6,Win32,60,,,,,,,,,,,
,,,,,,,,,,,,,,p,1,0.66773,space,0.290445,0,133,133,44,1,3_dist_green/trial20.png,,,1,3,greenverival,p,21,20,Male,2021-02-18_19h17.07.925,exp11,2020.2.6,Win32,60,,,,,,,,,,,
,,,,,,,,,,,,,,a,1,0.68053,space,0.2932,0,134,134,113,1,0_targ_1_dist_green/trial14.png,,,0,1,greenverival,a,21,20,Male,2021-02-18_19h17.07.925,exp11,2020.2.6,Win32,60,,,,,,,,,,,
,,,,,,,,,,,,,,p,1,0.612985,space,0.287875,0,135,135,3,1,0_dist_green/trial4.png,,,1,0,greenverival,p,21,20,Male,2021-02-18_19h17.07.925,exp11,2020.2.6,Win32,60,,,,,,,,,,,
,,,,,,,,,,,,,,p,1,0.982025,space,0.28794,0,136,136,58,1,9_dist_green/trial9.png,,,1,9,greenverival,p,21,20,Male,2021-02-18_19h17.07.925,exp11,2020.2.6,Win32,60,,,,,,,,,,,
,,,,,,,,,,,,,,a,1,1.00164,space,0.241885,0,137,137,194,1,0_targ_16_dist_green/trial20.png,,,0,16,greenverival,a,21,20,Male,2021-02-18_19h17.07.925,exp11,2020.2.6,Win32,60,,,,,,,,,,,
,,,,,,,,,,,,,,a,1,1.08256,space,0.217845,0,138,138,185,1,0_targ_16_dist_green/trial11.png,,,0,16,greenverival,a,21,20,Male,2021-02-18_19h17.07.925,exp11,2020.2.6,Win32,60,,,,,,,,,,,
,,,,,,,,,,,,,,a,1,1.71767,space,0.385615,0,139,139,192,1,0_targ_16_dist_green/trial18.png,,,0,16,greenverival,a,21,20,Male,2021-02-18_19h17.07.925,exp11,2020.2.6,Win32,60,,,,,,,,,,,
,,,,,,,,,,,,,,a,1,1.43225,space,0.438455,0,140,140,191,1,0_targ_16_dist_green/trial17.png,,,0,16,greenverival,a,21,20,Male,2021-02-18_19h17.07.925,exp11,2020.2.6,Win32,60,,,,,,,,,,,
,,,,,,,,,,,,,,a,1,0.97299,space,0.25371,0,141,141,124,1,0_targ_1_dist_green/trial25.png,,,0,1,greenverival,a,21,20,Male,2021-02-18_19h17.07.925,exp11,2020.2.6,Win32,60,,,,,,,,,,,
,,,,,,,,,,,,,,p,1,0.571295,space,0.21959,0,142,142,23,1,0_dist_green/trial24.png,,,1,0,greenverival,p,21,20,Male,2021-02-18_19h17.07.925,exp11,2020.2.6,Win32,60,,,,,,,,,,,
,,,,,,,,,,,,,,p,1,0.58931,space,0.22708,0,143,143,47,1,3_dist_green/trial23.png,,,1,3,greenverival,p,21,20,Male,2021-02-18_19h17.07.925,exp11,2020.2.6,Win32,60,,,,,,,,,,,
,,,,,,,,,,,,,,p,1,0.71207,space,0.234465,0,144,144,99,1,15_dist_green/trial25.png,,,1,15,greenverival,p,21,20,Male,2021-02-18_19h17.07.925,exp11,2020.2.6,Win32,60,,,,,,,,,,,
,,,,,,,,,,,,,,a,1,0.95758,space,0.167675,0,145,145,126,1,0_targ_4_dist_green/trial2.png,,,0,4,greenverival,a,21,20,Male,2021-02-18_19h17.07.925,exp11,2020.2.6,Win32,60,,,,,,,,,,,
,,,,,,,,,,,,,,p,1,0.69759,space,0.23324,0,146,146,25,1,3_dist_green/trial1.png,,,1,3,greenverival,p,21,20,Male,2021-02-18_19h17.07.925,exp11,2020.2.6,Win32,60,,,,,,,,,,,
,,,,,,,,,,,,,,a,1,0.81153,space,0.355135,0,147,147,139,1,0_targ_4_dist_green/trial15.png,,,0,4,greenverival,a,21,20,Male,2021-02-18_19h17.07.925,exp11,2020.2.6,Win32,60,,,,,,,,,,,
,,,,,,,,,,,,,,a,1,1.024455,space,0.29308,0,148,148,180,1,0_targ_16_dist_green/trial6.png,,,0,16,greenverival,a,21,20,Male,2021-02-18_19h17.07.925,exp11,2020.2.6,Win32,60,,,,,,,,,,,
,,,,,,,,,,,,,,p,1,1.02997,space,0.19689,0,149,149,54,1,9_dist_green/trial5.png,,,1,9,greenverival,p,21,20,Male,2021-02-18_19h17.07.925,exp11,2020.2.6,Win32,60,,,,,,,,,,,
,,,,,,,,,,,,,,p,1,0.658935,space,0.227435,0,150,150,56,1,9_dist_green/trial7.png,,,1,9,greenverival,p,21,20,Male,2021-02-18_19h17.07.925,exp11,2020.2.6,Win32,60,,,,,,,,,,,
,,,,,,,,,,,,,,p,1,0.6187,space,0.2375,0,151,151,93,1,15_dist_green/trial19.png,,,1,15,greenverival,p,21,20,Male,2021-02-18_19h17.07.925,exp11,2020.2.6,Win32,60,,,,,,,,,,,
,,,,,,,,,,,,,,p,1,0.632645,space,0.213625,0,152,152,40,1,3_dist_green/trial16.png,,,1,3,greenverival,p,21,20,Male,2021-02-18_19h17.07.925,exp11,2020.2.6,Win32,60,,,,,,,,,,,
,,,,,,,,,,,,,,a,0,0.692965,space,1.981795,0,153,153,30,1,3_dist_green/trial6.png,,,1,3,greenverival,p,21,20,Male,2021-02-18_19h17.07.925,exp11,2020.2.6,Win32,60,,,,,,,,,,,
,,,,,,,,,,,,,,a,1,0.73329,space,0.337805,0,154,154,168,1,0_targ_10_dist_green/trial19.png,,,0,10,greenverival,a,21,20,Male,2021-02-18_19h17.07.925,exp11,2020.2.6,Win32,60,,,,,,,,,,,
,,,,,,,,,,,,,,a,1,0.819735,space,0.311,0,155,155,147,1,0_targ_4_dist_green/trial23.png,,,0,4,greenverival,a,21,20,Male,2021-02-18_19h17.07.925,exp11,2020.2.6,Win32,60,,,,,,,,,,,
,,,,,,,,,,,,,,p,1,0.5366,space,0.2551,0,156,156,37,1,3_dist_green/trial13.png,,,1,3,greenverival,p,21,20,Male,2021-02-18_19h17.07.925,exp11,2020.2.6,Win32,60,,,,,,,,,,,
,,,,,,,,,,,,,,p,1,0.582365,space,0.25986,0,157,157,72,1,9_dist_green/trial23.png,,,1,9,greenverival,p,21,20,Male,2021-02-18_19h17.07.925,exp11,2020.2.6,Win32,60,,,,,,,,,,,
,,,,,,,,,,,,,,a,1,0.591945,space,0.256225,0,158,158,103,1,0_targ_1_dist_green/trial4.png,,,0,1,greenverival,a,21,20,Male,2021-02-18_19h17.07.925,exp11,2020.2.6,Win32,60,,,,,,,,,,,
,,,,,,,,,,,,,,a,1,0.701965,space,0.247715,0,159,159,165,1,0_targ_10_dist_green/trial16.png,,,0,10,greenverival,a,21,20,Male,2021-02-18_19h17.07.925,exp11,2020.2.6,Win32,60,,,,,,,,,,,
,,,,,,,,,,,,,,a,1,0.767425,space,0.24251,0,160,160,153,1,0_targ_10_dist_green/trial4.png,,,0,10,greenverival,a,21,20,Male,2021-02-18_19h17.07.925,exp11,2020.2.6,Win32,60,,,,,,,,,,,
,,,,,,,,,,,,,,p,1,1.497045,space,0.237625,0,161,161,46,1,3_dist_green/trial22.png,,,1,3,greenverival,p,21,20,Male,2021-02-18_19h17.07.925,exp11,2020.2.6,Win32,60,,,,,,,,,,,
,,,,,,,,,,,,,,a,1,1.09806,space,0.350575,0,162,162,122,1,0_targ_1_dist_green/trial23.png,,,0,1,greenverival,a,21,20,Male,2021-02-18_19h17.07.925,exp11,2020.2.6,Win32,60,,,,,,,,,,,
,,,,,,,,,,,,,,p,1,0.66418,space,0.21402,0,163,163,69,1,9_dist_green/trial20.png,,,1,9,greenverival,p,21,20,Male,2021-02-18_19h17.07.925,exp11,2020.2.6,Win32,60,,,,,,,,,,,
,,,,,,,,,,,,,,a,1,0.753015,space,0.274875,0,164,164,154,1,0_targ_10_dist_green/trial5.png,,,0,10,greenverival,a,21,20,Male,2021-02-18_19h17.07.925,exp11,2020.2.6,Win32,60,,,,,,,,,,,
,,,,,,,,,,,,,,a,1,1.167615,space,0.29473,0,165,165,150,1,0_targ_10_dist_green/trial1.png,,,0,10,greenverival,a,21,20,Male,2021-02-18_19h17.07.925,exp11,2020.2.6,Win32,60,,,,,,,,,,,
,,,,,,,,,,,,,,p,1,0.63005,space,0.25104,0,166,166,19,1,0_dist_green/trial20.png,,,1,0,greenverival,p,21,20,Male,2021-02-18_19h17.07.925,exp11,2020.2.6,Win32,60,,,,,,,,,,,
,,,,,,,,,,,,,,a,1,1.086935,space,0.22896,0,167,167,123,1,0_targ_1_dist_green/trial24.png,,,0,1,greenverival,a,21,20,Male,2021-02-18_19h17.07.925,exp11,2020.2.6,Win32,60,,,,,,,,,,,
,,,,,,,,,,,,,,p,1,0.570425,space,0.20123,0,168,168,88,1,15_dist_green/trial14.png,,,1,15,greenverival,p,21,20,Male,2021-02-18_19h17.07.925,exp11,2020.2.6,Win32,60,,,,,,,,,,,
,,,,,,,,,,,,,,a,1,0.59167,space,0.224665,0,169,169,128,1,0_targ_4_dist_green/trial4.png,,,0,4,greenverival,a,21,20,Male,2021-02-18_19h17.07.925,exp11,2020.2.6,Win32,60,,,,,,,,,,,
,,,,,,,,,,,,,,a,1,0.900225,space,0.256075,0,170,170,101,1,0_targ_1_dist_green/trial2.png,,,0,1,greenverival,a,21,20,Male,2021-02-18_19h17.07.925,exp11,2020.2.6,Win32,60,,,,,,,,,,,
,,,,,,,,,,,,,,a,1,0.933025,space,0.220225,0,171,171,176,1,0_targ_16_dist_green/trial2.png,,,0,16,greenverival,a,21,20,Male,2021-02-18_19h17.07.925,exp11,2020.2.6,Win32,60,,,,,,,,,,,
,,,,,,,,,,,,,,p,1,0.665185,space,0.223535,0,172,172,42,1,3_dist_green/trial18.png,,,1,3,greenverival,p,21,20,Male,2021-02-18_19h17.07.925,exp11,2020.2.6,Win32,60,,,,,,,,,,,
,,,,,,,,,,,,,,p,1,0.701435,space,0.290115,0,173,173,75,1,15_dist_green/trial1.png,,,1,15,greenverival,p,21,20,Male,2021-02-18_19h17.07.925,exp11,2020.2.6,Win32,60,,,,,,,,,,,
,,,,,,,,,,,,,,p,1,0.594755,space,0.22124,0,174,174,65,1,9_dist_green/trial16.png,,,1,9,greenverival,p,21,20,Male,2021-02-18_19h17.07.925,exp11,2020.2.6,Win32,60,,,,,,,,,,,
,,,,,,,,,,,,,,a,1,0.841505,space,0.19859,0,175,175,181,1,0_targ_16_dist_green/trial7.png,,,0,16,greenverival,a,21,20,Male,2021-02-18_19h17.07.925,exp11,2020.2.6,Win32,60,,,,,,,,,,,
,,,,,,,,,,,,,,a,1,1.308185,space,0.20194,0,176,176,134,1,0_targ_4_dist_green/trial10.png,,,0,4,greenverival,a,21,20,Male,2021-02-18_19h17.07.925,exp11,2020.2.6,Win32,60,,,,,,,,,,,
,,,,,,,,,,,,,,p,1,0.687695,space,0.226755,0,177,177,64,1,9_dist_green/trial15.png,,,1,9,greenverival,p,21,20,Male,2021-02-18_19h17.07.925,exp11,2020.2.6,Win32,60,,,,,,,,,,,
,,,,,,,,,,,,,,a,1,0.68909,space,0.244015,0,178,178,100,1,0_targ_1_dist_green/trial1.png,,,0,1,greenverival,a,21,20,Male,2021-02-18_19h17.07.925,exp11,2020.2.6,Win32,60,,,,,,,,,,,
,,,,,,,,,,,,,,a,1,0.791425,space,0.227655,0,179,179,177,1,0_targ_16_dist_green/trial3.png,,,0,16,greenverival,a,21,20,Male,2021-02-18_19h17.07.925,exp11,2020.2.6,Win32,60,,,,,,,,,,,
,,,,,,,,,,,,,,p,1,1.03155,space,0.21317,0,180,180,49,1,3_dist_green/trial25.png,,,1,3,greenverival,p,21,20,Male,2021-02-18_19h17.07.925,exp11,2020.2.6,Win32,60,,,,,,,,,,,
,,,,,,,,,,,,,,p,1,0.50477,space,0.217775,0,181,181,63,1,9_dist_green/trial14.png,,,1,9,greenverival,p,21,20,Male,2021-02-18_19h17.07.925,exp11,2020.2.6,Win32,60,,,,,,,,,,,
,,,,,,,,,,,,,,a,1,0.70026,space,0.174885,0,182,182,145,1,0_targ_4_dist_green/trial21.png,,,0,4,greenverival,a,21,20,Male,2021-02-18_19h17.07.925,exp11,2020.2.6,Win32,60,,,,,,,,,,,
,,,,,,,,,,,,,,p,1,0.67464,space,0.20093,0,183,183,61,1,9_dist_green/trial12.png,,,1,9,greenverival,p,21,20,Male,2021-02-18_19h17.07.925,exp11,2020.2.6,Win32,60,,,,,,,,,,,
,,,,,,,,,,,,,,p,1,0.751125,space,0.193805,0,184,184,74,1,9_dist_green/trial25.png,,,1,9,greenverival,p,21,20,Male,2021-02-18_19h17.07.925,exp11,2020.2.6,Win32,60,,,,,,,,,,,
,,,,,,,,,,,,,,a,1,0.678165,space,0.24139,0,185,185,152,1,0_targ_10_dist_green/trial3.png,,,0,10,greenverival,a,21,20,Male,2021-02-18_19h17.07.925,exp11,2020.2.6,Win32,60,,,,,,,,,,,
,,,,,,,,,,,,,,a,1,0.808705,space,0.22487,0,186,186,188,1,0_targ_16_dist_green/trial14.png,,,0,16,greenverival,a,21,20,Male,2021-02-18_19h17.07.925,exp11,2020.2.6,Win32,60,,,,,,,,,,,
,,,,,,,,,,,,,,a,1,0.801745,space,0.200885,0,187,187,160,1,0_targ_10_dist_green/trial11.png,,,0,10,greenverival,a,21,20,Male,2021-02-18_19h17.07.925,exp11,2020.2.6,Win32,60,,,,,,,,,,,
,,,,,,,,,,,,,,p,1,0.83966,space,0.219735,0,188,188,95,1,15_dist_green/trial21.png,,,1,15,greenverival,p,21,20,Male,2021-02-18_19h17.07.925,exp11,2020.2.6,Win32,60,,,,,,,,,,,
,,,,,,,,,,,,,,a,1,1.206135,space,0.18159,0,189,189,187,1,0_targ_16_dist_green/trial13.png,,,0,16,greenverival,a,21,20,Male,2021-02-18_19h17.07.925,exp11,2020.2.6,Win32,60,,,,,,,,,,,
,,,,,,,,,,,,,,a,1,1.2787,space,0.259225,0,190,190,199,1,0_targ_16_dist_green/trial25.png,,,0,16,greenverival,a,21,20,Male,2021-02-18_19h17.07.925,exp11,2020.2.6,Win32,60,,,,,,,,,,,
,,,,,,,,,,,,,,p,1,0.79135,space,0.21528,0,191,191,78,1,15_dist_green/trial4.png,,,1,15,greenverival,p,21,20,Male,2021-02-18_19h17.07.925,exp11,2020.2.6,Win32,60,,,,,,,,,,,
,,,,,,,,,,,,,,a,1,1.551565,space,0.2288,0,192,192,164,1,0_targ_10_dist_green/trial15.png,,,0,10,greenverival,a,21,20,Male,2021-02-18_19h17.07.925,exp11,2020.2.6,Win32,60,,,,,,,,,,,
,,,,,,,,,,,,,,p,1,0.81883,space,0.251055,0,193,193,28,1,3_dist_green/trial4.png,,,1,3,greenverival,p,21,20,Male,2021-02-18_19h17.07.925,exp11,2020.2.6,Win32,60,,,,,,,,,,,
,,,,,,,,,,,,,,a,1,0.73003,space,0.311205,0,194,194,116,1,0_targ_1_dist_green/trial17.png,,,0,1,greenverival,a,21,20,Male,2021-02-18_19h17.07.925,exp11,2020.2.6,Win32,60,,,,,,,,,,,
,,,,,,,,,,,,,,a,1,1.23257,space,0.17176,0,195,195,189,1,0_targ_16_dist_green/trial15.png,,,0,16,greenverival,a,21,20,Male,2021-02-18_19h17.07.925,exp11,2020.2.6,Win32,60,,,,,,,,,,,
,,,,,,,,,,,,,,p,1,0.6224,space,0.24131,0,196,196,89,1,15_dist_green/trial15.png,,,1,15,greenverival,p,21,20,Male,2021-02-18_19h17.07.925,exp11,2020.2.6,Win32,60,,,,,,,,,,,
,,,,,,,,,,,,,,a,1,0.72633,space,0.28406,0,197,197,151,1,0_targ_10_dist_green/trial2.png,,,0,10,greenverival,a,21,20,Male,2021-02-18_19h17.07.925,exp11,2020.2.6,Win32,60,,,,,,,,,,,
,,,,,,,,,,,,,,p,1,0.599205,space,0.25572,0,198,198,43,1,3_dist_green/trial19.png,,,1,3,greenverival,p,21,20,Male,2021-02-18_19h17.07.925,exp11,2020.2.6,Win32,60,,,,,,,,,,,
,,,,,,,,,,,,,,a,1,2.820435,space,0.455755,0,199,199,143,1,0_targ_4_dist_green/trial19.png,,,0,4,greenverival,a,21,20,Male,2021-02-18_19h17.07.925,exp11,2020.2.6,Win32,60,,,,,,,,,,,
,,,,,,,,,,,,,,,,,,,,,,,,,,,,,,,21,20,Male,2021-02-18_19h17.07.925,exp11,2020.2.6,Win32,60,0,0,0,0,1,conGreen.xlsx,green vertical,Look for green vertical bar (target) and indicate if it is present or absent in the array. If green vertical target is present press 'p' and if absent press 'a'. Press SPACE to start.,,,
,,,,,,,,,,space,6.471595,space,2.16724,a,1,1.22516,space,0.79222,0,0,0,141,1,0_targ_4_dist_red/trial17.png,,,0,4,redHorizontal,a,21,20,Male,2021-02-18_19h17.07.925,exp11,2020.2.6,Win32,60,,,,,,,,,,,
,,,,,,,,,,,,,,p,1,0.656725,space,0.40331,0,1,1,36,1,3_dist_red/trial12.png,,,1,3,redHorizontal,p,21,20,Male,2021-02-18_19h17.07.925,exp11,2020.2.6,Win32,60,,,,,,,,,,,
,,,,,,,,,,,,,,a,1,0.857365,space,0.36408,0,2,2,122,1,0_targ_1_dist_red/trial23.png,,,0,1,redHorizontal,a,21,20,Male,2021-02-18_19h17.07.925,exp11,2020.2.6,Win32,60,,,,,,,,,,,
,,,,,,,,,,,,,,a,1,0.73455,space,0.333225,0,3,3,138,1,0_targ_4_dist_red/trial14.png,,,0,4,redHorizontal,a,21,20,Male,2021-02-18_19h17.07.925,exp11,2020.2.6,Win32,60,,,,,,,,,,,
,,,,,,,,,,,,,,a,1,0.64276,space,0.37246,0,4,4,112,1,0_targ_1_dist_red/trial13.png,,,0,1,redHorizontal,a,21,20,Male,2021-02-18_19h17.07.925,exp11,2020.2.6,Win32,60,,,,,,,,,,,
,,,,,,,,,,,,,,a,1,1.223075,space,0.26762,0,5,5,157,1,0_targ_10_dist_red/trial8.png,,,0,10,redHorizontal,a,21,20,Male,2021-02-18_19h17.07.925,exp11,2020.2.6,Win32,60,,,,,,,,,,,
,,,,,,,,,,,,,,p,1,0.57955,space,0.30622,0,6,6,40,1,3_dist_red/trial16.png,,,1,3,redHorizontal,p,21,20,Male,2021-02-18_19h17.07.925,exp11,2020.2.6,Win32,60,,,,,,,,,,,
,,,,,,,,,,,,,,p,1,0.58767,space,0.518085,0,7,7,7,1,0_dist_red/trial8.png,,,1,0,redHorizontal,p,21,20,Male,2021-02-18_19h17.07.925,exp11,2020.2.6,Win32,60,,,,,,,,,,,
,,,,,,,,,,,,,,a,1,0.72509,space,0.4287,0,8,8,179,1,0_targ_16_dist_red/trial5.png,,,0,16,redHorizontal,a,21,20,Male,2021-02-18_19h17.07.925,exp11,2020.2.6,Win32,60,,,,,,,,,,,
,,,,,,,,,,,,,,a,1,0.80631,space,0.692045,0,9,9,153,1,0_targ_10_dist_red/trial4.png,,,0,10,redHorizontal,a,21,20,Male,2021-02-18_19h17.07.925,exp11,2020.2.6,Win32,60,,,,,,,,,,,
,,,,,,,,,,,,,,p,1,1.61753,space,0.39301,0,10,10,34,1,3_dist_red/trial10.png,,,1,3,redHorizontal,p,21,20,Male,2021-02-18_19h17.07.925,exp11,2020.2.6,Win32,60,,,,,,,,,,,
,,,,,,,,,,,,,,p,1,0.538075,space,0.46943,0,11,11,31,1,3_dist_red/trial7.png,,,1,3,redHorizontal,p,21,20,Male,2021-02-18_19h17.07.925,exp11,2020.2.6,Win32,60,,,,,,,,,,,
,,,,,,,,,,,,,,p,1,0.522465,space,0.19352,0,12,12,37,1,3_dist_red/trial13.png,,,1,3,redHorizontal,p,21,20,Male,2021-02-18_19h17.07.925,exp11,2020.2.6,Win32,60,,,,,,,,,,,
,,,,,,,,,,,,,,a,1,0.627735,space,0.334545,0,13,13,154,1,0_targ_10_dist_red/trial5.png,,,0,10,redHorizontal,a,21,20,Male,2021-02-18_19h17.07.925,exp11,2020.2.6,Win32,60,,,,,,,,,,,
,,,,,,,,,,,,,,a,1,1.35158,space,0.37182,0,14,14,183,1,0_targ_16_dist_red/trial9.png,,,0,16,redHorizontal,a,21,20,Male,2021-02-18_19h17.07.925,exp11,2020.2.6,Win32,60,,,,,,,,,,,
,,,,,,,,,,,,,,p,1,0.669905,space,0.2402,0,15,15,39,1,3_dist_red/trial15.png,,,1,3,redHorizontal,p,21,20,Male,2021-02-18_19h17.07.925,exp11,2020.2.6,Win32,60,,,,,,,,,,,
,,,,,,,,,,,,,,a,1,0.838005,space,0.28666,0,16,16,185,1,0_targ_16_dist_red/trial11.png,,,0,16,redHorizontal,a,21,20,Male,2021-02-18_19h17.07.925,exp11,2020.2.6,Win32,60,,,,,,,,,,,
,,,,,,,,,,,,,,a,1,0.806605,space,0.24956,0,17,17,140,1,0_targ_4_dist_red/trial6.png,,,0,4,redHorizontal,a,21,20,Male,2021-02-18_19h17.07.925,exp11,2020.2.6,Win32,60,,,,,,,,,,,
,,,,,,,,,,,,,,a,1,0.90528,space,0.204915,0,18,18,120,1,0_targ_1_dist_red/trial21.png,,,0,1,redHorizontal,a,21,20,Male,2021-02-18_19h17.07.925,exp11,2020.2.6,Win32,60,,,,,,,,,,,
,,,,,,,,,,,,,,p,1,0.918495,space,0.189345,0,19,19,45,1,3_dist_red/trial21.png,,,1,3,redHorizontal,p,21,20,Male,2021-02-18_19h17.07.925,exp11,2020.2.6,Win32,60,,,,,,,,,,,
,,,,,,,,,,,,,,p,1,0.80684,space,0.19637,0,20,20,75,1,15_dist_red/trial1.png,,,1,15,redHorizontal,p,21,20,Male,2021-02-18_19h17.07.925,exp11,2020.2.6,Win32,60,,,,,,,,,,,
,,,,,,,,,,,,,,p,1,1.001465,space,0.19042,0,21,21,94,1,15_dist_red/trial20.png,,,1,15,redHorizontal,p,21,20,Male,2021-02-18_19h17.07.925,exp11,2020.2.6,Win32,60,,,,,,,,,,,
,,,,,,,,,,,,,,p,1,0.440335,space,0.25994,0,22,22,33,1,3_dist_red/trial9.png,,,1,3,redHorizontal,p,21,20,Male,2021-02-18_19h17.07.925,exp11,2020.2.6,Win32,60,,,,,,,,,,,
,,,,,,,,,,,,,,a,1,0.88509,space,0.22641,0,23,23,159,1,0_targ_10_dist_red/trial10.png,,,0,10,redHorizontal,a,21,20,Male,2021-02-18_19h17.07.925,exp11,2020.2.6,Win32,60,,,,,,,,,,,
,,,,,,,,,,,,,,a,1,1.12276,space,0.25191,0,24,24,167,1,0_targ_10_dist_red/trial18.png,,,0,10,redHorizontal,a,21,20,Male,2021-02-18_19h17.07.925,exp11,2020.2.6,Win32,60,,,,,,,,,,,
,,,,,,,,,,,,,,a,1,1.51379,space,0.20478,0,25,25,199,1,0_targ_16_dist_red/trial25.png,,,0,16,redHorizontal,a,21,20,Male,2021-02-18_19h17.07.925,exp11,2020.2.6,Win32,60,,,,,,,,,,,
,,,,,,,,,,,,,,p,1,1.535555,space,0.221175,0,26,26,17,1,0_dist_red/trial18.png,,,1,0,redHorizontal,p,21,20,Male,2021-02-18_19h17.07.925,exp11,2020.2.6,Win32,60,,,,,,,,,,,
,,,,,,,,,,,,,,a,1,0.73587,space,0.294845,0,27,27,143,1,0_targ_4_dist_red/trial19.png,,,0,4,redHorizontal,a,21,20,Male,2021-02-18_19h17.07.925,exp11,2020.2.6,Win32,60,,,,,,,,,,,
,,,,,,,,,,,,,,p,1,1.01746,space,0.221795,0,28,28,97,1,15_dist_red/trial23.png,,,1,15,redHorizontal,p,21,20,Male,2021-02-18_19h17.07.925,exp11,2020.2.6,Win32,60,,,,,,,,,,,
,,,,,,,,,,,,,,a,1,1.22995,space,0.209885,0,29,29,177,1,0_targ_16_dist_red/trial3.png,,,0,16,redHorizontal,a,21,20,Male,2021-02-18_19h17.07.925,exp11,2020.2.6,Win32,60,,,,,,,,,,,
,,,,,,,,,,,,,,p,1,1.077585,space,0.222425,0,30,30,30,1,3_dist_red/trial6.png,,,1,3,redHorizontal,p,21,20,Male,2021-02-18_19h17.07.925,exp11,2020.2.6,Win32,60,,,,,,,,,,,
,,,,,,,,,,,,,,p,1,0.591565,space,0.223405,0,31,31,5,1,0_dist_red/trial6.png,,,1,0,redHorizontal,p,21,20,Male,2021-02-18_19h17.07.925,exp11,2020.2.6,Win32,60,,,,,,,,,,,
,,,,,,,,,,,,,,a,1,0.705685,space,0.196485,0,32,32,106,1,0_targ_1_dist_red/trial7.png,,,0,1,redHorizontal,a,21,20,Male,2021-02-18_19h17.07.925,exp11,2020.2.6,Win32,60,,,,,,,,,,,
,,,,,,,,,,,,,,a,1,0.872245,space,0.222375,0,33,33,115,1,0_targ_1_dist_red/trial6.png,,,0,1,redHorizontal,a,21,20,Male,2021-02-18_19h17.07.925,exp11,2020.2.6,Win32,60,,,,,,,,,,,
,,,,,,,,,,,,,,p,1,0.831525,space,0.217935,0,34,34,52,1,9_dist_red/trial3.png,,,1,9,redHorizontal,p,21,20,Male,2021-02-18_19h17.07.925,exp11,2020.2.6,Win32,60,,,,,,,,,,,
,,,,,,,,,,,,,,p,1,0.504535,space,0.24586,0,35,35,1,1,0_dist_red/trial2.png,,,1,0,redHorizontal,p,21,20,Male,2021-02-18_19h17.07.925,exp11,2020.2.6,Win32,60,,,,,,,,,,,
,,,,,,,,,,,,,,a,1,2.679545,space,0.477365,0,36,36,191,1,0_targ_16_dist_red/trial17.png,,,0,16,redHorizontal,a,21,20,Male,2021-02-18_19h17.07.925,exp11,2020.2.6,Win32,60,,,,,,,,,,,
,,,,,,,,,,,,,,a,1,1.909935,space,0.338115,0,37,37,135,1,0_targ_4_dist_red/trial11.png,,,0,4,redHorizontal,a,21,20,Male,2021-02-18_19h17.07.925,exp11,2020.2.6,Win32,60,,,,,,,,,,,
,,,,,,,,,,,,,,p,1,1.06396,space,0.205115,0,38,38,82,1,15_dist_red/trial8.png,,,1,15,redHorizontal,p,21,20,Male,2021-02-18_19h17.07.925,exp11,2020.2.6,Win32,60,,,,,,,,,,,
,,,,,,,,,,,,,,a,1,0.771815,space,0.296935,0,39,39,129,1,0_targ_4_dist_red/trial5.png,,,0,4,redHorizontal,a,21,20,Male,2021-02-18_19h17.07.925,exp11,2020.2.6,Win32,60,,,,,,,,,,,
,,,,,,,,,,,,,,a,0,0.76335,space,1.252135,0,40,40,14,1,0_dist_red/trial15.png,,,1,0,redHorizontal,p,21,20,Male,2021-02-18_19h17.07.925,exp11,2020.2.6,Win32,60,,,,,,,,,,,
,,,,,,,,,,,,,,a,1,0.89023,space,0.58166,0,41,41,147,1,0_targ_4_dist_red/trial23.png,,,0,4,redHorizontal,a,21,20,Male,2021-02-18_19h17.07.925,exp11,2020.2.6,Win32,60,,,,,,,,,,,
,,,,,,,,,,,,,,a,1,0.57956,space,0.217455,0,42,42,139,1,0_targ_4_dist_red/trial15.png,,,0,4,redHorizontal,a,21,20,Male,2021-02-18_19h17.07.925,exp11,2020.2.6,Win32,60,,,,,,,,,,,
,,,,,,,,,,,,,,p,1,0.66975,space,0.24054,0,43,43,44,1,3_dist_red/trial20.png,,,1,3,redHorizontal,p,21,20,Male,2021-02-18_19h17.07.925,exp11,2020.2.6,Win32,60,,,,,,,,,,,
,,,,,,,,,,,,,,a,1,0.804255,space,0.18748,0,44,44,158,1,0_targ_10_dist_red/trial9.png,,,0,10,redHorizontal,a,21,20,Male,2021-02-18_19h17.07.925,exp11,2020.2.6,Win32,60,,,,,,,,,,,
,,,,,,,,,,,,,,p,1,0.72345,space,0.22731,0,45,45,65,1,9_dist_red/trial16.png,,,1,9,redHorizontal,p,21,20,Male,2021-02-18_19h17.07.925,exp11,2020.2.6,Win32,60,,,,,,,,,,,
,,,,,,,,,,,,,,a,1,0.739925,space,0.222375,0,46,46,162,1,0_targ_10_dist_red/trial13.png,,,0,10,redHorizontal,a,21,20,Male,2021-02-18_19h17.07.925,exp11,2020.2.6,Win32,60,,,,,,,,,,,
,,,,,,,,,,,,,,a,1,0.726665,space,0.20488,0,47,47,173,1,0_targ_10_dist_red/trial24.png,,,0,10,redHorizontal,a,21,20,Male,2021-02-18_19h17.07.925,exp11,2020.2.6,Win32,60,,,,,,,,,,,
,,,,,,,,,,,,,,p,1,0.77738,space,0.220595,0,48,48,77,1,15_dist_red/trial3.png,,,1,15,redHorizontal,p,21,20,Male,2021-02-18_19h17.07.925,exp11,2020.2.6,Win32,60,,,,,,,,,,,
,,,,,,,,,,,,,,p,1,0.894885,space,0.200905,0,49,49,84,1,15_dist_red/trial10.png,,,1,15,redHorizontal,p,21,20,Male,2021-02-18_19h17.07.925,exp11,2020.2.6,Win32,60,,,,,,,,,,,
,,,,,,,,,,,,,,p,1,0.76941,space,0.213365,0,50,50,63,1,9_dist_red/trial14.png,,,1,9,redHorizontal,p,21,20,Male,2021-02-18_19h17.07.925,exp11,2020.2.6,Win32,60,,,,,,,,,,,
,,,,,,,,,,,,,,a,1,0.8864,space,0.205305,0,51,51,182,1,0_targ_16_dist_red/trial8.png,,,0,16,redHorizontal,a,21,20,Male,2021-02-18_19h17.07.925,exp11,2020.2.6,Win32,60,,,,,,,,,,,
,,,,,,,,,,,,,,p,1,0.739285,space,0.200215,0,52,52,85,1,15_dist_red/trial11.png,,,1,15,redHorizontal,p,21,20,Male,2021-02-18_19h17.07.925,exp11,2020.2.6,Win32,60,,,,,,,,,,,
,,,,,,,,,,,,,,p,1,0.638865,space,0.184315,0,53,53,35,1,3_dist_red/trial11.png,,,1,3,redHorizontal,p,21,20,Male,2021-02-18_19h17.07.925,exp11,2020.2.6,Win32,60,,,,,,,,,,,
,,,,,,,,,,,,,,a,1,0.7211,space,0.17198,0,54,54,137,1,0_targ_4_dist_red/trial13.png,,,0,4,redHorizontal,a,21,20,Male,2021-02-18_19h17.07.925,exp11,2020.2.6,Win32,60,,,,,,,,,,,
,,,,,,,,,,,,,,a,1,0.821585,space,0.155355,0,55,55,132,1,0_targ_4_dist_red/trial8.png,,,0,4,redHorizontal,a,21,20,Male,2021-02-18_19h17.07.925,exp11,2020.2.6,Win32,60,,,,,,,,,,,
,,,,,,,,,,,,,,a,0,1.129995,space,1.001475,0,56,56,93,1,15_dist_red/trial19.png,,,1,15,redHorizontal,p,21,20,Male,2021-02-18_19h17.07.925,exp11,2020.2.6,Win32,60,,,,,,,,,,,
,,,,,,,,,,,,,,p,1,1.347415,space,0.56155,0,57,57,50,1,9_dist_red/trial1.png,,,1,9,redHorizontal,p,21,20,Male,2021-02-18_19h17.07.925,exp11,2020.2.6,Win32,60,,,,,,,,,,,
,,,,,,,,,,,,,,p,1,0.643785,space,0.209295,0,58,58,28,1,3_dist_red/trial4.png,,,1,3,redHorizontal,p,21,20,Male,2021-02-18_19h17.07.925,exp11,2020.2.6,Win32,60,,,,,,,,,,,
,,,,,,,,,,,,,,p,1,0.5636,space,0.2005,0,59,59,41,1,3_dist_red/trial17.png,,,1,3,redHorizontal,p,21,20,Male,2021-02-18_19h17.07.925,exp11,2020.2.6,Win32,60,,,,,,,,,,,
,,,,,,,,,,,,,,p,1,0.475835,space,0.174335,0,60,60,20,1,0_dist_red/trial21.png,,,1,0,redHorizontal,p,21,20,Male,2021-02-18_19h17.07.925,exp11,2020.2.6,Win32,60,,,,,,,,,,,
,,,,,,,,,,,,,,a,1,0.457395,space,0.154735,0,61,61,101,1,0_targ_1_dist_red/trial2.png,,,0,1,redHorizontal,a,21,20,Male,2021-02-18_19h17.07.925,exp11,2020.2.6,Win32,60,,,,,,,,,,,
,,,,,,,,,,,,,,p,1,0.534635,space,0.19384,0,62,62,71,1,9_dist_red/trial22.png,,,1,9,redHorizontal,p,21,20,Male,2021-02-18_19h17.07.925,exp11,2020.2.6,Win32,60,,,,,,,,,,,
,,,,,,,,,,,,,,a,1,0.61214,space,0.16162,0,63,63,133,1,0_targ_4_dist_red/trial9.png,,,0,4,redHorizontal,a,21,20,Male,2021-02-18_19h17.07.925,exp11,2020.2.6,Win32,60,,,,,,,,,,,
,,,,,,,,,,,,,,p,1,0.55246,space,0.188825,0,64,64,61,1,9_dist_red/trial12.png,,,1,9,redHorizontal,p,21,20,Male,2021-02-18_19h17.07.925,exp11,2020.2.6,Win32,60,,,,,,,,,,,
,,,,,,,,,,,,,,p,1,0.4828,space,0.20068,0,65,65,86,1,15_dist_red/trial12.png,,,1,15,redHorizontal,p,21,20,Male,2021-02-18_19h17.07.925,exp11,2020.2.6,Win32,60,,,,,,,,,,,
,,,,,,,,,,,,,,p,1,0.82815,space,0.167775,0,66,66,55,1,9_dist_red/trial6.png,,,1,9,redHorizontal,p,21,20,Male,2021-02-18_19h17.07.925,exp11,2020.2.6,Win32,60,,,,,,,,,,,
,,,,,,,,,,,,,,p,1,0.48753,space,0.18901,0,67,67,19,1,0_dist_red/trial20.png,,,1,0,redHorizontal,p,21,20,Male,2021-02-18_19h17.07.925,exp11,2020.2.6,Win32,60,,,,,,,,,,,
,,,,,,,,,,,,,,p,1,0.749845,space,0.14715,0,68,68,51,1,9_dist_red/trial2.png,,,1,9,redHorizontal,p,21,20,Male,2021-02-18_19h17.07.925,exp11,2020.2.6,Win32,60,,,,,,,,,,,
,,,,,,,,,,,,,,p,1,0.454055,space,0.17567,0,69,69,13,1,0_dist_red/trial14.png,,,1,0,redHorizontal,p,21,20,Male,2021-02-18_19h17.07.925,exp11,2020.2.6,Win32,60,,,,,,,,,,,
,,,,,,,,,,,,,,a,1,0.72139,space,0.214,0,70,70,131,1,0_targ_4_dist_red/trial7.png,,,0,4,redHorizontal,a,21,20,Male,2021-02-18_19h17.07.925,exp11,2020.2.6,Win32,60,,,,,,,,,,,
,,,,,,,,,,,,,,a,1,0.75661,space,0.155585,0,71,71,121,1,0_targ_1_dist_red/trial22.png,,,0,1,redHorizontal,a,21,20,Male,2021-02-18_19h17.07.925,exp11,2020.2.6,Win32,60,,,,,,,,,,,
,,,,,,,,,,,,,,p,1,0.54062,space,0.164535,0,72,72,62,1,9_dist_red/trial13.png,,,1,9,redHorizontal,p,21,20,Male,2021-02-18_19h17.07.925,exp11,2020.2.6,Win32,60,,,,,,,,,,,
,,,,,,,,,,,,,,a,1,1.170335,space,0.152965,0,73,73,164,1,0_targ_10_dist_red/trial15.png,,,0,10,redHorizontal,a,21,20,Male,2021-02-18_19h17.07.925,exp11,2020.2.6,Win32,60,,,,,,,,,,,
,,,,,,,,,,,,,,p,0,0.76186,space,2.47126,0,74,74,119,1,0_targ_1_dist_red/trial20.png,,,0,1,redHorizontal,a,21,20,Male,2021-02-18_19h17.07.925,exp11,2020.2.6,Win32,60,,,,,,,,,,,
,,,,,,,,,,,,,,a,1,1.02047,space,0.197625,0,75,75,170,1,0_targ_10_dist_red/trial21.png,,,0,10,redHorizontal,a,21,20,Male,2021-02-18_19h17.07.925,exp11,2020.2.6,Win32,60,,,,,,,,,,,
,,,,,,,,,,,,,,a,1,0.88015,space,0.208245,0,76,76,194,1,0_targ_16_dist_red/trial20.png,,,0,16,redHorizontal,a,21,20,Male,2021-02-18_19h17.07.925,exp11,2020.2.6,Win32,60,,,,,,,,,,,
,,,,,,,,,,,,,,a,1,0.612585,space,0.24052,0,77,77,198,1,0_targ_16_dist_red/trial24.png,,,0,16,redHorizontal,a,21,20,Male,2021-02-18_19h17.07.925,exp11,2020.2.6,Win32,60,,,,,,,,,,,
,,,,,,,,,,,,,,a,1,1.31428,space,0.22722,0,78,78,105,1,0_targ_1_dist_red/trial6.png,,,0,1,redHorizontal,a,21,20,Male,2021-02-18_19h17.07.925,exp11,2020.2.6,Win32,60,,,,,,,,,,,
,,,,,,,,,,,,,,p,1,0.650525,space,0.252865,0,79,79,10,1,0_dist_red/trial11.png,,,1,0,redHorizontal,p,21,20,Male,2021-02-18_19h17.07.925,exp11,2020.2.6,Win32,60,,,,,,,,,,,
,,,,,,,,,,,,,,a,1,0.571535,space,0.27752,0,80,80,102,1,0_targ_1_dist_red/trial3.png,,,0,1,redHorizontal,a,21,20,Male,2021-02-18_19h17.07.925,exp11,2020.2.6,Win32,60,,,,,,,,,,,
,,,,,,,,,,,,,,a,1,1.397285,space,0.265855,0,81,81,176,1,0_targ_16_dist_red/trial2.png,,,0,16,redHorizontal,a,21,20,Male,2021-02-18_19h17.07.925,exp11,2020.2.6,Win32,60,,,,,,,,,,,
,,,,,,,,,,,,,,a,0,0.74254,space,1.676075,0,82,82,79,1,15_dist_red/trial5.png,,,1,15,redHorizontal,p,21,20,Male,2021-02-18_19h17.07.925,exp11,2020.2.6,Win32,60,,,,,,,,,,,
,,,,,,,,,,,,,,p,1,0.663785,space,0.328345,0,83,83,43,1,3_dist_red/trial19.png,,,1,3,redHorizontal,p,21,20,Male,2021-02-18_19h17.07.925,exp11,2020.2.6,Win32,60,,,,,,,,,,,
,,,,,,,,,,,,,,a,1,1.331145,space,0.287205,0,84,84,110,1,0_targ_1_dist_red/trial11.png,,,0,1,redHorizontal,a,21,20,Male,2021-02-18_19h17.07.925,exp11,2020.2.6,Win32,60,,,,,,,,,,,
,,,,,,,,,,,,,,p,1,0.65941,space,0.277245,0,85,85,53,1,9_dist_red/trial4.png,,,1,9,redHorizontal,p,21,20,Male,2021-02-18_19h17.07.925,exp11,2020.2.6,Win32,60,,,,,,,,,,,
,,,,,,,,,,,,,,p,1,0.614965,space,0.321875,0,86,86,12,1,0_dist_red/trial13.png,,,1,0,redHorizontal,p,21,20,Male,2021-02-18_19h17.07.925,exp11,2020.2.6,Win32,60,,,,,,,,,,,
,,,,,,,,,,,,,,p,1,0.550505,space,0.24053,0,87,87,23,1,0_dist_red/trial24.png,,,1,0,redHorizontal,p,21,20,Male,2021-02-18_19h17.07.925,exp11,2020.2.6,Win32,60,,,,,,,,,,,
,,,,,,,,,,,,,,p,1,0.46921,space,0.28837,0,88,88,11,1,0_dist_red/trial12.png,,,1,0,redHorizontal,p,21,20,Male,2021-02-18_19h17.07.925,exp11,2020.2.6,Win32,60,,,,,,,,,,,
,,,,,,,,,,,,,,a,1,0.731,space,0.22724,0,89,89,144,1,0_targ_4_dist_red/trial20.png,,,0,4,redHorizontal,a,21,20,Male,2021-02-18_19h17.07.925,exp11,2020.2.6,Win32,60,,,,,,,,,,,
,,,,,,,,,,,,,,a,1,0.671355,space,0.268715,0,90,90,113,1,0_targ_1_dist_red/trial14.png,,,0,1,redHorizontal,a,21,20,Male,2021-02-18_19h17.07.925,exp11,2020.2.6,Win32,60,,,,,,,,,,,
,,,,,,,,,,,,,,a,1,0.89077,space,0.239235,0,91,91,169,1,0_targ_10_dist_red/trial20.png,,,0,10,redHorizontal,a,21,20,Male,2021-02-18_19h17.07.925,exp11,2020.2.6,Win32,60,,,,,,,,,,,
,,,,,,,,,,,,,,p,1,0.610445,space,0.23131,0,92,92,90,1,15_dist_red/trial16.png,,,1,15,redHorizontal,p,21,20,Male,2021-02-18_19h17.07.925,exp11,2020.2.6,Win32,60,,,,,,,,,,,
,,,,,,,,,,,,,,a,1,0.81475,space,0.25436,0,93,93,124,1,0_targ_1_dist_red/trial25.png,,,0,1,redHorizontal,a,21,20,Male,2021-02-18_19h17.07.925,exp11,2020.2.6,Win32,60,,,,,,,,,,,
,,,,,,,,,,,,,,p,1,0.52998,space,0.267615,0,94,94,38,1,3_dist_red/trial14.png,,,1,3,redHorizontal,p,21,20,Male,2021-02-18_19h17.07.925,exp11,2020.2.6,Win32,60,,,,,,,,,,,
,,,,,,,,,,,,,,p,1,0.82508,space,0.278925,0,95,95,56,1,9_dist_red/trial7.png,,,1,9,redHorizontal,p,21,20,Male,2021-02-18_19h17.07.925,exp11,2020.2.6,Win32,60,,,,,,,,,,,
,,,,,,,,,,,,,,a,1,0.58145,space,0.545275,0,96,96,136,1,0_targ_4_dist_red/trial12.png,,,0,4,redHorizontal,a,21,20,Male,2021-02-18_19h17.07.925,exp11,2020.2.6,Win32,60,,,,,,,,,,,
,,,,,,,,,,,,,,p,1,0.53665,space,0.293445,0,97,97,9,1,0_dist_red/trial10.png,,,1,0,redHorizontal,p,21,20,Male,2021-02-18_19h17.07.925,exp11,2020.2.6,Win32,60,,,,,,,,,,,
,,,,,,,,,,,,,,a,1,1.144715,space,0.235805,0,98,98,187,1,0_targ_16_dist_red/trial13.png,,,0,16,redHorizontal,a,21,20,Male,2021-02-18_19h17.07.925,exp11,2020.2.6,Win32,60,,,,,,,,,,,
,,,,,,,,,,,,,,a,1,0.838735,space,0.26811,0,99,99,125,1,0_targ_4_dist_red/trial1.png,,,0,4,redHorizontal,a,21,20,Male,2021-02-18_19h17.07.925,exp11,2020.2.6,Win32,60,,,,,,,,,,,
,,,,,,,,,,,,,,a,1,1.14245,space,0.31924,0,100,100,180,1,0_targ_16_dist_red/trial6.png,,,0,16,redHorizontal,a,21,20,Male,2021-02-18_19h17.07.925,exp11,2020.2.6,Win32,60,,,,,,,,,,,
,,,,,,,,,,,,,,p,1,0.515665,space,0.25318,0,101,101,6,1,0_dist_red/trial7.png,,,1,0,redHorizontal,p,21,20,Male,2021-02-18_19h17.07.925,exp11,2020.2.6,Win32,60,,,,,,,,,,,
,,,,,,,,,,,,,,a,1,0.5821,space,0.472845,0,102,102,107,1,0_targ_1_dist_red/trial8.png,,,0,1,redHorizontal,a,21,20,Male,2021-02-18_19h17.07.925,exp11,2020.2.6,Win32,60,,,,,,,,,,,
,,,,,,,,,,,,,,p,1,1.32547,space,0.209915,0,103,103,54,1,9_dist_red/trial5.png,,,1,9,redHorizontal,p,21,20,Male,2021-02-18_19h17.07.925,exp11,2020.2.6,Win32,60,,,,,,,,,,,
,,,,,,,,,,,,,,a,0,0.734835,space,1.464065,0,104,104,26,1,3_dist_red/trial2.png,,,1,3,redHorizontal,p,21,20,Male,2021-02-18_19h17.07.925,exp11,2020.2.6,Win32,60,,,,,,,,,,,
,,,,,,,,,,,,,,a,1,1.256865,space,0.213125,0,105,105,150,1,0_targ_10_dist_red/trial1.png,,,0,10,redHorizontal,a,21,20,Male,2021-02-18_19h17.07.925,exp11,2020.2.6,Win32,60,,,,,,,,,,,
,,,,,,,,,,,,,,a,1,0.8027,space,0.187495,0,106,106,142,1,0_targ_4_dist_red/trial18.png,,,0,4,redHorizontal,a,21,20,Male,2021-02-18_19h17.07.925,exp11,2020.2.6,Win32,60,,,,,,,,,,,
,,,,,,,,,,,,,,p,1,0.634095,space,0.150835,0,107,107,89,1,15_dist_red/trial15.png,,,1,15,redHorizontal,p,21,20,Male,2021-02-18_19h17.07.925,exp11,2020.2.6,Win32,60,,,,,,,,,,,
,,,,,,,,,,,,,,a,0,1.1515,space,0.15113,0,108,108,96,1,15_dist_red/trial22.png,,,1,15,redHorizontal,p,21,20,Male,2021-02-18_19h17.07.925,exp11,2020.2.6,Win32,60,,,,,,,,,,,
,,,,,,,,,,,,,,a,1,1.49354,space,0.20062,0,109,109,165,1,0_targ_10_dist_red/trial16.png,,,0,10,redHorizontal,a,21,20,Male,2021-02-18_19h17.07.925,exp11,2020.2.6,Win32,60,,,,,,,,,,,
,,,,,,,,,,,,,,p,0,1.04395,space,0.90653,0,110,110,146,1,0_targ_4_dist_red/trial22.png,,,0,4,redHorizontal,a,21,20,Male,2021-02-18_19h17.07.925,exp11,2020.2.6,Win32,60,,,,,,,,,,,
,,,,,,,,,,,,,,a,0,0.49624,space,0.572155,0,111,111,47,1,3_dist_red/trial23.png,,,1,3,redHorizontal,p,21,20,Male,2021-02-18_19h17.07.925,exp11,2020.2.6,Win32,60,,,,,,,,,,,
,,,,,,,,,,,,,,a,1,0.611085,space,0.174465,0,112,112,103,1,0_targ_1_dist_red/trial4.png,,,0,1,redHorizontal,a,21,20,Male,2021-02-18_19h17.07.925,exp11,2020.2.6,Win32,60,,,,,,,,,,,
,,,,,,,,,,,,,,a,1,0.598945,space,0.19075,0,113,113,149,1,0_targ_4_dist_red/trial25.png,,,0,4,redHorizontal,a,21,20,Male,2021-02-18_19h17.07.925,exp11,2020.2.6,Win32,60,,,,,,,,,,,
,,,,,,,,,,,,,,p,1,0.61664,space,0.18542,0,114,114,60,1,9_dist_red/trial11.png,,,1,9,redHorizontal,p,21,20,Male,2021-02-18_19h17.07.925,exp11,2020.2.6,Win32,60,,,,,,,,,,,
,,,,,,,,,,,,,,p,1,1.169145,space,0.17349,0,115,115,95,1,15_dist_red/trial21.png,,,1,15,redHorizontal,p,21,20,Male,2021-02-18_19h17.07.925,exp11,2020.2.6,Win32,60,,,,,,,,,,,
,,,,,,,,,,,,,,p,1,0.60163,space,0.238535,0,116,116,21,1,0_dist_red/trial22.png,,,1,0,redHorizontal,p,21,20,Male,2021-02-18_19h17.07.925,exp11,2020.2.6,Win32,60,,,,,,,,,,,
,,,,,,,,,,,,,,a,1,0.85893,space,0.622955,0,117,117,193,1,0_targ_16_dist_red/trial19.png,,,0,16,redHorizontal,a,21,20,Male,2021-02-18_19h17.07.925,exp11,2020.2.6,Win32,60,,,,,,,,,,,
,,,,,,,,,,,,,,p,1,0.617975,space,0.20661,0,118,118,83,1,15_dist_red/trial9.png,,,1,15,redHorizontal,p,21,20,Male,2021-02-18_19h17.07.925,exp11,2020.2.6,Win32,60,,,,,,,,,,,
,,,,,,,,,,,,,,p,1,0.712895,space,0.23598,0,119,119,99,1,15_dist_red/trial25.png,,,1,15,redHorizontal,p,21,20,Male,2021-02-18_19h17.07.925,exp11,2020.2.6,Win32,60,,,,,,,,,,,
,,,,,,,,,,,,,,a,1,0.72479,space,0.23504,0,120,120,168,1,0_targ_10_dist_red/trial19.png,,,0,10,redHorizontal,a,21,20,Male,2021-02-18_19h17.07.925,exp11,2020.2.6,Win32,60,,,,,,,,,,,
,,,,,,,,,,,,,,a,1,0.70735,space,0.258165,0,121,121,171,1,0_targ_10_dist_red/trial22.png,,,0,10,redHorizontal,a,21,20,Male,2021-02-18_19h17.07.925,exp11,2020.2.6,Win32,60,,,,,,,,,,,
,,,,,,,,,,,,,,a,1,1.515375,space,0.30926,0,122,122,117,1,0_targ_1_dist_red/trial18.png,,,0,1,redHorizontal,a,21,20,Male,2021-02-18_19h17.07.925,exp11,2020.2.6,Win32,60,,,,,,,,,,,
,,,,,,,,,,,,,,a,1,0.588965,space,0.32741,0,123,123,114,1,0_targ_1_dist_red/trial15.png,,,0,1,redHorizontal,a,21,20,Male,2021-02-18_19h17.07.925,exp11,2020.2.6,Win32,60,,,,,,,,,,,
,,,,,,,,,,,,,,a,1,1.252285,space,0.321245,0,124,124,186,1,0_targ_16_dist_red/trial12.png,,,0,16,redHorizontal,a,21,20,Male,2021-02-18_19h17.07.925,exp11,2020.2.6,Win32,60,,,,,,,,,,,
,,,,,,,,,,,,,,a,1,0.70195,space,0.30344,0,125,125,127,1,0_targ_4_dist_red/trial3.png,,,0,4,redHorizontal,a,21,20,Male,2021-02-18_19h17.07.925,exp11,2020.2.6,Win32,60,,,,,,,,,,,
,,,,,,,,,,,,,,p,1,0.799805,space,0.266855,0,126,126,98,1,15_dist_red/trial24.png,,,1,15,redHorizontal,p,21,20,Male,2021-02-18_19h17.07.925,exp11,2020.2.6,Win32,60,,,,,,,,,,,
,,,,,,,,,,,,,,a,1,0.532965,space,0.23908,0,127,127,109,1,0_targ_1_dist_red/trial10.png,,,0,1,redHorizontal,a,21,20,Male,2021-02-18_19h17.07.925,exp11,2020.2.6,Win32,60,,,,,,,,,,,
,,,,,,,,,,,,,,a,1,0.56904,space,0.250955,0,128,128,130,1,0_targ_4_dist_red/trial6.png,,,0,4,redHorizontal,a,21,20,Male,2021-02-18_19h17.07.925,exp11,2020.2.6,Win32,60,,,,,,,,,,,
,,,,,,,,,,,,,,p,1,0.59904,space,0.242705,0,129,129,88,1,15_dist_red/trial14.png,,,1,15,redHorizontal,p,21,20,Male,2021-02-18_19h17.07.925,exp11,2020.2.6,Win32,60,,,,,,,,,,,
,,,,,,,,,,,,,,a,1,0.596315,space,0.251885,0,130,130,116,1,0_targ_1_dist_red/trial17.png,,,0,1,redHorizontal,a,21,20,Male,2021-02-18_19h17.07.925,exp11,2020.2.6,Win32,60,,,,,,,,,,,
,,,,,,,,,,,,,,a,1,1.125285,space,0.323365,0,131,131,161,1,0_targ_10_dist_red/trial12.png,,,0,10,redHorizontal,a,21,20,Male,2021-02-18_19h17.07.925,exp11,2020.2.6,Win32,60,,,,,,,,,,,
,,,,,,,,,,,,,,p,1,0.95755,space,0.20723,0,132,132,80,1,15_dist_red/trial6.png,,,1,15,redHorizontal,p,21,20,Male,2021-02-18_19h17.07.925,exp11,2020.2.6,Win32,60,,,,,,,,,,,
,,,,,,,,,,,,,,p,1,0.589055,space,0.22342,0,133,133,87,1,15_dist_red/trial13.png,,,1,15,redHorizontal,p,21,20,Male,2021-02-18_19h17.07.925,exp11,2020.2.6,Win32,60,,,,,,,,,,,
,,,,,,,,,,,,,,p,1,0.48412,space,0.269215,0,134,134,91,1,15_dist_red/trial17.png,,,1,15,redHorizontal,p,21,20,Male,2021-02-18_19h17.07.925,exp11,2020.2.6,Win32,60,,,,,,,,,,,
,,,,,,,,,,,,,,p,1,0.538185,space,0.30715,0,135,135,78,1,15_dist_red/trial4.png,,,1,15,redHorizontal,p,21,20,Male,2021-02-18_19h17.07.925,exp11,2020.2.6,Win32,60,,,,,,,,,,,
,,,,,,,,,,,,,,a,1,1.10533,space,0.34366,0,136,136,155,1,0_targ_10_dist_red/trial6.png,,,0,10,redHorizontal,a,21,20,Male,2021-02-18_19h17.07.925,exp11,2020.2.6,Win32,60,,,,,,,,,,,
,,,,,,,,,,,,,,p,1,0.597555,space,0.284975,0,137,137,32,1,3_dist_red/trial8.png,,,1,3,redHorizontal,p,21,20,Male,2021-02-18_19h17.07.925,exp11,2020.2.6,Win32,60,,,,,,,,,,,
,,,,,,,,,,,,,,a,1,0.86174,space,0.25725,0,138,138,184,1,0_targ_16_dist_red/trial10.png,,,0,16,redHorizontal,a,21,20,Male,2021-02-18_19h17.07.925,exp11,2020.2.6,Win32,60,,,,,,,,,,,
,,,,,,,,,,,,,,a,1,0.9727,space,0.223185,0,139,139,108,1,0_targ_1_dist_red/trial9.png,,,0,1,redHorizontal,a,21,20,Male,2021-02-18_19h17.07.925,exp11,2020.2.6,Win32,60,,,,,,,,,,,
,,,,,,,,,,,,,,p,1,0.69162,space,0.221555,0,140,140,2,1,0_dist_red/trial3.png,,,1,0,redHorizontal,p,21,20,Male,2021-02-18_19h17.07.925,exp11,2020.2.6,Win32,60,,,,,,,,,,,
,,,,,,,,,,,,,,p,1,0.818185,space,0.22162,0,141,141,29,1,3_dist_red/trial5.png,,,1,3,redHorizontal,p,21,20,Male,2021-02-18_19h17.07.925,exp11,2020.2.6,Win32,60,,,,,,,,,,,
,,,,,,,,,,,,,,p,1,0.63185,space,0.22026,0,142,142,66,1,9_dist_red/trial17.png,,,1,9,redHorizontal,p,21,20,Male,2021-02-18_19h17.07.925,exp11,2020.2.6,Win32,60,,,,,,,,,,,
,,,,,,,,,,,,,,a,1,0.78634,space,0.18831,0,143,143,178,1,0_targ_16_dist_red/trial4.png,,,0,16,redHorizontal,a,21,20,Male,2021-02-18_19h17.07.925,exp11,2020.2.6,Win32,60,,,,,,,,,,,
,,,,,,,,,,,,,,p,1,0.62742,space,0.237155,0,144,144,42,1,3_dist_red/trial18.png,,,1,3,redHorizontal,p,21,20,Male,2021-02-18_19h17.07.925,exp11,2020.2.6,Win32,60,,,,,,,,,,,
,,,,,,,,,,,,,,p,1,0.984835,space,0.202535,0,145,145,3,1,0_dist_red/trial4.png,,,1,0,redHorizontal,p,21,20,Male,2021-02-18_19h17.07.925,exp11,2020.2.6,Win32,60,,,,,,,,,,,
,,,,,,,,,,,,,,a,0,0.976155,space,0.02707,0,146,146,59,1,9_dist_red/trial10.png,,,1,9,redHorizontal,p,21,20,Male,2021-02-18_19h17.07.925,exp11,2020.2.6,Win32,60,,,,,,,,,,,
,,,,,,,,,,,,,,a,1,0.77793,space,0.334175,0,147,147,152,1,0_targ_10_dist_red/trial3.png,,,0,10,redHorizontal,a,21,20,Male,2021-02-18_19h17.07.925,exp11,2020.2.6,Win32,60,,,,,,,,,,,
,,,,,,,,,,,,,,p,1,0.712265,space,0.178475,0,148,148,70,1,9_dist_red/trial21.png,,,1,9,redHorizontal,p,21,20,Male,2021-02-18_19h17.07.925,exp11,2020.2.6,Win32,60,,,,,,,,,,,
,,,,,,,,,,,,,,a,1,0.884075,space,0.1883,0,149,149,197,1,0_targ_16_dist_red/trial23.png,,,0,16,redHorizontal,a,21,20,Male,2021-02-18_19h17.07.925,exp11,2020.2.6,Win32,60,,,,,,,,,,,
,,,,,,,,,,,,,,a,1,0.98213,space,0.188275,0,150,150,181,1,0_targ_16_dist_red/trial7.png,,,0,16,redHorizontal,a,21,20,Male,2021-02-18_19h17.07.925,exp11,2020.2.6,Win32,60,,,,,,,,,,,
,,,,,,,,,,,,,,p,1,0.75534,space,0.17497,0,151,151,92,1,15_dist_red/trial18.png,,,1,15,redHorizontal,p,21,20,Male,2021-02-18_19h17.07.925,exp11,2020.2.6,Win32,60,,,,,,,,,,,
,,,,,,,,,,,,,,p,1,2.993925,space,0.193395,0,152,152,15,1,0_dist_red/trial16.png,,,1,0,redHorizontal,p,21,20,Male,2021-02-18_19h17.07.925,exp11,2020.2.6,Win32,60,,,,,,,,,,,
,,,,,,,,,,,,,,p,1,0.67474,space,0.325305,0,153,153,57,1,9_dist_red/trial8.png,,,1,9,redHorizontal,p,21,20,Male,2021-02-18_19h17.07.925,exp11,2020.2.6,Win32,60,,,,,,,,,,,
,,,,,,,,,,,,,,p,1,0.47505,space,0.17238,0,154,154,8,1,0_dist_red/trial9.png,,,1,0,redHorizontal,p,21,20,Male,2021-02-18_19h17.07.925,exp11,2020.2.6,Win32,60,,,,,,,,,,,
,,,,,,,,,,,,,,p,1,0.57791,space,0.196055,0,155,155,27,1,3_dist_red/trial3.png,,,1,3,redHorizontal,p,21,20,Male,2021-02-18_19h17.07.925,exp11,2020.2.6,Win32,60,,,,,,,,,,,
,,,,,,,,,,,,,,a,1,0.659905,space,0.245135,0,156,156,189,1,0_targ_16_dist_red/trial15.png,,,0,16,redHorizontal,a,21,20,Male,2021-02-18_19h17.07.925,exp11,2020.2.6,Win32,60,,,,,,,,,,,
,,,,,,,,,,,,,,p,1,0.69286,space,0.20397,0,157,157,67,1,9_dist_red/trial18.png,,,1,9,redHorizontal,p,21,20,Male,2021-02-18_19h17.07.925,exp11,2020.2.6,Win32,60,,,,,,,,,,,
,,,,,,,,,,,,,,p,1,0.59945,space,0.223065,0,158,158,58,1,9_dist_red/trial9.png,,,1,9,redHorizontal,p,21,20,Male,2021-02-18_19h17.07.925,exp11,2020.2.6,Win32,60,,,,,,,,,,,
,,,,,,,,,,,,,,p,1,0.553445,space,0.194075,0,159,159,16,1,0_dist_red/trial17.png,,,1,0,redHorizontal,p,21,20,Male,2021-02-18_19h17.07.925,exp11,2020.2.6,Win32,60,,,,,,,,,,,
,,,,,,,,,,,,,,p,1,0.61238,space,0.192275,0,160,160,81,1,15_dist_red/trial7.png,,,1,15,redHorizontal,p,21,20,Male,2021-02-18_19h17.07.925,exp11,2020.2.6,Win32,60,,,,,,,,,,,
,,,,,,,,,,,,,,a,1,0.60507,space,0.28786,0,161,161,148,1,0_targ_4_dist_red/trial24.png,,,0,4,redHorizontal,a,21,20,Male,2021-02-18_19h17.07.925,exp11,2020.2.6,Win32,60,,,,,,,,,,,
,,,,,,,,,,,,,,a,1,0.66271,space,0.234555,0,162,162,160,1,0_targ_10_dist_red/trial11.png,,,0,10,redHorizontal,a,21,20,Male,2021-02-18_19h17.07.925,exp11,2020.2.6,Win32,60,,,,,,,,,,,
,,,,,,,,,,,,,,a,1,0.578055,space,0.418385,0,163,163,111,1,0_targ_1_dist_red/trial12.png,,,0,1,redHorizontal,a,21,20,Male,2021-02-18_19h17.07.925,exp11,2020.2.6,Win32,60,,,,,,,,,,,
,,,,,,,,,,,,,,p,1,0.624005,space,0.196475,0,164,164,64,1,9_dist_red/trial15.png,,,1,9,redHorizontal,p,21,20,Male,2021-02-18_19h17.07.925,exp11,2020.2.6,Win32,60,,,,,,,,,,,
,,,,,,,,,,,,,,p,1,0.617765,space,0.220835,0,165,165,69,1,9_dist_red/trial20.png,,,1,9,redHorizontal,p,21,20,Male,2021-02-18_19h17.07.925,exp11,2020.2.6,Win32,60,,,,,,,,,,,
,,,,,,,,,,,,,,p,1,0.85507,space,0.206085,0,166,166,73,1,9_dist_red/trial24.png,,,1,9,redHorizontal,p,21,20,Male,2021-02-18_19h17.07.925,exp11,2020.2.6,Win32,60,,,,,,,,,,,
,,,,,,,,,,,,,,a,1,0.859255,space,0.136755,0,167,167,166,1,0_targ_10_dist_red/trial17.png,,,0,10,redHorizontal,a,21,20,Male,2021-02-18_19h17.07.925,exp11,2020.2.6,Win32,60,,,,,,,,,,,
,,,,,,,,,,,,,,a,1,0.99021,space,0.16746,0,168,168,192,1,0_targ_16_dist_red/trial18.png,,,0,16,redHorizontal,a,21,20,Male,2021-02-18_19h17.07.925,exp11,2020.2.6,Win32,60,,,,,,,,,,,
,,,,,,,,,,,,,,p,1,0.89748,space,0.174615,0,169,169,4,1,0_dist_red/trial5.png,,,1,0,redHorizontal,p,21,20,Male,2021-02-18_19h17.07.925,exp11,2020.2.6,Win32,60,,,,,,,,,,,
,,,,,,,,,,,,,,p,1,0.731885,space,0.23983,0,170,170,48,1,3_dist_red/trial24.png,,,1,3,redHorizontal,p,21,20,Male,2021-02-18_19h17.07.925,exp11,2020.2.6,Win32,60,,,,,,,,,,,
,,,,,,,,,,,,,,a,1,1.556395,space,0.192235,0,171,171,128,1,0_targ_4_dist_red/trial4.png,,,0,4,redHorizontal,a,21,20,Male,2021-02-18_19h17.07.925,exp11,2020.2.6,Win32,60,,,,,,,,,,,
,,,,,,,,,,,,,,p,1,0.616405,space,0.26127,0,172,172,46,1,3_dist_red/trial22.png,,,1,3,redHorizontal,p,21,20,Male,2021-02-18_19h17.07.925,exp11,2020.2.6,Win32,60,,,,,,,,,,,
,,,,,,,,,,,,,,a,1,0.834375,space,0.217505,0,173,173,174,1,0_targ_10_dist_red/trial25.png,,,0,10,redHorizontal,a,21,20,Male,2021-02-18_19h17.07.925,exp11,2020.2.6,Win32,60,,,,,,,,,,,
,,,,,,,,,,,,,,a,1,0.68824,space,0.191155,0,174,174,118,1,0_targ_1_dist_red/trial19.png,,,0,1,redHorizontal,a,21,20,Male,2021-02-18_19h17.07.925,exp11,2020.2.6,Win32,60,,,,,,,,,,,
,,,,,,,,,,,,,,a,1,0.558155,space,0.19666,0,175,175,134,1,0_targ_4_dist_red/trial10.png,,,0,4,redHorizontal,a,21,20,Male,2021-02-18_19h17.07.925,exp11,2020.2.6,Win32,60,,,,,,,,,,,
,,,,,,,,,,,,,,a,1,0.91374,space,0.170065,0,176,176,145,1,0_targ_4_dist_red/trial21.png,,,0,4,redHorizontal,a,21,20,Male,2021-02-18_19h17.07.925,exp11,2020.2.6,Win32,60,,,,,,,,,,,
,,,,,,,,,,,,,,p,1,0.870675,space,0.17786,0,177,177,74,1,9_dist_red/trial25.png,,,1,9,redHorizontal,p,21,20,Male,2021-02-18_19h17.07.925,exp11,2020.2.6,Win32,60,,,,,,,,,,,
,,,,,,,,,,,,,,a,1,1.81492,space,0.208765,0,178,178,196,1,0_targ_16_dist_red/trial22.png,,,0,16,redHorizontal,a,21,20,Male,2021-02-18_19h17.07.925,exp11,2020.2.6,Win32,60,,,,,,,,,,,
,,,,,,,,,,,,,,p,1,0.79012,space,0.230805,0,179,179,0,1,0_dist_red/trial1.png,,,1,0,redHorizontal,p,21,20,Male,2021-02-18_19h17.07.925,exp11,2020.2.6,Win32,60,,,,,,,,,,,
,,,,,,,,,,,,,,a,1,1.480395,space,0.409655,0,180,180,156,1,0_targ_10_dist_red/trial7.png,,,0,10,redHorizontal,a,21,20,Male,2021-02-18_19h17.07.925,exp11,2020.2.6,Win32,60,,,,,,,,,,,
,,,,,,,,,,,,,,a,1,1.382675,space,0.26837,0,181,181,151,1,0_targ_10_dist_red/trial2.png,,,0,10,redHorizontal,a,21,20,Male,2021-02-18_19h17.07.925,exp11,2020.2.6,Win32,60,,,,,,,,,,,
,,,,,,,,,,,,,,p,1,0.55552,space,0.185375,0,182,182,18,1,0_dist_red/trial19.png,,,1,0,redHorizontal,p,21,20,Male,2021-02-18_19h17.07.925,exp11,2020.2.6,Win32,60,,,,,,,,,,,
,,,,,,,,,,,,,,p,1,0.55268,space,0.200255,0,183,183,24,1,0_dist_red/trial25.png,,,1,0,redHorizontal,p,21,20,Male,2021-02-18_19h17.07.925,exp11,2020.2.6,Win32,60,,,,,,,,,,,
,,,,,,,,,,,,,,p,1,1.007045,space,0.129975,0,184,184,22,1,0_dist_red/trial23.png,,,1,0,redHorizontal,p,21,20,Male,2021-02-18_19h17.07.925,exp11,2020.2.6,Win32,60,,,,,,,,,,,
,,,,,,,,,,,,,,a,1,1.13492,space,0.314225,0,185,185,190,1,0_targ_16_dist_red/trial16.png,,,0,16,redHorizontal,a,21,20,Male,2021-02-18_19h17.07.925,exp11,2020.2.6,Win32,60,,,,,,,,,,,
,,,,,,,,,,,,,,a,1,0.810255,space,0.231755,0,186,186,172,1,0_targ_10_dist_red/trial23.png,,,0,10,redHorizontal,a,21,20,Male,2021-02-18_19h17.07.925,exp11,2020.2.6,Win32,60,,,,,,,,,,,
,,,,,,,,,,,,,,a,1,2.67407,space,0.26766,0,187,187,100,1,0_targ_1_dist_red/trial1.png,,,0,1,redHorizontal,a,21,20,Male,2021-02-18_19h17.07.925,exp11,2020.2.6,Win32,60,,,,,,,,,,,
,,,,,,,,,,,,,,a,1,0.588415,space,0.26004,0,188,188,104,1,0_targ_1_dist_red/trial5.png,,,0,1,redHorizontal,a,21,20,Male,2021-02-18_19h17.07.925,exp11,2020.2.6,Win32,60,,,,,,,,,,,
,,,,,,,,,,,,,,a,1,0.82374,space,0.247125,0,189,189,175,1,0_targ_16_dist_red/trial1.png,,,0,16,redHorizontal,a,21,20,Male,2021-02-18_19h17.07.925,exp11,2020.2.6,Win32,60,,,,,,,,,,,
,,,,,,,,,,,,,,a,1,1.304345,space,0.20207,0,190,190,195,1,0_targ_16_dist_red/trial21.png,,,0,16,redHorizontal,a,21,20,Male,2021-02-18_19h17.07.925,exp11,2020.2.6,Win32,60,,,,,,,,,,,
,,,,,,,,,,,,,,p,1,0.71869,space,0.190745,0,191,191,72,1,9_dist_red/trial23.png,,,1,9,redHorizontal,p,21,20,Male,2021-02-18_19h17.07.925,exp11,2020.2.6,Win32,60,,,,,,,,,,,
,,,,,,,,,,,,,,p,1,0.691315,space,0.20143,0,192,192,76,1,15_dist_red/trial2.png,,,1,15,redHorizontal,p,21,20,Male,2021-02-18_19h17.07.925,exp11,2020.2.6,Win32,60,,,,,,,,,,,
,,,,,,,,,,,,,,p,1,0.563645,space,0.217645,0,193,193,25,1,3_dist_red/trial1.png,,,1,3,redHorizontal,p,21,20,Male,2021-02-18_19h17.07.925,exp11,2020.2.6,Win32,60,,,,,,,,,,,
,,,,,,,,,,,,,,a,1,0.848995,space,0.23807,0,194,194,163,1,0_targ_10_dist_red/trial14.png,,,0,10,redHorizontal,a,21,20,Male,2021-02-18_19h17.07.925,exp11,2020.2.6,Win32,60,,,,,,,,,,,
,,,,,,,,,,,,,,p,1,0.60165,space,0.195725,0,195,195,49,1,3_dist_red/trial25.png,,,1,3,redHorizontal,p,21,20,Male,2021-02-18_19h17.07.925,exp11,2020.2.6,Win32,60,,,,,,,,,,,
,,,,,,,,,,,,,,a,1,0.6883,space,0.200645,0,196,196,123,1,0_targ_1_dist_red/trial24.png,,,0,1,redHorizontal,a,21,20,Male,2021-02-18_19h17.07.925,exp11,2020.2.6,Win32,60,,,,,,,,,,,
,,,,,,,,,,,,,,p,1,0.64221,space,0.19091,0,197,197,68,1,9_dist_red/trial19.png,,,1,9,redHorizontal,p,21,20,Male,2021-02-18_19h17.07.925,exp11,2020.2.6,Win32,60,,,,,,,,,,,
,,,,,,,,,,,,,,a,1,0.56413,space,0.175845,0,198,198,126,1,0_targ_4_dist_red/trial2.png,,,0,4,redHorizontal,a,21,20,Male,2021-02-18_19h17.07.925,exp11,2020.2.6,Win32,60,,,,,,,,,,,
,,,,,,,,,,,,,,a,1,0.887525,space,0.141075,0,199,199,188,1,0_targ_16_dist_red/trial14.png,,,0,16,redHorizontal,a,21,20,Male,2021-02-18_19h17.07.925,exp11,2020.2.6,Win32,60,,,,,,,,,,,
,,,,,,,,,,,,,,,,,,,,,,,,,,,,,,,21,20,Male,2021-02-18_19h17.07.925,exp11,2020.2.6,Win32,60,0,1,1,1,1,conRed.xlsx,red horizontal,Look for red horizontal bar (target) and indicate if it is present or absent in the array. If red horizontal target is present press 'p' and if absent press 'a'. Press SPACE to start.,,,
