key_resp_6.keys,key_resp_6.rt,key_resp_7.keys,key_resp_7.rt,key_resp_8.keys,key_resp_8.rt,key_resp_10.keys,key_resp_10.rt,key_resp_9.keys,key_resp_9.rt,key_resp_3.keys,key_resp_3.rt,key_resp_5.keys,key_resp_5.rt,key_resp.keys,key_resp.corr,key_resp.rt,key_resp_4.keys,key_resp_4.rt,trials.thisRepN,trials.thisTrialN,trials.thisN,trials.thisIndex,trials.ran,ImageFile,tarPos,tarSize,targPres,numDist,targetName,correctAns,participant,age,sex,date,expName,psychopyVersion,OS,frameRate,trials_2.thisRepN,trials_2.thisTrialN,trials_2.thisN,trials_2.thisIndex,trials_2.ran,condsFile,targName,instructionText,colTarget,sizeTarg,posit
space,7.028,space,28.713,space,18.79,space,40.82,space,4.758,space,22.431,space,7.957,p,1,1.336,space,4.148,0,0,0,60,1,9_dist_green/trial11.png,,,1,9,greenverival,p,22,25,M,2021-02-18_21h11.20.404,exp11,2020.2.6,MacIntel,60,,,,,,,,,,,
,,,,,,,,,,,,,,p,0,0.886,space,6.158,0,1,1,128,1,0_targ_4_dist_green/trial4.png,,,0,4,greenverival,a,22,25,M,2021-02-18_21h11.20.404,exp11,2020.2.6,MacIntel,60,,,,,,,,,,,
,,,,,,,,,,,,,,p,0,0.885,space,7.908,0,2,2,115,1,0_targ_1_dist_green/trial6.png,,,0,1,greenverival,a,22,25,M,2021-02-18_21h11.20.404,exp11,2020.2.6,MacIntel,60,,,,,,,,,,,
,,,,,,,,,,,,,,a,1,6.668,space,1.548,0,3,3,136,1,0_targ_4_dist_green/trial12.png,,,0,4,greenverival,a,22,25,M,2021-02-18_21h11.20.404,exp11,2020.2.6,MacIntel,60,,,,,,,,,,,
,,,,,,,,,,,,,,p,1,1.019,space,3.557,0,4,4,6,1,0_dist_green/trial7.png,,,1,0,greenverival,p,22,25,M,2021-02-18_21h11.20.404,exp11,2020.2.6,MacIntel,60,,,,,,,,,,,
,,,,,,,,,,,,,,a,1,1.886,space,1.135,0,5,5,157,1,0_targ_10_dist_green/trial8.png,,,0,10,greenverival,a,22,25,M,2021-02-18_21h11.20.404,exp11,2020.2.6,MacIntel,60,,,,,,,,,,,
,,,,,,,,,,,,,,a,1,1.385,space,0.507,0,6,6,178,1,0_targ_16_dist_green/trial4.png,,,0,16,greenverival,a,22,25,M,2021-02-18_21h11.20.404,exp11,2020.2.6,MacIntel,60,,,,,,,,,,,
,,,,,,,,,,,,,,a,1,1.102,space,0.307,0,7,7,137,1,0_targ_4_dist_green/trial13.png,,,0,4,greenverival,a,22,25,M,2021-02-18_21h11.20.404,exp11,2020.2.6,MacIntel,60,,,,,,,,,,,
,,,,,,,,,,,,,,a,1,0.886,space,0.257,0,8,8,102,1,0_targ_1_dist_green/trial3.png,,,0,1,greenverival,a,22,25,M,2021-02-18_21h11.20.404,exp11,2020.2.6,MacIntel,60,,,,,,,,,,,
,,,,,,,,,,,,,,a,1,0.985,space,0.257,0,9,9,169,1,0_targ_10_dist_green/trial20.png,,,0,10,greenverival,a,22,25,M,2021-02-18_21h11.20.404,exp11,2020.2.6,MacIntel,60,,,,,,,,,,,
,,,,,,,,,,,,,,a,1,1.169,space,0.237,0,10,10,177,1,0_targ_16_dist_green/trial3.png,,,0,16,greenverival,a,22,25,M,2021-02-18_21h11.20.404,exp11,2020.2.6,MacIntel,60,,,,,,,,,,,
,,,,,,,,,,,,,,a,1,0.769,space,0.307,0,11,11,103,1,0_targ_1_dist_green/trial4.png,,,0,1,greenverival,a,22,25,M,2021-02-18_21h11.20.404,exp11,2020.2.6,MacIntel,60,,,,,,,,,,,
,,,,,,,,,,,,,,p,1,1.519,space,0.474,0,12,12,57,1,9_dist_green/trial8.png,,,1,9,greenverival,p,22,25,M,2021-02-18_21h11.20.404,exp11,2020.2.6,MacIntel,60,,,,,,,,,,,
,,,,,,,,,,,,,,p,1,1.069,space,0.323,0,13,13,25,1,3_dist_green/trial1.png,,,1,3,greenverival,p,22,25,M,2021-02-18_21h11.20.404,exp11,2020.2.6,MacIntel,60,,,,,,,,,,,
,,,,,,,,,,,,,,p,1,1.153,space,0.269,0,14,14,71,1,9_dist_green/trial22.png,,,1,9,greenverival,p,22,25,M,2021-02-18_21h11.20.404,exp11,2020.2.6,MacIntel,60,,,,,,,,,,,
,,,,,,,,,,,,,,p,1,0.935,space,0.308,0,15,15,37,1,3_dist_green/trial13.png,,,1,3,greenverival,p,22,25,M,2021-02-18_21h11.20.404,exp11,2020.2.6,MacIntel,60,,,,,,,,,,,
,,,,,,,,,,,,,,a,1,0.985,space,0.274,0,16,16,139,1,0_targ_4_dist_green/trial15.png,,,0,4,greenverival,a,22,25,M,2021-02-18_21h11.20.404,exp11,2020.2.6,MacIntel,60,,,,,,,,,,,
,,,,,,,,,,,,,,p,1,1.018,space,0.241,0,17,17,98,1,15_dist_green/trial24.png,,,1,15,greenverival,p,22,25,M,2021-02-18_21h11.20.404,exp11,2020.2.6,MacIntel,60,,,,,,,,,,,
,,,,,,,,,,,,,,p,1,1.086,space,0.258,0,18,18,51,1,9_dist_green/trial2.png,,,1,9,greenverival,p,22,25,M,2021-02-18_21h11.20.404,exp11,2020.2.6,MacIntel,60,,,,,,,,,,,
,,,,,,,,,,,,,,a,1,1.336,space,0.285,0,19,19,197,1,0_targ_16_dist_green/trial23.png,,,0,16,greenverival,a,22,25,M,2021-02-18_21h11.20.404,exp11,2020.2.6,MacIntel,60,,,,,,,,,,,
,,,,,,,,,,,,,,p,1,1.051,space,0.24,0,20,20,43,1,3_dist_green/trial19.png,,,1,3,greenverival,p,22,25,M,2021-02-18_21h11.20.404,exp11,2020.2.6,MacIntel,60,,,,,,,,,,,
,,,,,,,,,,,,,,p,1,1.035,space,0.29,0,21,21,94,1,15_dist_green/trial20.png,,,1,15,greenverival,p,22,25,M,2021-02-18_21h11.20.404,exp11,2020.2.6,MacIntel,60,,,,,,,,,,,
,,,,,,,,,,,,,,a,1,1.136,space,0.22,0,22,22,165,1,0_targ_10_dist_green/trial16.png,,,0,10,greenverival,a,22,25,M,2021-02-18_21h11.20.404,exp11,2020.2.6,MacIntel,60,,,,,,,,,,,
,,,,,,,,,,,,,,a,1,0.918,space,0.273,0,23,23,126,1,0_targ_4_dist_green/trial2.png,,,0,4,greenverival,a,22,25,M,2021-02-18_21h11.20.404,exp11,2020.2.6,MacIntel,60,,,,,,,,,,,
,,,,,,,,,,,,,,a,1,0.886,space,0.302,0,24,24,166,1,0_targ_10_dist_green/trial17.png,,,0,10,greenverival,a,22,25,M,2021-02-18_21h11.20.404,exp11,2020.2.6,MacIntel,60,,,,,,,,,,,
,,,,,,,,,,,,,,a,1,0.836,space,0.289,0,25,25,124,1,0_targ_1_dist_green/trial25.png,,,0,1,greenverival,a,22,25,M,2021-02-18_21h11.20.404,exp11,2020.2.6,MacIntel,60,,,,,,,,,,,
,,,,,,,,,,,,,,a,1,1.203,space,0.358,0,26,26,191,1,0_targ_16_dist_green/trial17.png,,,0,16,greenverival,a,22,25,M,2021-02-18_21h11.20.404,exp11,2020.2.6,MacIntel,60,,,,,,,,,,,
,,,,,,,,,,,,,,p,1,1.336,space,0.218,0,27,27,27,1,3_dist_green/trial3.png,,,1,3,greenverival,p,22,25,M,2021-02-18_21h11.20.404,exp11,2020.2.6,MacIntel,60,,,,,,,,,,,
,,,,,,,,,,,,,,a,1,1.803,space,0.256,0,28,28,170,1,0_targ_10_dist_green/trial21.png,,,0,10,greenverival,a,22,25,M,2021-02-18_21h11.20.404,exp11,2020.2.6,MacIntel,60,,,,,,,,,,,
,,,,,,,,,,,,,,p,1,1.002,space,0.274,0,29,29,41,1,3_dist_green/trial17.png,,,1,3,greenverival,p,22,25,M,2021-02-18_21h11.20.404,exp11,2020.2.6,MacIntel,60,,,,,,,,,,,
,,,,,,,,,,,,,,p,1,0.92,space,0.273,0,30,30,13,1,0_dist_green/trial14.png,,,1,0,greenverival,p,22,25,M,2021-02-18_21h11.20.404,exp11,2020.2.6,MacIntel,60,,,,,,,,,,,
,,,,,,,,,,,,,,a,1,1.237,space,0.485,0,31,31,182,1,0_targ_16_dist_green/trial8.png,,,0,16,greenverival,a,22,25,M,2021-02-18_21h11.20.404,exp11,2020.2.6,MacIntel,60,,,,,,,,,,,
,,,,,,,,,,,,,,p,0,1.036,space,0.924,0,32,32,174,1,0_targ_10_dist_green/trial25.png,,,0,10,greenverival,a,22,25,M,2021-02-18_21h11.20.404,exp11,2020.2.6,MacIntel,60,,,,,,,,,,,
,,,,,,,,,,,,,,p,1,0.869,space,0.299,0,33,33,1,1,0_dist_green/trial2.png,,,1,0,greenverival,p,22,25,M,2021-02-18_21h11.20.404,exp11,2020.2.6,MacIntel,60,,,,,,,,,,,
,,,,,,,,,,,,,,a,1,1.469,space,0.324,0,34,34,190,1,0_targ_16_dist_green/trial16.png,,,0,16,greenverival,a,22,25,M,2021-02-18_21h11.20.404,exp11,2020.2.6,MacIntel,60,,,,,,,,,,,
,,,,,,,,,,,,,,p,1,1.169,space,0.308,0,35,35,96,1,15_dist_green/trial22.png,,,1,15,greenverival,p,22,25,M,2021-02-18_21h11.20.404,exp11,2020.2.6,MacIntel,60,,,,,,,,,,,
,,,,,,,,,,,,,,p,1,1.202,space,0.272,0,36,36,77,1,15_dist_green/trial3.png,,,1,15,greenverival,p,22,25,M,2021-02-18_21h11.20.404,exp11,2020.2.6,MacIntel,60,,,,,,,,,,,
,,,,,,,,,,,,,,p,1,0.901,space,0.282,0,37,37,34,1,3_dist_green/trial10.png,,,1,3,greenverival,p,22,25,M,2021-02-18_21h11.20.404,exp11,2020.2.6,MacIntel,60,,,,,,,,,,,
,,,,,,,,,,,,,,p,1,1.053,space,0.241,0,38,38,58,1,9_dist_green/trial9.png,,,1,9,greenverival,p,22,25,M,2021-02-18_21h11.20.404,exp11,2020.2.6,MacIntel,60,,,,,,,,,,,
,,,,,,,,,,,,,,a,1,0.986,space,0.285,0,39,39,131,1,0_targ_4_dist_green/trial7.png,,,0,4,greenverival,a,22,25,M,2021-02-18_21h11.20.404,exp11,2020.2.6,MacIntel,60,,,,,,,,,,,
,,,,,,,,,,,,,,a,1,1.403,space,0.374,0,40,40,132,1,0_targ_4_dist_green/trial8.png,,,0,4,greenverival,a,22,25,M,2021-02-18_21h11.20.404,exp11,2020.2.6,MacIntel,60,,,,,,,,,,,
,,,,,,,,,,,,,,a,1,1.253,space,0.302,0,41,41,156,1,0_targ_10_dist_green/trial7.png,,,0,10,greenverival,a,22,25,M,2021-02-18_21h11.20.404,exp11,2020.2.6,MacIntel,60,,,,,,,,,,,
,,,,,,,,,,,,,,p,1,1.186,space,0.274,0,42,42,65,1,9_dist_green/trial16.png,,,1,9,greenverival,p,22,25,M,2021-02-18_21h11.20.404,exp11,2020.2.6,MacIntel,60,,,,,,,,,,,
,,,,,,,,,,,,,,a,1,1.186,space,0.257,0,43,43,168,1,0_targ_10_dist_green/trial19.png,,,0,10,greenverival,a,22,25,M,2021-02-18_21h11.20.404,exp11,2020.2.6,MacIntel,60,,,,,,,,,,,
,,,,,,,,,,,,,,p,1,0.952,space,0.324,0,44,44,8,1,0_dist_green/trial9.png,,,1,0,greenverival,p,22,25,M,2021-02-18_21h11.20.404,exp11,2020.2.6,MacIntel,60,,,,,,,,,,,
,,,,,,,,,,,,,,p,1,0.885,space,0.291,0,45,45,46,1,3_dist_green/trial22.png,,,1,3,greenverival,p,22,25,M,2021-02-18_21h11.20.404,exp11,2020.2.6,MacIntel,60,,,,,,,,,,,
,,,,,,,,,,,,,,p,1,1.019,space,0.303,0,46,46,75,1,15_dist_green/trial1.png,,,1,15,greenverival,p,22,25,M,2021-02-18_21h11.20.404,exp11,2020.2.6,MacIntel,60,,,,,,,,,,,
,,,,,,,,,,,,,,p,1,0.968,space,0.285,0,47,47,45,1,3_dist_green/trial21.png,,,1,3,greenverival,p,22,25,M,2021-02-18_21h11.20.404,exp11,2020.2.6,MacIntel,60,,,,,,,,,,,
,,,,,,,,,,,,,,a,1,1.119,space,0.287,0,48,48,153,1,0_targ_10_dist_green/trial4.png,,,0,10,greenverival,a,22,25,M,2021-02-18_21h11.20.404,exp11,2020.2.6,MacIntel,60,,,,,,,,,,,
,,,,,,,,,,,,,,p,1,0.92,space,0.235,0,49,49,9,1,0_dist_green/trial10.png,,,1,0,greenverival,p,22,25,M,2021-02-18_21h11.20.404,exp11,2020.2.6,MacIntel,60,,,,,,,,,,,
,,,,,,,,,,,,,,a,1,0.919,space,0.24,0,50,50,104,1,0_targ_1_dist_green/trial5.png,,,0,1,greenverival,a,22,25,M,2021-02-18_21h11.20.404,exp11,2020.2.6,MacIntel,60,,,,,,,,,,,
,,,,,,,,,,,,,,a,1,0.953,space,0.258,0,51,51,151,1,0_targ_10_dist_green/trial2.png,,,0,10,greenverival,a,22,25,M,2021-02-18_21h11.20.404,exp11,2020.2.6,MacIntel,60,,,,,,,,,,,
,,,,,,,,,,,,,,p,1,1.152,space,0.286,0,52,52,99,1,15_dist_green/trial25.png,,,1,15,greenverival,p,22,25,M,2021-02-18_21h11.20.404,exp11,2020.2.6,MacIntel,60,,,,,,,,,,,
,,,,,,,,,,,,,,p,1,0.702,space,0.252,0,53,53,11,1,0_dist_green/trial12.png,,,1,0,greenverival,p,22,25,M,2021-02-18_21h11.20.404,exp11,2020.2.6,MacIntel,60,,,,,,,,,,,
,,,,,,,,,,,,,,a,1,0.936,space,0.173,0,54,54,140,1,0_targ_4_dist_green/trial6.png,,,0,4,greenverival,a,22,25,M,2021-02-18_21h11.20.404,exp11,2020.2.6,MacIntel,60,,,,,,,,,,,
,,,,,,,,,,,,,,a,1,0.97,space,0.274,0,55,55,183,1,0_targ_16_dist_green/trial9.png,,,0,16,greenverival,a,22,25,M,2021-02-18_21h11.20.404,exp11,2020.2.6,MacIntel,60,,,,,,,,,,,
,,,,,,,,,,,,,,p,1,0.719,space,0.202,0,56,56,50,1,9_dist_green/trial1.png,,,1,9,greenverival,p,22,25,M,2021-02-18_21h11.20.404,exp11,2020.2.6,MacIntel,60,,,,,,,,,,,
,,,,,,,,,,,,,,a,1,0.853,space,0.291,0,57,57,185,1,0_targ_16_dist_green/trial11.png,,,0,16,greenverival,a,22,25,M,2021-02-18_21h11.20.404,exp11,2020.2.6,MacIntel,60,,,,,,,,,,,
,,,,,,,,,,,,,,a,1,0.704,space,0.285,0,58,58,133,1,0_targ_4_dist_green/trial9.png,,,0,4,greenverival,a,22,25,M,2021-02-18_21h11.20.404,exp11,2020.2.6,MacIntel,60,,,,,,,,,,,
,,,,,,,,,,,,,,p,1,0.769,space,0.206,0,59,59,40,1,3_dist_green/trial16.png,,,1,3,greenverival,p,22,25,M,2021-02-18_21h11.20.404,exp11,2020.2.6,MacIntel,60,,,,,,,,,,,
,,,,,,,,,,,,,,p,1,1.136,space,0.303,0,60,60,49,1,3_dist_green/trial25.png,,,1,3,greenverival,p,22,25,M,2021-02-18_21h11.20.404,exp11,2020.2.6,MacIntel,60,,,,,,,,,,,
,,,,,,,,,,,,,,a,1,0.784,space,0.242,0,61,61,173,1,0_targ_10_dist_green/trial24.png,,,0,10,greenverival,a,22,25,M,2021-02-18_21h11.20.404,exp11,2020.2.6,MacIntel,60,,,,,,,,,,,
,,,,,,,,,,,,,,p,1,0.852,space,0.24,0,62,62,83,1,15_dist_green/trial9.png,,,1,15,greenverival,p,22,25,M,2021-02-18_21h11.20.404,exp11,2020.2.6,MacIntel,60,,,,,,,,,,,
,,,,,,,,,,,,,,p,1,0.769,space,0.218,0,63,63,74,1,9_dist_green/trial25.png,,,1,9,greenverival,p,22,25,M,2021-02-18_21h11.20.404,exp11,2020.2.6,MacIntel,60,,,,,,,,,,,
,,,,,,,,,,,,,,a,1,2.47,space,1.24,0,64,64,112,1,0_targ_1_dist_green/trial13.png,,,0,1,greenverival,a,22,25,M,2021-02-18_21h11.20.404,exp11,2020.2.6,MacIntel,60,,,,,,,,,,,
,,,,,,,,,,,,,,p,1,0.986,space,0.273,0,65,65,19,1,0_dist_green/trial20.png,,,1,0,greenverival,p,22,25,M,2021-02-18_21h11.20.404,exp11,2020.2.6,MacIntel,60,,,,,,,,,,,
,,,,,,,,,,,,,,p,1,0.936,space,0.224,0,66,66,23,1,0_dist_green/trial24.png,,,1,0,greenverival,p,22,25,M,2021-02-18_21h11.20.404,exp11,2020.2.6,MacIntel,60,,,,,,,,,,,
,,,,,,,,,,,,,,a,1,1.101,space,0.275,0,67,67,192,1,0_targ_16_dist_green/trial18.png,,,0,16,greenverival,a,22,25,M,2021-02-18_21h11.20.404,exp11,2020.2.6,MacIntel,60,,,,,,,,,,,
,,,,,,,,,,,,,,a,1,0.936,space,0.252,0,68,68,134,1,0_targ_4_dist_green/trial10.png,,,0,4,greenverival,a,22,25,M,2021-02-18_21h11.20.404,exp11,2020.2.6,MacIntel,60,,,,,,,,,,,
,,,,,,,,,,,,,,a,1,1.419,space,0.268,0,69,69,158,1,0_targ_10_dist_green/trial9.png,,,0,10,greenverival,a,22,25,M,2021-02-18_21h11.20.404,exp11,2020.2.6,MacIntel,60,,,,,,,,,,,
,,,,,,,,,,,,,,p,1,0.669,space,0.218,0,70,70,16,1,0_dist_green/trial17.png,,,1,0,greenverival,p,22,25,M,2021-02-18_21h11.20.404,exp11,2020.2.6,MacIntel,60,,,,,,,,,,,
,,,,,,,,,,,,,,a,1,0.936,space,0.152,0,71,71,152,1,0_targ_10_dist_green/trial3.png,,,0,10,greenverival,a,22,25,M,2021-02-18_21h11.20.404,exp11,2020.2.6,MacIntel,60,,,,,,,,,,,
,,,,,,,,,,,,,,p,1,0.785,space,0.151,0,72,72,66,1,9_dist_green/trial17.png,,,1,9,greenverival,p,22,25,M,2021-02-18_21h11.20.404,exp11,2020.2.6,MacIntel,60,,,,,,,,,,,
,,,,,,,,,,,,,,p,1,0.937,space,0.24,0,73,73,53,1,9_dist_green/trial4.png,,,1,9,greenverival,p,22,25,M,2021-02-18_21h11.20.404,exp11,2020.2.6,MacIntel,60,,,,,,,,,,,
,,,,,,,,,,,,,,a,1,0.917,space,0.151,0,74,74,105,1,0_targ_1_dist_green/trial6.png,,,0,1,greenverival,a,22,25,M,2021-02-18_21h11.20.404,exp11,2020.2.6,MacIntel,60,,,,,,,,,,,
,,,,,,,,,,,,,,p,1,0.92,space,0.107,0,75,75,4,1,0_dist_green/trial5.png,,,1,0,greenverival,p,22,25,M,2021-02-18_21h11.20.404,exp11,2020.2.6,MacIntel,60,,,,,,,,,,,
,,,,,,,,,,,,,,p,1,0.819,space,0.12,0,76,76,32,1,3_dist_green/trial8.png,,,1,3,greenverival,p,22,25,M,2021-02-18_21h11.20.404,exp11,2020.2.6,MacIntel,60,,,,,,,,,,,
,,,,,,,,,,,,,,a,1,1.069,space,0.223,0,77,77,184,1,0_targ_16_dist_green/trial10.png,,,0,16,greenverival,a,22,25,M,2021-02-18_21h11.20.404,exp11,2020.2.6,MacIntel,60,,,,,,,,,,,
,,,,,,,,,,,,,,p,1,0.803,space,0.141,0,78,78,61,1,9_dist_green/trial12.png,,,1,9,greenverival,p,22,25,M,2021-02-18_21h11.20.404,exp11,2020.2.6,MacIntel,60,,,,,,,,,,,
,,,,,,,,,,,,,,a,1,0.953,space,0.205,0,79,79,108,1,0_targ_1_dist_green/trial9.png,,,0,1,greenverival,a,22,25,M,2021-02-18_21h11.20.404,exp11,2020.2.6,MacIntel,60,,,,,,,,,,,
,,,,,,,,,,,,,,a,1,1.752,space,0.156,0,80,80,195,1,0_targ_16_dist_green/trial21.png,,,0,16,greenverival,a,22,25,M,2021-02-18_21h11.20.404,exp11,2020.2.6,MacIntel,60,,,,,,,,,,,
,,,,,,,,,,,,,,a,1,0.769,space,0.141,0,81,81,198,1,0_targ_16_dist_green/trial24.png,,,0,16,greenverival,a,22,25,M,2021-02-18_21h11.20.404,exp11,2020.2.6,MacIntel,60,,,,,,,,,,,
,,,,,,,,,,,,,,a,1,0.75,space,0.139,0,82,82,130,1,0_targ_4_dist_green/trial6.png,,,0,4,greenverival,a,22,25,M,2021-02-18_21h11.20.404,exp11,2020.2.6,MacIntel,60,,,,,,,,,,,
,,,,,,,,,,,,,,a,1,0.653,space,0.124,0,83,83,160,1,0_targ_10_dist_green/trial11.png,,,0,10,greenverival,a,22,25,M,2021-02-18_21h11.20.404,exp11,2020.2.6,MacIntel,60,,,,,,,,,,,
,,,,,,,,,,,,,,p,1,0.887,space,0.085,0,84,84,2,1,0_dist_green/trial3.png,,,1,0,greenverival,p,22,25,M,2021-02-18_21h11.20.404,exp11,2020.2.6,MacIntel,60,,,,,,,,,,,
,,,,,,,,,,,,,,a,1,0.919,space,0.058,0,85,85,145,1,0_targ_4_dist_green/trial21.png,,,0,4,greenverival,a,22,25,M,2021-02-18_21h11.20.404,exp11,2020.2.6,MacIntel,60,,,,,,,,,,,
,,,,,,,,,,,,,,a,1,0.918,space,0.09,0,86,86,129,1,0_targ_4_dist_green/trial5.png,,,0,4,greenverival,a,22,25,M,2021-02-18_21h11.20.404,exp11,2020.2.6,MacIntel,60,,,,,,,,,,,
,,,,,,,,,,,,,,p,1,0.985,space,0.353,0,87,87,85,1,15_dist_green/trial11.png,,,1,15,greenverival,p,22,25,M,2021-02-18_21h11.20.404,exp11,2020.2.6,MacIntel,60,,,,,,,,,,,
,,,,,,,,,,,,,,p,1,0.985,space,0.09,0,88,88,69,1,9_dist_green/trial20.png,,,1,9,greenverival,p,22,25,M,2021-02-18_21h11.20.404,exp11,2020.2.6,MacIntel,60,,,,,,,,,,,
,,,,,,,,,,,,,,a,1,0.936,space,0.09,0,89,89,106,1,0_targ_1_dist_green/trial7.png,,,0,1,greenverival,a,22,25,M,2021-02-18_21h11.20.404,exp11,2020.2.6,MacIntel,60,,,,,,,,,,,
,,,,,,,,,,,,,,p,1,0.785,space,0.074,0,90,90,35,1,3_dist_green/trial11.png,,,1,3,greenverival,p,22,25,M,2021-02-18_21h11.20.404,exp11,2020.2.6,MacIntel,60,,,,,,,,,,,
,,,,,,,,,,,,,,a,1,0.903,space,0.102,0,91,91,181,1,0_targ_16_dist_green/trial7.png,,,0,16,greenverival,a,22,25,M,2021-02-18_21h11.20.404,exp11,2020.2.6,MacIntel,60,,,,,,,,,,,
,,,,,,,,,,,,,,a,1,1.136,space,0.119,0,92,92,179,1,0_targ_16_dist_green/trial5.png,,,0,16,greenverival,a,22,25,M,2021-02-18_21h11.20.404,exp11,2020.2.6,MacIntel,60,,,,,,,,,,,
,,,,,,,,,,,,,,a,1,0.936,space,0.091,0,93,93,107,1,0_targ_1_dist_green/trial8.png,,,0,1,greenverival,a,22,25,M,2021-02-18_21h11.20.404,exp11,2020.2.6,MacIntel,60,,,,,,,,,,,
,,,,,,,,,,,,,,a,1,0.899,space,0.085,0,94,94,193,1,0_targ_16_dist_green/trial19.png,,,0,16,greenverival,a,22,25,M,2021-02-18_21h11.20.404,exp11,2020.2.6,MacIntel,60,,,,,,,,,,,
,,,,,,,,,,,,,,a,1,0.752,space,0.073,0,95,95,110,1,0_targ_1_dist_green/trial11.png,,,0,1,greenverival,a,22,25,M,2021-02-18_21h11.20.404,exp11,2020.2.6,MacIntel,60,,,,,,,,,,,
,,,,,,,,,,,,,,p,1,0.985,space,0.023,0,96,96,39,1,3_dist_green/trial15.png,,,1,3,greenverival,p,22,25,M,2021-02-18_21h11.20.404,exp11,2020.2.6,MacIntel,60,,,,,,,,,,,
,,,,,,,,,,,,,,a,1,0.969,space,0.085,0,97,97,187,1,0_targ_16_dist_green/trial13.png,,,0,16,greenverival,a,22,25,M,2021-02-18_21h11.20.404,exp11,2020.2.6,MacIntel,60,,,,,,,,,,,
,,,,,,,,,,,,,,p,1,0.903,space,0.073,0,98,98,59,1,9_dist_green/trial10.png,,,1,9,greenverival,p,22,25,M,2021-02-18_21h11.20.404,exp11,2020.2.6,MacIntel,60,,,,,,,,,,,
,,,,,,,,,,,,,,p,1,1.052,space,0.491,0,99,99,28,1,3_dist_green/trial4.png,,,1,3,greenverival,p,22,25,M,2021-02-18_21h11.20.404,exp11,2020.2.6,MacIntel,60,,,,,,,,,,,
,,,,,,,,,,,,,,p,1,1.268,space,0.107,0,100,100,93,1,15_dist_green/trial19.png,,,1,15,greenverival,p,22,25,M,2021-02-18_21h11.20.404,exp11,2020.2.6,MacIntel,60,,,,,,,,,,,
,,,,,,,,,,,,,,p,1,0.819,space,0.09,0,101,101,62,1,9_dist_green/trial13.png,,,1,9,greenverival,p,22,25,M,2021-02-18_21h11.20.404,exp11,2020.2.6,MacIntel,60,,,,,,,,,,,
,,,,,,,,,,,,,,p,1,0.753,space,0.152,0,102,102,17,1,0_dist_green/trial18.png,,,1,0,greenverival,p,22,25,M,2021-02-18_21h11.20.404,exp11,2020.2.6,MacIntel,60,,,,,,,,,,,
,,,,,,,,,,,,,,p,1,1.102,space,0.108,0,103,103,80,1,15_dist_green/trial6.png,,,1,15,greenverival,p,22,25,M,2021-02-18_21h11.20.404,exp11,2020.2.6,MacIntel,60,,,,,,,,,,,
,,,,,,,,,,,,,,a,1,0.936,space,0.091,0,104,104,101,1,0_targ_1_dist_green/trial2.png,,,0,1,greenverival,a,22,25,M,2021-02-18_21h11.20.404,exp11,2020.2.6,MacIntel,60,,,,,,,,,,,
,,,,,,,,,,,,,,p,1,0.752,space,0.106,0,105,105,52,1,9_dist_green/trial3.png,,,1,9,greenverival,p,22,25,M,2021-02-18_21h11.20.404,exp11,2020.2.6,MacIntel,60,,,,,,,,,,,
,,,,,,,,,,,,,,p,1,0.636,space,0.09,0,106,106,18,1,0_dist_green/trial19.png,,,1,0,greenverival,p,22,25,M,2021-02-18_21h11.20.404,exp11,2020.2.6,MacIntel,60,,,,,,,,,,,
,,,,,,,,,,,,,,a,1,0.92,space,0.124,0,107,107,125,1,0_targ_4_dist_green/trial1.png,,,0,4,greenverival,a,22,25,M,2021-02-18_21h11.20.404,exp11,2020.2.6,MacIntel,60,,,,,,,,,,,
,,,,,,,,,,,,,,p,1,0.569,space,0.075,0,108,108,42,1,3_dist_green/trial18.png,,,1,3,greenverival,p,22,25,M,2021-02-18_21h11.20.404,exp11,2020.2.6,MacIntel,60,,,,,,,,,,,
,,,,,,,,,,,,,,a,1,1.251,space,0.074,0,109,109,196,1,0_targ_16_dist_green/trial22.png,,,0,16,greenverival,a,22,25,M,2021-02-18_21h11.20.404,exp11,2020.2.6,MacIntel,60,,,,,,,,,,,
,,,,,,,,,,,,,,p,1,0.553,space,0.067,0,110,110,22,1,0_dist_green/trial23.png,,,1,0,greenverival,p,22,25,M,2021-02-18_21h11.20.404,exp11,2020.2.6,MacIntel,60,,,,,,,,,,,
,,,,,,,,,,,,,,a,1,1.253,space,0.102,0,111,111,154,1,0_targ_10_dist_green/trial5.png,,,0,10,greenverival,a,22,25,M,2021-02-18_21h11.20.404,exp11,2020.2.6,MacIntel,60,,,,,,,,,,,
,,,,,,,,,,,,,,a,1,0.95,space,0.086,0,112,112,146,1,0_targ_4_dist_green/trial22.png,,,0,4,greenverival,a,22,25,M,2021-02-18_21h11.20.404,exp11,2020.2.6,MacIntel,60,,,,,,,,,,,
,,,,,,,,,,,,,,p,1,0.602,space,0.124,0,113,113,10,1,0_dist_green/trial11.png,,,1,0,greenverival,p,22,25,M,2021-02-18_21h11.20.404,exp11,2020.2.6,MacIntel,60,,,,,,,,,,,
,,,,,,,,,,,,,,a,1,0.818,space,0.102,0,114,114,143,1,0_targ_4_dist_green/trial19.png,,,0,4,greenverival,a,22,25,M,2021-02-18_21h11.20.404,exp11,2020.2.6,MacIntel,60,,,,,,,,,,,
,,,,,,,,,,,,,,a,1,1.069,space,0.091,0,115,115,176,1,0_targ_16_dist_green/trial2.png,,,0,16,greenverival,a,22,25,M,2021-02-18_21h11.20.404,exp11,2020.2.6,MacIntel,60,,,,,,,,,,,
,,,,,,,,,,,,,,p,1,0.686,space,0.035,0,116,116,64,1,9_dist_green/trial15.png,,,1,9,greenverival,p,22,25,M,2021-02-18_21h11.20.404,exp11,2020.2.6,MacIntel,60,,,,,,,,,,,
,,,,,,,,,,,,,,a,1,0.768,space,0.057,0,117,117,135,1,0_targ_4_dist_green/trial11.png,,,0,4,greenverival,a,22,25,M,2021-02-18_21h11.20.404,exp11,2020.2.6,MacIntel,60,,,,,,,,,,,
,,,,,,,,,,,,,,a,1,0.801,space,0.086,0,118,118,120,1,0_targ_1_dist_green/trial21.png,,,0,1,greenverival,a,22,25,M,2021-02-18_21h11.20.404,exp11,2020.2.6,MacIntel,60,,,,,,,,,,,
,,,,,,,,,,,,,,p,1,0.785,space,0.086,0,119,119,36,1,3_dist_green/trial12.png,,,1,3,greenverival,p,22,25,M,2021-02-18_21h11.20.404,exp11,2020.2.6,MacIntel,60,,,,,,,,,,,
,,,,,,,,,,,,,,a,1,1.102,space,0.09,0,120,120,162,1,0_targ_10_dist_green/trial13.png,,,0,10,greenverival,a,22,25,M,2021-02-18_21h11.20.404,exp11,2020.2.6,MacIntel,60,,,,,,,,,,,
,,,,,,,,,,,,,,p,1,0.887,space,0.102,0,121,121,31,1,3_dist_green/trial7.png,,,1,3,greenverival,p,22,25,M,2021-02-18_21h11.20.404,exp11,2020.2.6,MacIntel,60,,,,,,,,,,,
,,,,,,,,,,,,,,a,1,0.986,space,0.091,0,122,122,159,1,0_targ_10_dist_green/trial10.png,,,0,10,greenverival,a,22,25,M,2021-02-18_21h11.20.404,exp11,2020.2.6,MacIntel,60,,,,,,,,,,,
,,,,,,,,,,,,,,a,1,1.001,space,0.09,0,123,123,186,1,0_targ_16_dist_green/trial12.png,,,0,16,greenverival,a,22,25,M,2021-02-18_21h11.20.404,exp11,2020.2.6,MacIntel,60,,,,,,,,,,,
,,,,,,,,,,,,,,a,1,0.853,space,0.057,0,124,124,111,1,0_targ_1_dist_green/trial12.png,,,0,1,greenverival,a,22,25,M,2021-02-18_21h11.20.404,exp11,2020.2.6,MacIntel,60,,,,,,,,,,,
,,,,,,,,,,,,,,p,1,0.968,space,0.075,0,125,125,55,1,9_dist_green/trial6.png,,,1,9,greenverival,p,22,25,M,2021-02-18_21h11.20.404,exp11,2020.2.6,MacIntel,60,,,,,,,,,,,
,,,,,,,,,,,,,,a,1,0.919,space,0.086,0,126,126,149,1,0_targ_4_dist_green/trial25.png,,,0,4,greenverival,a,22,25,M,2021-02-18_21h11.20.404,exp11,2020.2.6,MacIntel,60,,,,,,,,,,,
,,,,,,,,,,,,,,a,1,1.635,space,0.074,0,127,127,175,1,0_targ_16_dist_green/trial1.png,,,0,16,greenverival,a,22,25,M,2021-02-18_21h11.20.404,exp11,2020.2.6,MacIntel,60,,,,,,,,,,,
,,,,,,,,,,,,,,a,1,1.22,space,0.09,0,128,128,148,1,0_targ_4_dist_green/trial24.png,,,0,4,greenverival,a,22,25,M,2021-02-18_21h11.20.404,exp11,2020.2.6,MacIntel,60,,,,,,,,,,,
,,,,,,,,,,,,,,p,1,1.086,space,0.04,0,129,129,87,1,15_dist_green/trial13.png,,,1,15,greenverival,p,22,25,M,2021-02-18_21h11.20.404,exp11,2020.2.6,MacIntel,60,,,,,,,,,,,
,,,,,,,,,,,,,,p,1,1.002,space,0.118,0,130,130,73,1,9_dist_green/trial24.png,,,1,9,greenverival,p,22,25,M,2021-02-18_21h11.20.404,exp11,2020.2.6,MacIntel,60,,,,,,,,,,,
,,,,,,,,,,,,,,a,1,0.986,space,0.09,0,131,131,180,1,0_targ_16_dist_green/trial6.png,,,0,16,greenverival,a,22,25,M,2021-02-18_21h11.20.404,exp11,2020.2.6,MacIntel,60,,,,,,,,,,,
,,,,,,,,,,,,,,a,1,0.97,space,0.103,0,132,132,142,1,0_targ_4_dist_green/trial18.png,,,0,4,greenverival,a,22,25,M,2021-02-18_21h11.20.404,exp11,2020.2.6,MacIntel,60,,,,,,,,,,,
,,,,,,,,,,,,,,p,1,0.835,space,0.102,0,133,133,56,1,9_dist_green/trial7.png,,,1,9,greenverival,p,22,25,M,2021-02-18_21h11.20.404,exp11,2020.2.6,MacIntel,60,,,,,,,,,,,
,,,,,,,,,,,,,,a,1,0.803,space,0.103,0,134,134,118,1,0_targ_1_dist_green/trial19.png,,,0,1,greenverival,a,22,25,M,2021-02-18_21h11.20.404,exp11,2020.2.6,MacIntel,60,,,,,,,,,,,
,,,,,,,,,,,,,,a,1,1.035,space,0.069,0,135,135,167,1,0_targ_10_dist_green/trial18.png,,,0,10,greenverival,a,22,25,M,2021-02-18_21h11.20.404,exp11,2020.2.6,MacIntel,60,,,,,,,,,,,
,,,,,,,,,,,,,,p,1,0.968,space,0.053,0,136,136,72,1,9_dist_green/trial23.png,,,1,9,greenverival,p,22,25,M,2021-02-18_21h11.20.404,exp11,2020.2.6,MacIntel,60,,,,,,,,,,,
,,,,,,,,,,,,,,a,1,0.818,space,0.119,0,137,137,122,1,0_targ_1_dist_green/trial23.png,,,0,1,greenverival,a,22,25,M,2021-02-18_21h11.20.404,exp11,2020.2.6,MacIntel,60,,,,,,,,,,,
,,,,,,,,,,,,,,p,1,0.875,space,0.747,0,138,138,20,1,0_dist_green/trial21.png,,,1,0,greenverival,p,22,25,M,2021-02-18_21h11.20.404,exp11,2020.2.6,MacIntel,60,,,,,,,,,,,
,,,,,,,,,,,,,,p,1,0.985,space,0.569,0,139,139,84,1,15_dist_green/trial10.png,,,1,15,greenverival,p,22,25,M,2021-02-18_21h11.20.404,exp11,2020.2.6,MacIntel,60,,,,,,,,,,,
,,,,,,,,,,,,,,p,1,0.82,space,0.252,0,140,140,26,1,3_dist_green/trial2.png,,,1,3,greenverival,p,22,25,M,2021-02-18_21h11.20.404,exp11,2020.2.6,MacIntel,60,,,,,,,,,,,
,,,,,,,,,,,,,,p,1,0.836,space,0.035,0,141,141,47,1,3_dist_green/trial23.png,,,1,3,greenverival,p,22,25,M,2021-02-18_21h11.20.404,exp11,2020.2.6,MacIntel,60,,,,,,,,,,,
,,,,,,,,,,,,,,p,1,1.152,space,0.474,0,142,142,3,1,0_dist_green/trial4.png,,,1,0,greenverival,p,22,25,M,2021-02-18_21h11.20.404,exp11,2020.2.6,MacIntel,60,,,,,,,,,,,
,,,,,,,,,,,,,,a,1,0.835,space,0.108,0,143,143,164,1,0_targ_10_dist_green/trial15.png,,,0,10,greenverival,a,22,25,M,2021-02-18_21h11.20.404,exp11,2020.2.6,MacIntel,60,,,,,,,,,,,
,,,,,,,,,,,,,,p,1,0.752,space,0.051,0,144,144,89,1,15_dist_green/trial15.png,,,1,15,greenverival,p,22,25,M,2021-02-18_21h11.20.404,exp11,2020.2.6,MacIntel,60,,,,,,,,,,,
,,,,,,,,,,,,,,p,1,1.102,space,0.103,0,145,145,63,1,9_dist_green/trial14.png,,,1,9,greenverival,p,22,25,M,2021-02-18_21h11.20.404,exp11,2020.2.6,MacIntel,60,,,,,,,,,,,
,,,,,,,,,,,,,,a,1,0.885,space,0.14,0,146,146,150,1,0_targ_10_dist_green/trial1.png,,,0,10,greenverival,a,22,25,M,2021-02-18_21h11.20.404,exp11,2020.2.6,MacIntel,60,,,,,,,,,,,
,,,,,,,,,,,,,,p,1,0.752,space,0.068,0,147,147,30,1,3_dist_green/trial6.png,,,1,3,greenverival,p,22,25,M,2021-02-18_21h11.20.404,exp11,2020.2.6,MacIntel,60,,,,,,,,,,,
,,,,,,,,,,,,,,a,1,0.619,space,0.119,0,148,148,188,1,0_targ_16_dist_green/trial14.png,,,0,16,greenverival,a,22,25,M,2021-02-18_21h11.20.404,exp11,2020.2.6,MacIntel,60,,,,,,,,,,,
,,,,,,,,,,,,,,a,1,1.018,space,0.069,0,149,149,127,1,0_targ_4_dist_green/trial3.png,,,0,4,greenverival,a,22,25,M,2021-02-18_21h11.20.404,exp11,2020.2.6,MacIntel,60,,,,,,,,,,,
,,,,,,,,,,,,,,a,1,0.803,space,0.124,0,150,150,123,1,0_targ_1_dist_green/trial24.png,,,0,1,greenverival,a,22,25,M,2021-02-18_21h11.20.404,exp11,2020.2.6,MacIntel,60,,,,,,,,,,,
,,,,,,,,,,,,,,a,1,0.652,space,0.286,0,151,151,117,1,0_targ_1_dist_green/trial18.png,,,0,1,greenverival,a,22,25,M,2021-02-18_21h11.20.404,exp11,2020.2.6,MacIntel,60,,,,,,,,,,,
,,,,,,,,,,,,,,p,1,0.602,space,0.107,0,152,152,68,1,9_dist_green/trial19.png,,,1,9,greenverival,p,22,25,M,2021-02-18_21h11.20.404,exp11,2020.2.6,MacIntel,60,,,,,,,,,,,
,,,,,,,,,,,,,,p,1,0.903,space,0.253,0,153,153,24,1,0_dist_green/trial25.png,,,1,0,greenverival,p,22,25,M,2021-02-18_21h11.20.404,exp11,2020.2.6,MacIntel,60,,,,,,,,,,,
,,,,,,,,,,,,,,a,1,0.753,space,0.12,0,154,154,172,1,0_targ_10_dist_green/trial23.png,,,0,10,greenverival,a,22,25,M,2021-02-18_21h11.20.404,exp11,2020.2.6,MacIntel,60,,,,,,,,,,,
,,,,,,,,,,,,,,p,0,0.735,space,1.641,0,155,155,100,1,0_targ_1_dist_green/trial1.png,,,0,1,greenverival,a,22,25,M,2021-02-18_21h11.20.404,exp11,2020.2.6,MacIntel,60,,,,,,,,,,,
,,,,,,,,,,,,,,a,1,1.501,space,0.33,0,156,156,161,1,0_targ_10_dist_green/trial12.png,,,0,10,greenverival,a,22,25,M,2021-02-18_21h11.20.404,exp11,2020.2.6,MacIntel,60,,,,,,,,,,,
,,,,,,,,,,,,,,p,1,1.319,space,0.091,0,157,157,44,1,3_dist_green/trial20.png,,,1,3,greenverival,p,22,25,M,2021-02-18_21h11.20.404,exp11,2020.2.6,MacIntel,60,,,,,,,,,,,
,,,,,,,,,,,,,,p,1,0.869,space,0.223,0,158,158,92,1,15_dist_green/trial18.png,,,1,15,greenverival,p,22,25,M,2021-02-18_21h11.20.404,exp11,2020.2.6,MacIntel,60,,,,,,,,,,,
,,,,,,,,,,,,,,p,1,0.869,space,0.207,0,159,159,88,1,15_dist_green/trial14.png,,,1,15,greenverival,p,22,25,M,2021-02-18_21h11.20.404,exp11,2020.2.6,MacIntel,60,,,,,,,,,,,
,,,,,,,,,,,,,,a,1,0.903,space,0.357,0,160,160,138,1,0_targ_4_dist_green/trial14.png,,,0,4,greenverival,a,22,25,M,2021-02-18_21h11.20.404,exp11,2020.2.6,MacIntel,60,,,,,,,,,,,
,,,,,,,,,,,,,,a,1,0.869,space,0.141,0,161,161,144,1,0_targ_4_dist_green/trial20.png,,,0,4,greenverival,a,22,25,M,2021-02-18_21h11.20.404,exp11,2020.2.6,MacIntel,60,,,,,,,,,,,
,,,,,,,,,,,,,,a,1,0.852,space,0.484,0,162,162,147,1,0_targ_4_dist_green/trial23.png,,,0,4,greenverival,a,22,25,M,2021-02-18_21h11.20.404,exp11,2020.2.6,MacIntel,60,,,,,,,,,,,
,,,,,,,,,,,,,,a,1,0.651,space,0.286,0,163,163,119,1,0_targ_1_dist_green/trial20.png,,,0,1,greenverival,a,22,25,M,2021-02-18_21h11.20.404,exp11,2020.2.6,MacIntel,60,,,,,,,,,,,
,,,,,,,,,,,,,,p,1,0.935,space,0.224,0,164,164,86,1,15_dist_green/trial12.png,,,1,15,greenverival,p,22,25,M,2021-02-18_21h11.20.404,exp11,2020.2.6,MacIntel,60,,,,,,,,,,,
,,,,,,,,,,,,,,p,1,0.636,space,0.252,0,165,165,7,1,0_dist_green/trial8.png,,,1,0,greenverival,p,22,25,M,2021-02-18_21h11.20.404,exp11,2020.2.6,MacIntel,60,,,,,,,,,,,
,,,,,,,,,,,,,,p,1,0.618,space,0.241,0,166,166,67,1,9_dist_green/trial18.png,,,1,9,greenverival,p,22,25,M,2021-02-18_21h11.20.404,exp11,2020.2.6,MacIntel,60,,,,,,,,,,,
,,,,,,,,,,,,,,p,1,0.569,space,0.24,0,167,167,21,1,0_dist_green/trial22.png,,,1,0,greenverival,p,22,25,M,2021-02-18_21h11.20.404,exp11,2020.2.6,MacIntel,60,,,,,,,,,,,
,,,,,,,,,,,,,,p,1,1.019,space,0.256,0,168,168,79,1,15_dist_green/trial5.png,,,1,15,greenverival,p,22,25,M,2021-02-18_21h11.20.404,exp11,2020.2.6,MacIntel,60,,,,,,,,,,,
,,,,,,,,,,,,,,p,1,0.803,space,0.252,0,169,169,78,1,15_dist_green/trial4.png,,,1,15,greenverival,p,22,25,M,2021-02-18_21h11.20.404,exp11,2020.2.6,MacIntel,60,,,,,,,,,,,
,,,,,,,,,,,,,,p,1,0.584,space,0.274,0,170,170,5,1,0_dist_green/trial6.png,,,1,0,greenverival,p,22,25,M,2021-02-18_21h11.20.404,exp11,2020.2.6,MacIntel,60,,,,,,,,,,,
,,,,,,,,,,,,,,a,1,1.069,space,0.236,0,171,171,199,1,0_targ_16_dist_green/trial25.png,,,0,16,greenverival,a,22,25,M,2021-02-18_21h11.20.404,exp11,2020.2.6,MacIntel,60,,,,,,,,,,,
,,,,,,,,,,,,,,a,1,1.953,space,0.719,0,172,172,141,1,0_targ_4_dist_green/trial17.png,,,0,4,greenverival,a,22,25,M,2021-02-18_21h11.20.404,exp11,2020.2.6,MacIntel,60,,,,,,,,,,,
,,,,,,,,,,,,,,a,1,0.801,space,0.27,0,173,173,109,1,0_targ_1_dist_green/trial10.png,,,0,1,greenverival,a,22,25,M,2021-02-18_21h11.20.404,exp11,2020.2.6,MacIntel,60,,,,,,,,,,,
,,,,,,,,,,,,,,a,1,0.751,space,0.207,0,174,174,194,1,0_targ_16_dist_green/trial20.png,,,0,16,greenverival,a,22,25,M,2021-02-18_21h11.20.404,exp11,2020.2.6,MacIntel,60,,,,,,,,,,,
,,,,,,,,,,,,,,p,1,1.019,space,0.191,0,175,175,70,1,9_dist_green/trial21.png,,,1,9,greenverival,p,22,25,M,2021-02-18_21h11.20.404,exp11,2020.2.6,MacIntel,60,,,,,,,,,,,
,,,,,,,,,,,,,,a,1,0.752,space,0.29,0,176,176,171,1,0_targ_10_dist_green/trial22.png,,,0,10,greenverival,a,22,25,M,2021-02-18_21h11.20.404,exp11,2020.2.6,MacIntel,60,,,,,,,,,,,
,,,,,,,,,,,,,,p,1,0.619,space,0.173,0,177,177,29,1,3_dist_green/trial5.png,,,1,3,greenverival,p,22,25,M,2021-02-18_21h11.20.404,exp11,2020.2.6,MacIntel,60,,,,,,,,,,,
,,,,,,,,,,,,,,p,1,1.085,space,0.185,0,178,178,90,1,15_dist_green/trial16.png,,,1,15,greenverival,p,22,25,M,2021-02-18_21h11.20.404,exp11,2020.2.6,MacIntel,60,,,,,,,,,,,
,,,,,,,,,,,,,,p,1,0.669,space,0.207,0,179,179,54,1,9_dist_green/trial5.png,,,1,9,greenverival,p,22,25,M,2021-02-18_21h11.20.404,exp11,2020.2.6,MacIntel,60,,,,,,,,,,,
,,,,,,,,,,,,,,a,1,0.869,space,0.136,0,180,180,121,1,0_targ_1_dist_green/trial22.png,,,0,1,greenverival,a,22,25,M,2021-02-18_21h11.20.404,exp11,2020.2.6,MacIntel,60,,,,,,,,,,,
,,,,,,,,,,,,,,p,1,0.736,space,0.073,0,181,181,97,1,15_dist_green/trial23.png,,,1,15,greenverival,p,22,25,M,2021-02-18_21h11.20.404,exp11,2020.2.6,MacIntel,60,,,,,,,,,,,
,,,,,,,,,,,,,,a,1,0.687,space,0.124,0,182,182,116,1,0_targ_1_dist_green/trial17.png,,,0,1,greenverival,a,22,25,M,2021-02-18_21h11.20.404,exp11,2020.2.6,MacIntel,60,,,,,,,,,,,
,,,,,,,,,,,,,,a,1,0.752,space,0.137,0,183,183,113,1,0_targ_1_dist_green/trial14.png,,,0,1,greenverival,a,22,25,M,2021-02-18_21h11.20.404,exp11,2020.2.6,MacIntel,60,,,,,,,,,,,
,,,,,,,,,,,,,,p,1,0.72,space,0.102,0,184,184,91,1,15_dist_green/trial17.png,,,1,15,greenverival,p,22,25,M,2021-02-18_21h11.20.404,exp11,2020.2.6,MacIntel,60,,,,,,,,,,,
,,,,,,,,,,,,,,p,1,0.702,space,0.141,0,185,185,0,1,0_dist_green/trial1.png,,,1,0,greenverival,p,22,25,M,2021-02-18_21h11.20.404,exp11,2020.2.6,MacIntel,60,,,,,,,,,,,
,,,,,,,,,,,,,,p,1,0.635,space,0.24,0,186,186,38,1,3_dist_green/trial14.png,,,1,3,greenverival,p,22,25,M,2021-02-18_21h11.20.404,exp11,2020.2.6,MacIntel,60,,,,,,,,,,,
,,,,,,,,,,,,,,p,1,0.753,space,0.235,0,187,187,95,1,15_dist_green/trial21.png,,,1,15,greenverival,p,22,25,M,2021-02-18_21h11.20.404,exp11,2020.2.6,MacIntel,60,,,,,,,,,,,
,,,,,,,,,,,,,,p,1,0.452,space,0.286,0,188,188,14,1,0_dist_green/trial15.png,,,1,0,greenverival,p,22,25,M,2021-02-18_21h11.20.404,exp11,2020.2.6,MacIntel,60,,,,,,,,,,,
,,,,,,,,,,,,,,p,1,0.518,space,0.241,0,189,189,33,1,3_dist_green/trial9.png,,,1,3,greenverival,p,22,25,M,2021-02-18_21h11.20.404,exp11,2020.2.6,MacIntel,60,,,,,,,,,,,
,,,,,,,,,,,,,,a,1,0.635,space,0.157,0,190,190,114,1,0_targ_1_dist_green/trial15.png,,,0,1,greenverival,a,22,25,M,2021-02-18_21h11.20.404,exp11,2020.2.6,MacIntel,60,,,,,,,,,,,
,,,,,,,,,,,,,,a,1,0.903,space,0.199,0,191,191,155,1,0_targ_10_dist_green/trial6.png,,,0,10,greenverival,a,22,25,M,2021-02-18_21h11.20.404,exp11,2020.2.6,MacIntel,60,,,,,,,,,,,
,,,,,,,,,,,,,,p,1,0.636,space,0.225,0,192,192,48,1,3_dist_green/trial24.png,,,1,3,greenverival,p,22,25,M,2021-02-18_21h11.20.404,exp11,2020.2.6,MacIntel,60,,,,,,,,,,,
,,,,,,,,,,,,,,a,1,0.884,space,0.156,0,193,193,189,1,0_targ_16_dist_green/trial15.png,,,0,16,greenverival,a,22,25,M,2021-02-18_21h11.20.404,exp11,2020.2.6,MacIntel,60,,,,,,,,,,,
,,,,,,,,,,,,,,p,1,0.903,space,0.201,0,194,194,81,1,15_dist_green/trial7.png,,,1,15,greenverival,p,22,25,M,2021-02-18_21h11.20.404,exp11,2020.2.6,MacIntel,60,,,,,,,,,,,
,,,,,,,,,,,,,,a,1,0.803,space,0.191,0,195,195,163,1,0_targ_10_dist_green/trial14.png,,,0,10,greenverival,a,22,25,M,2021-02-18_21h11.20.404,exp11,2020.2.6,MacIntel,60,,,,,,,,,,,
,,,,,,,,,,,,,,p,1,0.852,space,0.207,0,196,196,82,1,15_dist_green/trial8.png,,,1,15,greenverival,p,22,25,M,2021-02-18_21h11.20.404,exp11,2020.2.6,MacIntel,60,,,,,,,,,,,
,,,,,,,,,,,,,,p,1,0.618,space,0.224,0,197,197,12,1,0_dist_green/trial13.png,,,1,0,greenverival,p,22,25,M,2021-02-18_21h11.20.404,exp11,2020.2.6,MacIntel,60,,,,,,,,,,,
,,,,,,,,,,,,,,p,1,0.552,space,0.317,0,198,198,15,1,0_dist_green/trial16.png,,,1,0,greenverival,p,22,25,M,2021-02-18_21h11.20.404,exp11,2020.2.6,MacIntel,60,,,,,,,,,,,
,,,,,,,,,,,,,,p,1,1.003,space,0.206,0,199,199,76,1,15_dist_green/trial2.png,,,1,15,greenverival,p,22,25,M,2021-02-18_21h11.20.404,exp11,2020.2.6,MacIntel,60,,,,,,,,,,,
,,,,,,,,,,,,,,,,,,,,,,,,,,,,,,,22,25,M,2021-02-18_21h11.20.404,exp11,2020.2.6,MacIntel,60,0,0,0,0,1,conGreen.xlsx,green vertical,Look for green vertical bar (target) and indicate if it is present or absent in the array. If green vertical target is present press 'p' and if absent press 'a'. Press SPACE to start.,,,
,,,,,,,,,,space,8.372,space,3.132,a,1,1.501,space,0.59,0,0,0,189,1,0_targ_16_dist_red/trial15.png,,,0,16,redHorizontal,a,22,25,M,2021-02-18_21h11.20.404,exp11,2020.2.6,MacIntel,60,,,,,,,,,,,
,,,,,,,,,,,,,,p,1,1.619,space,0.39,0,1,1,80,1,15_dist_red/trial6.png,,,1,15,redHorizontal,p,22,25,M,2021-02-18_21h11.20.404,exp11,2020.2.6,MacIntel,60,,,,,,,,,,,
,,,,,,,,,,,,,,a,1,1.252,space,1.018,0,2,2,122,1,0_targ_1_dist_red/trial23.png,,,0,1,redHorizontal,a,22,25,M,2021-02-18_21h11.20.404,exp11,2020.2.6,MacIntel,60,,,,,,,,,,,
,,,,,,,,,,,,,,a,1,1.719,space,0.351,0,3,3,138,1,0_targ_4_dist_red/trial14.png,,,0,4,redHorizontal,a,22,25,M,2021-02-18_21h11.20.404,exp11,2020.2.6,MacIntel,60,,,,,,,,,,,
,,,,,,,,,,,,,,a,0,1.169,space,1.353,0,4,4,46,1,3_dist_red/trial22.png,,,1,3,redHorizontal,p,22,25,M,2021-02-18_21h11.20.404,exp11,2020.2.6,MacIntel,60,,,,,,,,,,,
,,,,,,,,,,,,,,a,1,2.269,space,0.231,0,5,5,174,1,0_targ_10_dist_red/trial25.png,,,0,10,redHorizontal,a,22,25,M,2021-02-18_21h11.20.404,exp11,2020.2.6,MacIntel,60,,,,,,,,,,,
,,,,,,,,,,,,,,p,1,1.02,space,0.24,0,6,6,86,1,15_dist_red/trial12.png,,,1,15,redHorizontal,p,22,25,M,2021-02-18_21h11.20.404,exp11,2020.2.6,MacIntel,60,,,,,,,,,,,
,,,,,,,,,,,,,,p,1,1.186,space,0.174,0,7,7,12,1,0_dist_red/trial13.png,,,1,0,redHorizontal,p,22,25,M,2021-02-18_21h11.20.404,exp11,2020.2.6,MacIntel,60,,,,,,,,,,,
,,,,,,,,,,,,,,p,1,1.003,space,0.258,0,8,8,56,1,9_dist_red/trial7.png,,,1,9,redHorizontal,p,22,25,M,2021-02-18_21h11.20.404,exp11,2020.2.6,MacIntel,60,,,,,,,,,,,
,,,,,,,,,,,,,,a,1,1.335,space,0.255,0,9,9,154,1,0_targ_10_dist_red/trial5.png,,,0,10,redHorizontal,a,22,25,M,2021-02-18_21h11.20.404,exp11,2020.2.6,MacIntel,60,,,,,,,,,,,
,,,,,,,,,,,,,,p,1,0.936,space,0.192,0,10,10,85,1,15_dist_red/trial11.png,,,1,15,redHorizontal,p,22,25,M,2021-02-18_21h11.20.404,exp11,2020.2.6,MacIntel,60,,,,,,,,,,,
,,,,,,,,,,,,,,a,1,0.768,space,0.257,0,11,11,124,1,0_targ_1_dist_red/trial25.png,,,0,1,redHorizontal,a,22,25,M,2021-02-18_21h11.20.404,exp11,2020.2.6,MacIntel,60,,,,,,,,,,,
,,,,,,,,,,,,,,p,1,1.62,space,0.252,0,12,12,48,1,3_dist_red/trial24.png,,,1,3,redHorizontal,p,22,25,M,2021-02-18_21h11.20.404,exp11,2020.2.6,MacIntel,60,,,,,,,,,,,
,,,,,,,,,,,,,,p,1,1.436,space,0.219,0,13,13,70,1,9_dist_red/trial21.png,,,1,9,redHorizontal,p,22,25,M,2021-02-18_21h11.20.404,exp11,2020.2.6,MacIntel,60,,,,,,,,,,,
,,,,,,,,,,,,,,a,1,0.736,space,0.235,0,14,14,133,1,0_targ_4_dist_red/trial9.png,,,0,4,redHorizontal,a,22,25,M,2021-02-18_21h11.20.404,exp11,2020.2.6,MacIntel,60,,,,,,,,,,,
,,,,,,,,,,,,,,p,1,1.002,space,0.185,0,15,15,73,1,9_dist_red/trial24.png,,,1,9,redHorizontal,p,22,25,M,2021-02-18_21h11.20.404,exp11,2020.2.6,MacIntel,60,,,,,,,,,,,
,,,,,,,,,,,,,,a,1,1.202,space,0.203,0,16,16,170,1,0_targ_10_dist_red/trial21.png,,,0,10,redHorizontal,a,22,25,M,2021-02-18_21h11.20.404,exp11,2020.2.6,MacIntel,60,,,,,,,,,,,
,,,,,,,,,,,,,,p,1,1.069,space,0.217,0,17,17,89,1,15_dist_red/trial15.png,,,1,15,redHorizontal,p,22,25,M,2021-02-18_21h11.20.404,exp11,2020.2.6,MacIntel,60,,,,,,,,,,,
,,,,,,,,,,,,,,p,1,1.019,space,0.223,0,18,18,68,1,9_dist_red/trial19.png,,,1,9,redHorizontal,p,22,25,M,2021-02-18_21h11.20.404,exp11,2020.2.6,MacIntel,60,,,,,,,,,,,
,,,,,,,,,,,,,,a,1,0.886,space,0.223,0,19,19,148,1,0_targ_4_dist_red/trial24.png,,,0,4,redHorizontal,a,22,25,M,2021-02-18_21h11.20.404,exp11,2020.2.6,MacIntel,60,,,,,,,,,,,
,,,,,,,,,,,,,,a,1,0.852,space,0.186,0,20,20,106,1,0_targ_1_dist_red/trial7.png,,,0,1,redHorizontal,a,22,25,M,2021-02-18_21h11.20.404,exp11,2020.2.6,MacIntel,60,,,,,,,,,,,
,,,,,,,,,,,,,,a,1,0.803,space,0.252,0,21,21,165,1,0_targ_10_dist_red/trial16.png,,,0,10,redHorizontal,a,22,25,M,2021-02-18_21h11.20.404,exp11,2020.2.6,MacIntel,60,,,,,,,,,,,
,,,,,,,,,,,,,,p,1,0.653,space,0.207,0,22,22,37,1,3_dist_red/trial13.png,,,1,3,redHorizontal,p,22,25,M,2021-02-18_21h11.20.404,exp11,2020.2.6,MacIntel,60,,,,,,,,,,,
,,,,,,,,,,,,,,a,1,0.77,space,0.19,0,23,23,110,1,0_targ_1_dist_red/trial11.png,,,0,1,redHorizontal,a,22,25,M,2021-02-18_21h11.20.404,exp11,2020.2.6,MacIntel,60,,,,,,,,,,,
,,,,,,,,,,,,,,p,1,0.62,space,0.191,0,24,24,11,1,0_dist_red/trial12.png,,,1,0,redHorizontal,p,22,25,M,2021-02-18_21h11.20.404,exp11,2020.2.6,MacIntel,60,,,,,,,,,,,
,,,,,,,,,,,,,,p,1,0.685,space,0.19,0,25,25,5,1,0_dist_red/trial6.png,,,1,0,redHorizontal,p,22,25,M,2021-02-18_21h11.20.404,exp11,2020.2.6,MacIntel,60,,,,,,,,,,,
,,,,,,,,,,,,,,p,1,0.869,space,0.224,0,26,26,49,1,3_dist_red/trial25.png,,,1,3,redHorizontal,p,22,25,M,2021-02-18_21h11.20.404,exp11,2020.2.6,MacIntel,60,,,,,,,,,,,
,,,,,,,,,,,,,,a,1,0.668,space,0.274,0,27,27,116,1,0_targ_1_dist_red/trial17.png,,,0,1,redHorizontal,a,22,25,M,2021-02-18_21h11.20.404,exp11,2020.2.6,MacIntel,60,,,,,,,,,,,
,,,,,,,,,,,,,,p,1,0.703,space,0.119,0,28,28,67,1,9_dist_red/trial18.png,,,1,9,redHorizontal,p,22,25,M,2021-02-18_21h11.20.404,exp11,2020.2.6,MacIntel,60,,,,,,,,,,,
,,,,,,,,,,,,,,a,1,0.968,space,0.207,0,29,29,143,1,0_targ_4_dist_red/trial19.png,,,0,4,redHorizontal,a,22,25,M,2021-02-18_21h11.20.404,exp11,2020.2.6,MacIntel,60,,,,,,,,,,,
,,,,,,,,,,,,,,a,1,0.736,space,0.218,0,30,30,134,1,0_targ_4_dist_red/trial10.png,,,0,4,redHorizontal,a,22,25,M,2021-02-18_21h11.20.404,exp11,2020.2.6,MacIntel,60,,,,,,,,,,,
,,,,,,,,,,,,,,a,1,0.686,space,0.256,0,31,31,119,1,0_targ_1_dist_red/trial20.png,,,0,1,redHorizontal,a,22,25,M,2021-02-18_21h11.20.404,exp11,2020.2.6,MacIntel,60,,,,,,,,,,,
,,,,,,,,,,,,,,a,1,0.62,space,0.257,0,32,32,101,1,0_targ_1_dist_red/trial2.png,,,0,1,redHorizontal,a,22,25,M,2021-02-18_21h11.20.404,exp11,2020.2.6,MacIntel,60,,,,,,,,,,,
,,,,,,,,,,,,,,p,1,1.136,space,0.169,0,33,33,40,1,3_dist_red/trial16.png,,,1,3,redHorizontal,p,22,25,M,2021-02-18_21h11.20.404,exp11,2020.2.6,MacIntel,60,,,,,,,,,,,
,,,,,,,,,,,,,,a,1,0.669,space,0.235,0,34,34,113,1,0_targ_1_dist_red/trial14.png,,,0,1,redHorizontal,a,22,25,M,2021-02-18_21h11.20.404,exp11,2020.2.6,MacIntel,60,,,,,,,,,,,
,,,,,,,,,,,,,,p,1,0.685,space,0.236,0,35,35,61,1,9_dist_red/trial12.png,,,1,9,redHorizontal,p,22,25,M,2021-02-18_21h11.20.404,exp11,2020.2.6,MacIntel,60,,,,,,,,,,,
,,,,,,,,,,,,,,a,1,1.002,space,0.173,0,36,36,150,1,0_targ_10_dist_red/trial1.png,,,0,10,redHorizontal,a,22,25,M,2021-02-18_21h11.20.404,exp11,2020.2.6,MacIntel,60,,,,,,,,,,,
,,,,,,,,,,,,,,p,1,0.653,space,0.223,0,37,37,33,1,3_dist_red/trial9.png,,,1,3,redHorizontal,p,22,25,M,2021-02-18_21h11.20.404,exp11,2020.2.6,MacIntel,60,,,,,,,,,,,
,,,,,,,,,,,,,,a,1,1.285,space,0.219,0,38,38,171,1,0_targ_10_dist_red/trial22.png,,,0,10,redHorizontal,a,22,25,M,2021-02-18_21h11.20.404,exp11,2020.2.6,MacIntel,60,,,,,,,,,,,
,,,,,,,,,,,,,,p,1,0.768,space,0.223,0,39,39,99,1,15_dist_red/trial25.png,,,1,15,redHorizontal,p,22,25,M,2021-02-18_21h11.20.404,exp11,2020.2.6,MacIntel,60,,,,,,,,,,,
,,,,,,,,,,,,,,p,1,0.919,space,0.205,0,40,40,59,1,9_dist_red/trial10.png,,,1,9,redHorizontal,p,22,25,M,2021-02-18_21h11.20.404,exp11,2020.2.6,MacIntel,60,,,,,,,,,,,
,,,,,,,,,,,,,,p,1,0.719,space,0.219,0,41,41,63,1,9_dist_red/trial14.png,,,1,9,redHorizontal,p,22,25,M,2021-02-18_21h11.20.404,exp11,2020.2.6,MacIntel,60,,,,,,,,,,,
,,,,,,,,,,,,,,p,1,1.004,space,0.202,0,42,42,75,1,15_dist_red/trial1.png,,,1,15,redHorizontal,p,22,25,M,2021-02-18_21h11.20.404,exp11,2020.2.6,MacIntel,60,,,,,,,,,,,
,,,,,,,,,,,,,,a,1,0.62,space,0.252,0,43,43,117,1,0_targ_1_dist_red/trial18.png,,,0,1,redHorizontal,a,22,25,M,2021-02-18_21h11.20.404,exp11,2020.2.6,MacIntel,60,,,,,,,,,,,
,,,,,,,,,,,,,,p,1,0.57,space,0.235,0,44,44,10,1,0_dist_red/trial11.png,,,1,0,redHorizontal,p,22,25,M,2021-02-18_21h11.20.404,exp11,2020.2.6,MacIntel,60,,,,,,,,,,,
,,,,,,,,,,,,,,a,1,0.919,space,0.203,0,45,45,185,1,0_targ_16_dist_red/trial11.png,,,0,16,redHorizontal,a,22,25,M,2021-02-18_21h11.20.404,exp11,2020.2.6,MacIntel,60,,,,,,,,,,,
,,,,,,,,,,,,,,p,1,0.551,space,0.208,0,46,46,62,1,9_dist_red/trial13.png,,,1,9,redHorizontal,p,22,25,M,2021-02-18_21h11.20.404,exp11,2020.2.6,MacIntel,60,,,,,,,,,,,
,,,,,,,,,,,,,,a,1,1.818,space,0.219,0,47,47,105,1,0_targ_1_dist_red/trial6.png,,,0,1,redHorizontal,a,22,25,M,2021-02-18_21h11.20.404,exp11,2020.2.6,MacIntel,60,,,,,,,,,,,
,,,,,,,,,,,,,,a,1,1.169,space,0.24,0,48,48,197,1,0_targ_16_dist_red/trial23.png,,,0,16,redHorizontal,a,22,25,M,2021-02-18_21h11.20.404,exp11,2020.2.6,MacIntel,60,,,,,,,,,,,
,,,,,,,,,,,,,,p,1,0.769,space,0.19,0,49,49,28,1,3_dist_red/trial4.png,,,1,3,redHorizontal,p,22,25,M,2021-02-18_21h11.20.404,exp11,2020.2.6,MacIntel,60,,,,,,,,,,,
,,,,,,,,,,,,,,p,1,0.602,space,0.256,0,50,50,22,1,0_dist_red/trial23.png,,,1,0,redHorizontal,p,22,25,M,2021-02-18_21h11.20.404,exp11,2020.2.6,MacIntel,60,,,,,,,,,,,
,,,,,,,,,,,,,,a,1,0.736,space,0.273,0,51,51,193,1,0_targ_16_dist_red/trial19.png,,,0,16,redHorizontal,a,22,25,M,2021-02-18_21h11.20.404,exp11,2020.2.6,MacIntel,60,,,,,,,,,,,
,,,,,,,,,,,,,,a,1,0.803,space,0.218,0,52,52,145,1,0_targ_4_dist_red/trial21.png,,,0,4,redHorizontal,a,22,25,M,2021-02-18_21h11.20.404,exp11,2020.2.6,MacIntel,60,,,,,,,,,,,
,,,,,,,,,,,,,,p,1,0.603,space,0.207,0,53,53,83,1,15_dist_red/trial9.png,,,1,15,redHorizontal,p,22,25,M,2021-02-18_21h11.20.404,exp11,2020.2.6,MacIntel,60,,,,,,,,,,,
,,,,,,,,,,,,,,p,1,0.585,space,0.203,0,54,54,58,1,9_dist_red/trial9.png,,,1,9,redHorizontal,p,22,25,M,2021-02-18_21h11.20.404,exp11,2020.2.6,MacIntel,60,,,,,,,,,,,
,,,,,,,,,,,,,,a,1,0.918,space,0.236,0,55,55,157,1,0_targ_10_dist_red/trial8.png,,,0,10,redHorizontal,a,22,25,M,2021-02-18_21h11.20.404,exp11,2020.2.6,MacIntel,60,,,,,,,,,,,
,,,,,,,,,,,,,,a,1,1.151,space,0.204,0,56,56,188,1,0_targ_16_dist_red/trial14.png,,,0,16,redHorizontal,a,22,25,M,2021-02-18_21h11.20.404,exp11,2020.2.6,MacIntel,60,,,,,,,,,,,
,,,,,,,,,,,,,,p,1,0.52,space,0.191,0,57,57,39,1,3_dist_red/trial15.png,,,1,3,redHorizontal,p,22,25,M,2021-02-18_21h11.20.404,exp11,2020.2.6,MacIntel,60,,,,,,,,,,,
,,,,,,,,,,,,,,p,1,0.569,space,0.386,0,58,58,93,1,15_dist_red/trial19.png,,,1,15,redHorizontal,p,22,25,M,2021-02-18_21h11.20.404,exp11,2020.2.6,MacIntel,60,,,,,,,,,,,
,,,,,,,,,,,,,,a,1,0.936,space,0.207,0,59,59,162,1,0_targ_10_dist_red/trial13.png,,,0,10,redHorizontal,a,22,25,M,2021-02-18_21h11.20.404,exp11,2020.2.6,MacIntel,60,,,,,,,,,,,
,,,,,,,,,,,,,,a,1,0.618,space,0.202,0,60,60,166,1,0_targ_10_dist_red/trial17.png,,,0,10,redHorizontal,a,22,25,M,2021-02-18_21h11.20.404,exp11,2020.2.6,MacIntel,60,,,,,,,,,,,
,,,,,,,,,,,,,,a,1,0.786,space,0.224,0,61,61,176,1,0_targ_16_dist_red/trial2.png,,,0,16,redHorizontal,a,22,25,M,2021-02-18_21h11.20.404,exp11,2020.2.6,MacIntel,60,,,,,,,,,,,
,,,,,,,,,,,,,,a,0,0.719,space,0.209,0,62,62,84,1,15_dist_red/trial10.png,,,1,15,redHorizontal,p,22,25,M,2021-02-18_21h11.20.404,exp11,2020.2.6,MacIntel,60,,,,,,,,,,,
,,,,,,,,,,,,,,a,1,1.017,space,0.215,0,63,63,164,1,0_targ_10_dist_red/trial15.png,,,0,10,redHorizontal,a,22,25,M,2021-02-18_21h11.20.404,exp11,2020.2.6,MacIntel,60,,,,,,,,,,,
,,,,,,,,,,,,,,a,1,0.751,space,0.19,0,64,64,140,1,0_targ_4_dist_red/trial6.png,,,0,4,redHorizontal,a,22,25,M,2021-02-18_21h11.20.404,exp11,2020.2.6,MacIntel,60,,,,,,,,,,,
,,,,,,,,,,,,,,a,1,0.835,space,0.186,0,65,65,120,1,0_targ_1_dist_red/trial21.png,,,0,1,redHorizontal,a,22,25,M,2021-02-18_21h11.20.404,exp11,2020.2.6,MacIntel,60,,,,,,,,,,,
,,,,,,,,,,,,,,p,1,0.852,space,0.218,0,66,66,45,1,3_dist_red/trial21.png,,,1,3,redHorizontal,p,22,25,M,2021-02-18_21h11.20.404,exp11,2020.2.6,MacIntel,60,,,,,,,,,,,
,,,,,,,,,,,,,,a,1,0.652,space,0.236,0,67,67,191,1,0_targ_16_dist_red/trial17.png,,,0,16,redHorizontal,a,22,25,M,2021-02-18_21h11.20.404,exp11,2020.2.6,MacIntel,60,,,,,,,,,,,
,,,,,,,,,,,,,,p,1,0.636,space,0.202,0,68,68,74,1,9_dist_red/trial25.png,,,1,9,redHorizontal,p,22,25,M,2021-02-18_21h11.20.404,exp11,2020.2.6,MacIntel,60,,,,,,,,,,,
,,,,,,,,,,,,,,p,1,0.568,space,0.224,0,69,69,38,1,3_dist_red/trial14.png,,,1,3,redHorizontal,p,22,25,M,2021-02-18_21h11.20.404,exp11,2020.2.6,MacIntel,60,,,,,,,,,,,
,,,,,,,,,,,,,,a,1,0.668,space,0.24,0,70,70,158,1,0_targ_10_dist_red/trial9.png,,,0,10,redHorizontal,a,22,25,M,2021-02-18_21h11.20.404,exp11,2020.2.6,MacIntel,60,,,,,,,,,,,
,,,,,,,,,,,,,,a,1,0.819,space,0.219,0,71,71,190,1,0_targ_16_dist_red/trial16.png,,,0,16,redHorizontal,a,22,25,M,2021-02-18_21h11.20.404,exp11,2020.2.6,MacIntel,60,,,,,,,,,,,
,,,,,,,,,,,,,,p,1,0.552,space,0.224,0,72,72,19,1,0_dist_red/trial20.png,,,1,0,redHorizontal,p,22,25,M,2021-02-18_21h11.20.404,exp11,2020.2.6,MacIntel,60,,,,,,,,,,,
,,,,,,,,,,,,,,a,1,0.586,space,0.235,0,73,73,177,1,0_targ_16_dist_red/trial3.png,,,0,16,redHorizontal,a,22,25,M,2021-02-18_21h11.20.404,exp11,2020.2.6,MacIntel,60,,,,,,,,,,,
,,,,,,,,,,,,,,a,1,0.719,space,0.223,0,74,74,181,1,0_targ_16_dist_red/trial7.png,,,0,16,redHorizontal,a,22,25,M,2021-02-18_21h11.20.404,exp11,2020.2.6,MacIntel,60,,,,,,,,,,,
,,,,,,,,,,,,,,p,1,0.486,space,0.191,0,75,75,13,1,0_dist_red/trial14.png,,,1,0,redHorizontal,p,22,25,M,2021-02-18_21h11.20.404,exp11,2020.2.6,MacIntel,60,,,,,,,,,,,
,,,,,,,,,,,,,,a,1,0.601,space,0.257,0,76,76,198,1,0_targ_16_dist_red/trial24.png,,,0,16,redHorizontal,a,22,25,M,2021-02-18_21h11.20.404,exp11,2020.2.6,MacIntel,60,,,,,,,,,,,
,,,,,,,,,,,,,,p,1,0.469,space,0.206,0,77,77,8,1,0_dist_red/trial9.png,,,1,0,redHorizontal,p,22,25,M,2021-02-18_21h11.20.404,exp11,2020.2.6,MacIntel,60,,,,,,,,,,,
,,,,,,,,,,,,,,a,0,0.453,space,0.091,0,78,78,0,1,0_dist_red/trial1.png,,,1,0,redHorizontal,p,22,25,M,2021-02-18_21h11.20.404,exp11,2020.2.6,MacIntel,60,,,,,,,,,,,
,,,,,,,,,,,,,,p,1,1.002,space,0.215,0,79,79,42,1,3_dist_red/trial18.png,,,1,3,redHorizontal,p,22,25,M,2021-02-18_21h11.20.404,exp11,2020.2.6,MacIntel,60,,,,,,,,,,,
,,,,,,,,,,,,,,p,1,0.719,space,0.219,0,80,80,77,1,15_dist_red/trial3.png,,,1,15,redHorizontal,p,22,25,M,2021-02-18_21h11.20.404,exp11,2020.2.6,MacIntel,60,,,,,,,,,,,
,,,,,,,,,,,,,,a,1,1.102,space,0.224,0,81,81,182,1,0_targ_16_dist_red/trial8.png,,,0,16,redHorizontal,a,22,25,M,2021-02-18_21h11.20.404,exp11,2020.2.6,MacIntel,60,,,,,,,,,,,
,,,,,,,,,,,,,,a,1,0.568,space,0.185,0,82,82,102,1,0_targ_1_dist_red/trial3.png,,,0,1,redHorizontal,a,22,25,M,2021-02-18_21h11.20.404,exp11,2020.2.6,MacIntel,60,,,,,,,,,,,
,,,,,,,,,,,,,,a,1,0.685,space,0.369,0,83,83,144,1,0_targ_4_dist_red/trial20.png,,,0,4,redHorizontal,a,22,25,M,2021-02-18_21h11.20.404,exp11,2020.2.6,MacIntel,60,,,,,,,,,,,
,,,,,,,,,,,,,,a,1,0.535,space,0.273,0,84,84,125,1,0_targ_4_dist_red/trial1.png,,,0,4,redHorizontal,a,22,25,M,2021-02-18_21h11.20.404,exp11,2020.2.6,MacIntel,60,,,,,,,,,,,
,,,,,,,,,,,,,,p,1,0.603,space,0.208,0,85,85,4,1,0_dist_red/trial5.png,,,1,0,redHorizontal,p,22,25,M,2021-02-18_21h11.20.404,exp11,2020.2.6,MacIntel,60,,,,,,,,,,,
,,,,,,,,,,,,,,p,1,1.302,space,0.274,0,86,86,60,1,9_dist_red/trial11.png,,,1,9,redHorizontal,p,22,25,M,2021-02-18_21h11.20.404,exp11,2020.2.6,MacIntel,60,,,,,,,,,,,
,,,,,,,,,,,,,,p,1,0.769,space,0.274,0,87,87,35,1,3_dist_red/trial11.png,,,1,3,redHorizontal,p,22,25,M,2021-02-18_21h11.20.404,exp11,2020.2.6,MacIntel,60,,,,,,,,,,,
,,,,,,,,,,,,,,p,1,0.819,space,0.235,0,88,88,79,1,15_dist_red/trial5.png,,,1,15,redHorizontal,p,22,25,M,2021-02-18_21h11.20.404,exp11,2020.2.6,MacIntel,60,,,,,,,,,,,
,,,,,,,,,,,,,,p,1,0.503,space,0.229,0,89,89,6,1,0_dist_red/trial7.png,,,1,0,redHorizontal,p,22,25,M,2021-02-18_21h11.20.404,exp11,2020.2.6,MacIntel,60,,,,,,,,,,,
,,,,,,,,,,,,,,a,1,0.819,space,0.219,0,90,90,152,1,0_targ_10_dist_red/trial3.png,,,0,10,redHorizontal,a,22,25,M,2021-02-18_21h11.20.404,exp11,2020.2.6,MacIntel,60,,,,,,,,,,,
,,,,,,,,,,,,,,a,1,0.786,space,0.202,0,91,91,173,1,0_targ_10_dist_red/trial24.png,,,0,10,redHorizontal,a,22,25,M,2021-02-18_21h11.20.404,exp11,2020.2.6,MacIntel,60,,,,,,,,,,,
,,,,,,,,,,,,,,a,1,0.62,space,0.224,0,92,92,118,1,0_targ_1_dist_red/trial19.png,,,0,1,redHorizontal,a,22,25,M,2021-02-18_21h11.20.404,exp11,2020.2.6,MacIntel,60,,,,,,,,,,,
,,,,,,,,,,,,,,a,1,0.553,space,0.369,0,93,93,178,1,0_targ_16_dist_red/trial4.png,,,0,16,redHorizontal,a,22,25,M,2021-02-18_21h11.20.404,exp11,2020.2.6,MacIntel,60,,,,,,,,,,,
,,,,,,,,,,,,,,p,1,0.568,space,0.224,0,94,94,41,1,3_dist_red/trial17.png,,,1,3,redHorizontal,p,22,25,M,2021-02-18_21h11.20.404,exp11,2020.2.6,MacIntel,60,,,,,,,,,,,
,,,,,,,,,,,,,,a,1,0.519,space,0.307,0,95,95,112,1,0_targ_1_dist_red/trial13.png,,,0,1,redHorizontal,a,22,25,M,2021-02-18_21h11.20.404,exp11,2020.2.6,MacIntel,60,,,,,,,,,,,
,,,,,,,,,,,,,,a,1,1.036,space,0.24,0,96,96,149,1,0_targ_4_dist_red/trial25.png,,,0,4,redHorizontal,a,22,25,M,2021-02-18_21h11.20.404,exp11,2020.2.6,MacIntel,60,,,,,,,,,,,
,,,,,,,,,,,,,,p,1,0.619,space,0.256,0,97,97,53,1,9_dist_red/trial4.png,,,1,9,redHorizontal,p,22,25,M,2021-02-18_21h11.20.404,exp11,2020.2.6,MacIntel,60,,,,,,,,,,,
,,,,,,,,,,,,,,a,1,0.519,space,0.236,0,98,98,114,1,0_targ_1_dist_red/trial15.png,,,0,1,redHorizontal,a,22,25,M,2021-02-18_21h11.20.404,exp11,2020.2.6,MacIntel,60,,,,,,,,,,,
,,,,,,,,,,,,,,a,1,0.735,space,0.223,0,99,99,107,1,0_targ_1_dist_red/trial8.png,,,0,1,redHorizontal,a,22,25,M,2021-02-18_21h11.20.404,exp11,2020.2.6,MacIntel,60,,,,,,,,,,,
,,,,,,,,,,,,,,p,1,0.501,space,0.207,0,100,100,9,1,0_dist_red/trial10.png,,,1,0,redHorizontal,p,22,25,M,2021-02-18_21h11.20.404,exp11,2020.2.6,MacIntel,60,,,,,,,,,,,
,,,,,,,,,,,,,,p,1,0.552,space,0.307,0,101,101,20,1,0_dist_red/trial21.png,,,1,0,redHorizontal,p,22,25,M,2021-02-18_21h11.20.404,exp11,2020.2.6,MacIntel,60,,,,,,,,,,,
,,,,,,,,,,,,,,a,1,0.652,space,0.258,0,102,102,151,1,0_targ_10_dist_red/trial2.png,,,0,10,redHorizontal,a,22,25,M,2021-02-18_21h11.20.404,exp11,2020.2.6,MacIntel,60,,,,,,,,,,,
,,,,,,,,,,,,,,p,1,0.669,space,0.224,0,103,103,96,1,15_dist_red/trial22.png,,,1,15,redHorizontal,p,22,25,M,2021-02-18_21h11.20.404,exp11,2020.2.6,MacIntel,60,,,,,,,,,,,
,,,,,,,,,,,,,,a,1,0.536,space,0.219,0,104,104,127,1,0_targ_4_dist_red/trial3.png,,,0,4,redHorizontal,a,22,25,M,2021-02-18_21h11.20.404,exp11,2020.2.6,MacIntel,60,,,,,,,,,,,
,,,,,,,,,,,,,,p,1,0.453,space,0.235,0,105,105,17,1,0_dist_red/trial18.png,,,1,0,redHorizontal,p,22,25,M,2021-02-18_21h11.20.404,exp11,2020.2.6,MacIntel,60,,,,,,,,,,,
,,,,,,,,,,,,,,p,1,0.653,space,0.236,0,106,106,66,1,9_dist_red/trial17.png,,,1,9,redHorizontal,p,22,25,M,2021-02-18_21h11.20.404,exp11,2020.2.6,MacIntel,60,,,,,,,,,,,
,,,,,,,,,,,,,,p,1,0.551,space,0.219,0,107,107,92,1,15_dist_red/trial18.png,,,1,15,redHorizontal,p,22,25,M,2021-02-18_21h11.20.404,exp11,2020.2.6,MacIntel,60,,,,,,,,,,,
,,,,,,,,,,,,,,p,1,0.569,space,0.24,0,108,108,90,1,15_dist_red/trial16.png,,,1,15,redHorizontal,p,22,25,M,2021-02-18_21h11.20.404,exp11,2020.2.6,MacIntel,60,,,,,,,,,,,
,,,,,,,,,,,,,,a,1,0.852,space,0.208,0,109,109,160,1,0_targ_10_dist_red/trial11.png,,,0,10,redHorizontal,a,22,25,M,2021-02-18_21h11.20.404,exp11,2020.2.6,MacIntel,60,,,,,,,,,,,
,,,,,,,,,,,,,,p,0,0.585,space,1.057,0,110,110,186,1,0_targ_16_dist_red/trial12.png,,,0,16,redHorizontal,a,22,25,M,2021-02-18_21h11.20.404,exp11,2020.2.6,MacIntel,60,,,,,,,,,,,
,,,,,,,,,,,,,,p,1,0.653,space,0.215,0,111,111,71,1,9_dist_red/trial22.png,,,1,9,redHorizontal,p,22,25,M,2021-02-18_21h11.20.404,exp11,2020.2.6,MacIntel,60,,,,,,,,,,,
,,,,,,,,,,,,,,a,1,0.653,space,0.273,0,112,112,136,1,0_targ_4_dist_red/trial12.png,,,0,4,redHorizontal,a,22,25,M,2021-02-18_21h11.20.404,exp11,2020.2.6,MacIntel,60,,,,,,,,,,,
,,,,,,,,,,,,,,a,1,0.785,space,0.202,0,113,113,141,1,0_targ_4_dist_red/trial17.png,,,0,4,redHorizontal,a,22,25,M,2021-02-18_21h11.20.404,exp11,2020.2.6,MacIntel,60,,,,,,,,,,,
,,,,,,,,,,,,,,p,1,0.836,space,0.236,0,114,114,76,1,15_dist_red/trial2.png,,,1,15,redHorizontal,p,22,25,M,2021-02-18_21h11.20.404,exp11,2020.2.6,MacIntel,60,,,,,,,,,,,
,,,,,,,,,,,,,,a,1,0.599,space,0.235,0,115,115,115,1,0_targ_1_dist_red/trial6.png,,,0,1,redHorizontal,a,22,25,M,2021-02-18_21h11.20.404,exp11,2020.2.6,MacIntel,60,,,,,,,,,,,
,,,,,,,,,,,,,,p,1,0.652,space,0.219,0,116,116,72,1,9_dist_red/trial23.png,,,1,9,redHorizontal,p,22,25,M,2021-02-18_21h11.20.404,exp11,2020.2.6,MacIntel,60,,,,,,,,,,,
,,,,,,,,,,,,,,a,1,0.668,space,0.257,0,117,117,142,1,0_targ_4_dist_red/trial18.png,,,0,4,redHorizontal,a,22,25,M,2021-02-18_21h11.20.404,exp11,2020.2.6,MacIntel,60,,,,,,,,,,,
,,,,,,,,,,,,,,p,1,0.591,space,0.213,0,118,118,43,1,3_dist_red/trial19.png,,,1,3,redHorizontal,p,22,25,M,2021-02-18_21h11.20.404,exp11,2020.2.6,MacIntel,60,,,,,,,,,,,
,,,,,,,,,,,,,,a,1,0.636,space,0.235,0,119,119,155,1,0_targ_10_dist_red/trial6.png,,,0,10,redHorizontal,a,22,25,M,2021-02-18_21h11.20.404,exp11,2020.2.6,MacIntel,60,,,,,,,,,,,
,,,,,,,,,,,,,,p,1,0.669,space,0.268,0,120,120,25,1,3_dist_red/trial1.png,,,1,3,redHorizontal,p,22,25,M,2021-02-18_21h11.20.404,exp11,2020.2.6,MacIntel,60,,,,,,,,,,,
,,,,,,,,,,,,,,p,1,1.003,space,0.207,0,121,121,81,1,15_dist_red/trial7.png,,,1,15,redHorizontal,p,22,25,M,2021-02-18_21h11.20.404,exp11,2020.2.6,MacIntel,60,,,,,,,,,,,
,,,,,,,,,,,,,,p,1,0.669,space,0.219,0,122,122,26,1,3_dist_red/trial2.png,,,1,3,redHorizontal,p,22,25,M,2021-02-18_21h11.20.404,exp11,2020.2.6,MacIntel,60,,,,,,,,,,,
,,,,,,,,,,,,,,a,1,0.569,space,0.252,0,123,123,135,1,0_targ_4_dist_red/trial11.png,,,0,4,redHorizontal,a,22,25,M,2021-02-18_21h11.20.404,exp11,2020.2.6,MacIntel,60,,,,,,,,,,,
,,,,,,,,,,,,,,a,1,0.769,space,0.17,0,124,124,146,1,0_targ_4_dist_red/trial22.png,,,0,4,redHorizontal,a,22,25,M,2021-02-18_21h11.20.404,exp11,2020.2.6,MacIntel,60,,,,,,,,,,,
,,,,,,,,,,,,,,a,1,0.651,space,0.202,0,125,125,126,1,0_targ_4_dist_red/trial2.png,,,0,4,redHorizontal,a,22,25,M,2021-02-18_21h11.20.404,exp11,2020.2.6,MacIntel,60,,,,,,,,,,,
,,,,,,,,,,,,,,p,1,0.619,space,0.19,0,126,126,7,1,0_dist_red/trial8.png,,,1,0,redHorizontal,p,22,25,M,2021-02-18_21h11.20.404,exp11,2020.2.6,MacIntel,60,,,,,,,,,,,
,,,,,,,,,,,,,,p,1,0.769,space,0.236,0,127,127,29,1,3_dist_red/trial5.png,,,1,3,redHorizontal,p,22,25,M,2021-02-18_21h11.20.404,exp11,2020.2.6,MacIntel,60,,,,,,,,,,,
,,,,,,,,,,,,,,a,1,0.685,space,0.224,0,128,128,194,1,0_targ_16_dist_red/trial20.png,,,0,16,redHorizontal,a,22,25,M,2021-02-18_21h11.20.404,exp11,2020.2.6,MacIntel,60,,,,,,,,,,,
,,,,,,,,,,,,,,p,1,1.252,space,0.285,0,129,129,95,1,15_dist_red/trial21.png,,,1,15,redHorizontal,p,22,25,M,2021-02-18_21h11.20.404,exp11,2020.2.6,MacIntel,60,,,,,,,,,,,
,,,,,,,,,,,,,,a,1,0.586,space,0.208,0,130,130,172,1,0_targ_10_dist_red/trial23.png,,,0,10,redHorizontal,a,22,25,M,2021-02-18_21h11.20.404,exp11,2020.2.6,MacIntel,60,,,,,,,,,,,
,,,,,,,,,,,,,,a,1,1.102,space,0.186,0,131,131,187,1,0_targ_16_dist_red/trial13.png,,,0,16,redHorizontal,a,22,25,M,2021-02-18_21h11.20.404,exp11,2020.2.6,MacIntel,60,,,,,,,,,,,
,,,,,,,,,,,,,,a,1,0.819,space,0.191,0,132,132,147,1,0_targ_4_dist_red/trial23.png,,,0,4,redHorizontal,a,22,25,M,2021-02-18_21h11.20.404,exp11,2020.2.6,MacIntel,60,,,,,,,,,,,
,,,,,,,,,,,,,,a,1,0.585,space,0.219,0,133,133,108,1,0_targ_1_dist_red/trial9.png,,,0,1,redHorizontal,a,22,25,M,2021-02-18_21h11.20.404,exp11,2020.2.6,MacIntel,60,,,,,,,,,,,
,,,,,,,,,,,,,,a,1,0.568,space,0.202,0,134,134,131,1,0_targ_4_dist_red/trial7.png,,,0,4,redHorizontal,a,22,25,M,2021-02-18_21h11.20.404,exp11,2020.2.6,MacIntel,60,,,,,,,,,,,
,,,,,,,,,,,,,,a,0,0.552,space,0.074,0,135,135,50,1,9_dist_red/trial1.png,,,1,9,redHorizontal,p,22,25,M,2021-02-18_21h11.20.404,exp11,2020.2.6,MacIntel,60,,,,,,,,,,,
,,,,,,,,,,,,,,p,1,1.119,space,0.215,0,136,136,69,1,9_dist_red/trial20.png,,,1,9,redHorizontal,p,22,25,M,2021-02-18_21h11.20.404,exp11,2020.2.6,MacIntel,60,,,,,,,,,,,
,,,,,,,,,,,,,,a,1,0.786,space,0.203,0,137,137,199,1,0_targ_16_dist_red/trial25.png,,,0,16,redHorizontal,a,22,25,M,2021-02-18_21h11.20.404,exp11,2020.2.6,MacIntel,60,,,,,,,,,,,
,,,,,,,,,,,,,,a,1,0.602,space,0.219,0,138,138,139,1,0_targ_4_dist_red/trial15.png,,,0,4,redHorizontal,a,22,25,M,2021-02-18_21h11.20.404,exp11,2020.2.6,MacIntel,60,,,,,,,,,,,
,,,,,,,,,,,,,,a,1,0.636,space,0.186,0,139,139,167,1,0_targ_10_dist_red/trial18.png,,,0,10,redHorizontal,a,22,25,M,2021-02-18_21h11.20.404,exp11,2020.2.6,MacIntel,60,,,,,,,,,,,
,,,,,,,,,,,,,,a,1,0.719,space,0.219,0,140,140,159,1,0_targ_10_dist_red/trial10.png,,,0,10,redHorizontal,a,22,25,M,2021-02-18_21h11.20.404,exp11,2020.2.6,MacIntel,60,,,,,,,,,,,
,,,,,,,,,,,,,,p,1,0.602,space,0.202,0,141,141,47,1,3_dist_red/trial23.png,,,1,3,redHorizontal,p,22,25,M,2021-02-18_21h11.20.404,exp11,2020.2.6,MacIntel,60,,,,,,,,,,,
,,,,,,,,,,,,,,a,1,0.586,space,0.241,0,142,142,156,1,0_targ_10_dist_red/trial7.png,,,0,10,redHorizontal,a,22,25,M,2021-02-18_21h11.20.404,exp11,2020.2.6,MacIntel,60,,,,,,,,,,,
,,,,,,,,,,,,,,a,1,0.602,space,0.225,0,143,143,103,1,0_targ_1_dist_red/trial4.png,,,0,1,redHorizontal,a,22,25,M,2021-02-18_21h11.20.404,exp11,2020.2.6,MacIntel,60,,,,,,,,,,,
,,,,,,,,,,,,,,a,1,0.551,space,0.224,0,144,144,153,1,0_targ_10_dist_red/trial4.png,,,0,10,redHorizontal,a,22,25,M,2021-02-18_21h11.20.404,exp11,2020.2.6,MacIntel,60,,,,,,,,,,,
,,,,,,,,,,,,,,a,1,0.635,space,0.219,0,145,145,179,1,0_targ_16_dist_red/trial5.png,,,0,16,redHorizontal,a,22,25,M,2021-02-18_21h11.20.404,exp11,2020.2.6,MacIntel,60,,,,,,,,,,,
,,,,,,,,,,,,,,p,1,0.568,space,0.24,0,146,146,23,1,0_dist_red/trial24.png,,,1,0,redHorizontal,p,22,25,M,2021-02-18_21h11.20.404,exp11,2020.2.6,MacIntel,60,,,,,,,,,,,
,,,,,,,,,,,,,,a,1,0.515,space,0.223,0,147,147,130,1,0_targ_4_dist_red/trial6.png,,,0,4,redHorizontal,a,22,25,M,2021-02-18_21h11.20.404,exp11,2020.2.6,MacIntel,60,,,,,,,,,,,
,,,,,,,,,,,,,,p,1,0.752,space,0.219,0,148,148,51,1,9_dist_red/trial2.png,,,1,9,redHorizontal,p,22,25,M,2021-02-18_21h11.20.404,exp11,2020.2.6,MacIntel,60,,,,,,,,,,,
,,,,,,,,,,,,,,p,1,0.619,space,0.219,0,149,149,98,1,15_dist_red/trial24.png,,,1,15,redHorizontal,p,22,25,M,2021-02-18_21h11.20.404,exp11,2020.2.6,MacIntel,60,,,,,,,,,,,
,,,,,,,,,,,,,,a,1,0.686,space,0.202,0,150,150,180,1,0_targ_16_dist_red/trial6.png,,,0,16,redHorizontal,a,22,25,M,2021-02-18_21h11.20.404,exp11,2020.2.6,MacIntel,60,,,,,,,,,,,
,,,,,,,,,,,,,,p,1,0.636,space,0.224,0,151,151,34,1,3_dist_red/trial10.png,,,1,3,redHorizontal,p,22,25,M,2021-02-18_21h11.20.404,exp11,2020.2.6,MacIntel,60,,,,,,,,,,,
,,,,,,,,,,,,,,p,1,0.685,space,0.219,0,152,152,65,1,9_dist_red/trial16.png,,,1,9,redHorizontal,p,22,25,M,2021-02-18_21h11.20.404,exp11,2020.2.6,MacIntel,60,,,,,,,,,,,
,,,,,,,,,,,,,,p,1,0.586,space,0.219,0,153,153,44,1,3_dist_red/trial20.png,,,1,3,redHorizontal,p,22,25,M,2021-02-18_21h11.20.404,exp11,2020.2.6,MacIntel,60,,,,,,,,,,,
,,,,,,,,,,,,,,a,1,0.553,space,0.202,0,154,154,128,1,0_targ_4_dist_red/trial4.png,,,0,4,redHorizontal,a,22,25,M,2021-02-18_21h11.20.404,exp11,2020.2.6,MacIntel,60,,,,,,,,,,,
,,,,,,,,,,,,,,p,1,0.702,space,0.202,0,155,155,36,1,3_dist_red/trial12.png,,,1,3,redHorizontal,p,22,25,M,2021-02-18_21h11.20.404,exp11,2020.2.6,MacIntel,60,,,,,,,,,,,
,,,,,,,,,,,,,,a,1,0.653,space,0.218,0,156,156,195,1,0_targ_16_dist_red/trial21.png,,,0,16,redHorizontal,a,22,25,M,2021-02-18_21h11.20.404,exp11,2020.2.6,MacIntel,60,,,,,,,,,,,
,,,,,,,,,,,,,,a,1,0.986,space,0.219,0,157,157,137,1,0_targ_4_dist_red/trial13.png,,,0,4,redHorizontal,a,22,25,M,2021-02-18_21h11.20.404,exp11,2020.2.6,MacIntel,60,,,,,,,,,,,
,,,,,,,,,,,,,,p,1,0.685,space,0.202,0,158,158,87,1,15_dist_red/trial13.png,,,1,15,redHorizontal,p,22,25,M,2021-02-18_21h11.20.404,exp11,2020.2.6,MacIntel,60,,,,,,,,,,,
,,,,,,,,,,,,,,p,1,0.652,space,0.224,0,159,159,24,1,0_dist_red/trial25.png,,,1,0,redHorizontal,p,22,25,M,2021-02-18_21h11.20.404,exp11,2020.2.6,MacIntel,60,,,,,,,,,,,
,,,,,,,,,,,,,,a,1,0.669,space,0.203,0,160,160,129,1,0_targ_4_dist_red/trial5.png,,,0,4,redHorizontal,a,22,25,M,2021-02-18_21h11.20.404,exp11,2020.2.6,MacIntel,60,,,,,,,,,,,
,,,,,,,,,,,,,,a,1,0.651,space,0.19,0,161,161,123,1,0_targ_1_dist_red/trial24.png,,,0,1,redHorizontal,a,22,25,M,2021-02-18_21h11.20.404,exp11,2020.2.6,MacIntel,60,,,,,,,,,,,
,,,,,,,,,,,,,,a,1,0.687,space,0.202,0,162,162,184,1,0_targ_16_dist_red/trial10.png,,,0,16,redHorizontal,a,22,25,M,2021-02-18_21h11.20.404,exp11,2020.2.6,MacIntel,60,,,,,,,,,,,
,,,,,,,,,,,,,,a,1,0.586,space,0.186,0,163,163,163,1,0_targ_10_dist_red/trial14.png,,,0,10,redHorizontal,a,22,25,M,2021-02-18_21h11.20.404,exp11,2020.2.6,MacIntel,60,,,,,,,,,,,
,,,,,,,,,,,,,,a,1,0.552,space,0.219,0,164,164,175,1,0_targ_16_dist_red/trial1.png,,,0,16,redHorizontal,a,22,25,M,2021-02-18_21h11.20.404,exp11,2020.2.6,MacIntel,60,,,,,,,,,,,
,,,,,,,,,,,,,,p,1,0.934,space,0.191,0,165,165,57,1,9_dist_red/trial8.png,,,1,9,redHorizontal,p,22,25,M,2021-02-18_21h11.20.404,exp11,2020.2.6,MacIntel,60,,,,,,,,,,,
,,,,,,,,,,,,,,p,1,0.502,space,0.236,0,166,166,31,1,3_dist_red/trial7.png,,,1,3,redHorizontal,p,22,25,M,2021-02-18_21h11.20.404,exp11,2020.2.6,MacIntel,60,,,,,,,,,,,
,,,,,,,,,,,,,,p,1,0.518,space,0.269,0,167,167,16,1,0_dist_red/trial17.png,,,1,0,redHorizontal,p,22,25,M,2021-02-18_21h11.20.404,exp11,2020.2.6,MacIntel,60,,,,,,,,,,,
,,,,,,,,,,,,,,p,1,0.485,space,0.307,0,168,168,32,1,3_dist_red/trial8.png,,,1,3,redHorizontal,p,22,25,M,2021-02-18_21h11.20.404,exp11,2020.2.6,MacIntel,60,,,,,,,,,,,
,,,,,,,,,,,,,,a,0,0.569,space,0.108,0,169,169,54,1,9_dist_red/trial5.png,,,1,9,redHorizontal,p,22,25,M,2021-02-18_21h11.20.404,exp11,2020.2.6,MacIntel,60,,,,,,,,,,,
,,,,,,,,,,,,,,p,1,0.735,space,0.264,0,170,170,27,1,3_dist_red/trial3.png,,,1,3,redHorizontal,p,22,25,M,2021-02-18_21h11.20.404,exp11,2020.2.6,MacIntel,60,,,,,,,,,,,
,,,,,,,,,,,,,,a,1,1.401,space,0.224,0,171,171,161,1,0_targ_10_dist_red/trial12.png,,,0,10,redHorizontal,a,22,25,M,2021-02-18_21h11.20.404,exp11,2020.2.6,MacIntel,60,,,,,,,,,,,
,,,,,,,,,,,,,,a,1,0.769,space,0.207,0,172,172,132,1,0_targ_4_dist_red/trial8.png,,,0,4,redHorizontal,a,22,25,M,2021-02-18_21h11.20.404,exp11,2020.2.6,MacIntel,60,,,,,,,,,,,
,,,,,,,,,,,,,,a,1,0.586,space,0.203,0,173,173,104,1,0_targ_1_dist_red/trial5.png,,,0,1,redHorizontal,a,22,25,M,2021-02-18_21h11.20.404,exp11,2020.2.6,MacIntel,60,,,,,,,,,,,
,,,,,,,,,,,,,,p,1,0.485,space,0.252,0,174,174,18,1,0_dist_red/trial19.png,,,1,0,redHorizontal,p,22,25,M,2021-02-18_21h11.20.404,exp11,2020.2.6,MacIntel,60,,,,,,,,,,,
,,,,,,,,,,,,,,p,1,0.469,space,0.252,0,175,175,21,1,0_dist_red/trial22.png,,,1,0,redHorizontal,p,22,25,M,2021-02-18_21h11.20.404,exp11,2020.2.6,MacIntel,60,,,,,,,,,,,
,,,,,,,,,,,,,,p,1,0.452,space,0.224,0,176,176,14,1,0_dist_red/trial15.png,,,1,0,redHorizontal,p,22,25,M,2021-02-18_21h11.20.404,exp11,2020.2.6,MacIntel,60,,,,,,,,,,,
,,,,,,,,,,,,,,p,1,0.668,space,0.24,0,177,177,88,1,15_dist_red/trial14.png,,,1,15,redHorizontal,p,22,25,M,2021-02-18_21h11.20.404,exp11,2020.2.6,MacIntel,60,,,,,,,,,,,
,,,,,,,,,,,,,,a,1,0.702,space,0.252,0,178,178,111,1,0_targ_1_dist_red/trial12.png,,,0,1,redHorizontal,a,22,25,M,2021-02-18_21h11.20.404,exp11,2020.2.6,MacIntel,60,,,,,,,,,,,
,,,,,,,,,,,,,,p,1,0.535,space,0.286,0,179,179,1,1,0_dist_red/trial2.png,,,1,0,redHorizontal,p,22,25,M,2021-02-18_21h11.20.404,exp11,2020.2.6,MacIntel,60,,,,,,,,,,,
,,,,,,,,,,,,,,a,1,0.969,space,0.257,0,180,180,100,1,0_targ_1_dist_red/trial1.png,,,0,1,redHorizontal,a,22,25,M,2021-02-18_21h11.20.404,exp11,2020.2.6,MacIntel,60,,,,,,,,,,,
,,,,,,,,,,,,,,p,1,0.652,space,0.202,0,181,181,30,1,3_dist_red/trial6.png,,,1,3,redHorizontal,p,22,25,M,2021-02-18_21h11.20.404,exp11,2020.2.6,MacIntel,60,,,,,,,,,,,
,,,,,,,,,,,,,,p,1,0.803,space,0.223,0,182,182,52,1,9_dist_red/trial3.png,,,1,9,redHorizontal,p,22,25,M,2021-02-18_21h11.20.404,exp11,2020.2.6,MacIntel,60,,,,,,,,,,,
,,,,,,,,,,,,,,p,1,0.952,space,0.219,0,183,183,94,1,15_dist_red/trial20.png,,,1,15,redHorizontal,p,22,25,M,2021-02-18_21h11.20.404,exp11,2020.2.6,MacIntel,60,,,,,,,,,,,
,,,,,,,,,,,,,,p,1,0.785,space,0.223,0,184,184,97,1,15_dist_red/trial23.png,,,1,15,redHorizontal,p,22,25,M,2021-02-18_21h11.20.404,exp11,2020.2.6,MacIntel,60,,,,,,,,,,,
,,,,,,,,,,,,,,a,1,0.652,space,0.24,0,185,185,168,1,0_targ_10_dist_red/trial19.png,,,0,10,redHorizontal,a,22,25,M,2021-02-18_21h11.20.404,exp11,2020.2.6,MacIntel,60,,,,,,,,,,,
,,,,,,,,,,,,,,a,1,0.752,space,0.202,0,186,186,183,1,0_targ_16_dist_red/trial9.png,,,0,16,redHorizontal,a,22,25,M,2021-02-18_21h11.20.404,exp11,2020.2.6,MacIntel,60,,,,,,,,,,,
,,,,,,,,,,,,,,p,1,0.554,space,0.219,0,187,187,3,1,0_dist_red/trial4.png,,,1,0,redHorizontal,p,22,25,M,2021-02-18_21h11.20.404,exp11,2020.2.6,MacIntel,60,,,,,,,,,,,
,,,,,,,,,,,,,,p,1,0.718,space,0.207,0,188,188,82,1,15_dist_red/trial8.png,,,1,15,redHorizontal,p,22,25,M,2021-02-18_21h11.20.404,exp11,2020.2.6,MacIntel,60,,,,,,,,,,,
,,,,,,,,,,,,,,a,1,0.536,space,0.19,0,189,189,121,1,0_targ_1_dist_red/trial22.png,,,0,1,redHorizontal,a,22,25,M,2021-02-18_21h11.20.404,exp11,2020.2.6,MacIntel,60,,,,,,,,,,,
,,,,,,,,,,,,,,p,1,1.035,space,0.22,0,190,190,55,1,9_dist_red/trial6.png,,,1,9,redHorizontal,p,22,25,M,2021-02-18_21h11.20.404,exp11,2020.2.6,MacIntel,60,,,,,,,,,,,
,,,,,,,,,,,,,,p,1,0.985,space,0.252,0,191,191,91,1,15_dist_red/trial17.png,,,1,15,redHorizontal,p,22,25,M,2021-02-18_21h11.20.404,exp11,2020.2.6,MacIntel,60,,,,,,,,,,,
,,,,,,,,,,,,,,p,0,0.736,space,0.409,0,192,192,109,1,0_targ_1_dist_red/trial10.png,,,0,1,redHorizontal,a,22,25,M,2021-02-18_21h11.20.404,exp11,2020.2.6,MacIntel,60,,,,,,,,,,,
,,,,,,,,,,,,,,p,1,0.535,space,0.249,0,193,193,2,1,0_dist_red/trial3.png,,,1,0,redHorizontal,p,22,25,M,2021-02-18_21h11.20.404,exp11,2020.2.6,MacIntel,60,,,,,,,,,,,
,,,,,,,,,,,,,,p,1,0.535,space,0.235,0,194,194,15,1,0_dist_red/trial16.png,,,1,0,redHorizontal,p,22,25,M,2021-02-18_21h11.20.404,exp11,2020.2.6,MacIntel,60,,,,,,,,,,,
,,,,,,,,,,,,,,a,1,0.952,space,0.217,0,195,195,196,1,0_targ_16_dist_red/trial22.png,,,0,16,redHorizontal,a,22,25,M,2021-02-18_21h11.20.404,exp11,2020.2.6,MacIntel,60,,,,,,,,,,,
,,,,,,,,,,,,,,a,1,0.753,space,0.235,0,196,196,169,1,0_targ_10_dist_red/trial20.png,,,0,10,redHorizontal,a,22,25,M,2021-02-18_21h11.20.404,exp11,2020.2.6,MacIntel,60,,,,,,,,,,,
,,,,,,,,,,,,,,p,1,0.969,space,0.24,0,197,197,78,1,15_dist_red/trial4.png,,,1,15,redHorizontal,p,22,25,M,2021-02-18_21h11.20.404,exp11,2020.2.6,MacIntel,60,,,,,,,,,,,
,,,,,,,,,,,,,,a,1,0.869,space,0.273,0,198,198,192,1,0_targ_16_dist_red/trial18.png,,,0,16,redHorizontal,a,22,25,M,2021-02-18_21h11.20.404,exp11,2020.2.6,MacIntel,60,,,,,,,,,,,
,,,,,,,,,,,,,,p,1,0.752,space,0.219,0,199,199,64,1,9_dist_red/trial15.png,,,1,9,redHorizontal,p,22,25,M,2021-02-18_21h11.20.404,exp11,2020.2.6,MacIntel,60,,,,,,,,,,,
,,,,,,,,,,,,,,,,,,,,,,,,,,,,,,,22,25,M,2021-02-18_21h11.20.404,exp11,2020.2.6,MacIntel,60,0,1,1,1,1,conRed.xlsx,red horizontal,Look for red horizontal bar (target) and indicate if it is present or absent in the array. If red horizontal target is present press 'p' and if absent press 'a'. Press SPACE to start.,,,
