key_resp_6.keys,key_resp_6.rt,key_resp_7.keys,key_resp_7.rt,key_resp_8.keys,key_resp_8.rt,key_resp_10.keys,key_resp_10.rt,key_resp_9.keys,key_resp_9.rt,key_resp_3.keys,key_resp_3.rt,key_resp_5.keys,key_resp_5.rt,key_resp.keys,key_resp.corr,key_resp.rt,key_resp_4.keys,key_resp_4.rt,trials.thisRepN,trials.thisTrialN,trials.thisN,trials.thisIndex,trials.ran,ImageFile,tarPos,tarSize,targPres,numDist,targetName,correctAns,participant,age,sex,date,expName,psychopyVersion,OS,frameRate,fbclid,trials_2.thisRepN,trials_2.thisTrialN,trials_2.thisN,trials_2.thisIndex,trials_2.ran,condsFile,targName,instructionText,colTarget,sizeTarg,posit
space,5.65792,space,13.679775,space,8.40045,space,14.335655,space,5.77739,space,8.176435,space,5.11406,p,1,1.151115,space,1.67938,0,0,0,68,1,9_dist_green/trial19.png,,,1,9,greenverival,p,28,27,Female,2021-02-26_08h51.11.760,exp11,2020.2.6,Win32,60,IwAR1sxqq8ylL-bjnWBHQxz-VtA0gx9jqv9oV6bl75TRXq6ZcboA5B7sKuaNg,,,,,,,,,,,
,,,,,,,,,,,,,,p,1,1.145805,space,0.6505,0,1,1,70,1,9_dist_green/trial21.png,,,1,9,greenverival,p,28,27,Female,2021-02-26_08h51.11.760,exp11,2020.2.6,Win32,60,IwAR1sxqq8ylL-bjnWBHQxz-VtA0gx9jqv9oV6bl75TRXq6ZcboA5B7sKuaNg,,,,,,,,,,,
,,,,,,,,,,,,,,a,1,1.1017,space,0.724685,0,2,2,168,1,0_targ_10_dist_green/trial19.png,,,0,10,greenverival,a,28,27,Female,2021-02-26_08h51.11.760,exp11,2020.2.6,Win32,60,IwAR1sxqq8ylL-bjnWBHQxz-VtA0gx9jqv9oV6bl75TRXq6ZcboA5B7sKuaNg,,,,,,,,,,,
,,,,,,,,,,,,,,p,1,0.59454,space,0.590985,0,3,3,2,1,0_dist_green/trial3.png,,,1,0,greenverival,p,28,27,Female,2021-02-26_08h51.11.760,exp11,2020.2.6,Win32,60,IwAR1sxqq8ylL-bjnWBHQxz-VtA0gx9jqv9oV6bl75TRXq6ZcboA5B7sKuaNg,,,,,,,,,,,
,,,,,,,,,,,,,,a,1,0.863915,space,0.251695,0,4,4,120,1,0_targ_1_dist_green/trial21.png,,,0,1,greenverival,a,28,27,Female,2021-02-26_08h51.11.760,exp11,2020.2.6,Win32,60,IwAR1sxqq8ylL-bjnWBHQxz-VtA0gx9jqv9oV6bl75TRXq6ZcboA5B7sKuaNg,,,,,,,,,,,
,,,,,,,,,,,,,,p,1,0.69646,space,0.25278,0,5,5,72,1,9_dist_green/trial23.png,,,1,9,greenverival,p,28,27,Female,2021-02-26_08h51.11.760,exp11,2020.2.6,Win32,60,IwAR1sxqq8ylL-bjnWBHQxz-VtA0gx9jqv9oV6bl75TRXq6ZcboA5B7sKuaNg,,,,,,,,,,,
,,,,,,,,,,,,,,a,1,0.79237,space,0.25442,0,6,6,148,1,0_targ_4_dist_green/trial24.png,,,0,4,greenverival,a,28,27,Female,2021-02-26_08h51.11.760,exp11,2020.2.6,Win32,60,IwAR1sxqq8ylL-bjnWBHQxz-VtA0gx9jqv9oV6bl75TRXq6ZcboA5B7sKuaNg,,,,,,,,,,,
,,,,,,,,,,,,,,p,1,0.78644,space,0.21588,0,7,7,73,1,9_dist_green/trial24.png,,,1,9,greenverival,p,28,27,Female,2021-02-26_08h51.11.760,exp11,2020.2.6,Win32,60,IwAR1sxqq8ylL-bjnWBHQxz-VtA0gx9jqv9oV6bl75TRXq6ZcboA5B7sKuaNg,,,,,,,,,,,
,,,,,,,,,,,,,,p,1,0.637935,space,0.217295,0,8,8,92,1,15_dist_green/trial18.png,,,1,15,greenverival,p,28,27,Female,2021-02-26_08h51.11.760,exp11,2020.2.6,Win32,60,IwAR1sxqq8ylL-bjnWBHQxz-VtA0gx9jqv9oV6bl75TRXq6ZcboA5B7sKuaNg,,,,,,,,,,,
,,,,,,,,,,,,,,p,1,0.71202,space,0.251235,0,9,9,85,1,15_dist_green/trial11.png,,,1,15,greenverival,p,28,27,Female,2021-02-26_08h51.11.760,exp11,2020.2.6,Win32,60,IwAR1sxqq8ylL-bjnWBHQxz-VtA0gx9jqv9oV6bl75TRXq6ZcboA5B7sKuaNg,,,,,,,,,,,
,,,,,,,,,,,,,,a,1,0.70105,space,0.325585,0,10,10,167,1,0_targ_10_dist_green/trial18.png,,,0,10,greenverival,a,28,27,Female,2021-02-26_08h51.11.760,exp11,2020.2.6,Win32,60,IwAR1sxqq8ylL-bjnWBHQxz-VtA0gx9jqv9oV6bl75TRXq6ZcboA5B7sKuaNg,,,,,,,,,,,
,,,,,,,,,,,,,,a,1,0.65259,space,0.26799,0,11,11,160,1,0_targ_10_dist_green/trial11.png,,,0,10,greenverival,a,28,27,Female,2021-02-26_08h51.11.760,exp11,2020.2.6,Win32,60,IwAR1sxqq8ylL-bjnWBHQxz-VtA0gx9jqv9oV6bl75TRXq6ZcboA5B7sKuaNg,,,,,,,,,,,
,,,,,,,,,,,,,,p,1,0.56375,space,0.30986,0,12,12,67,1,9_dist_green/trial18.png,,,1,9,greenverival,p,28,27,Female,2021-02-26_08h51.11.760,exp11,2020.2.6,Win32,60,IwAR1sxqq8ylL-bjnWBHQxz-VtA0gx9jqv9oV6bl75TRXq6ZcboA5B7sKuaNg,,,,,,,,,,,
,,,,,,,,,,,,,,p,1,0.56749,space,0.267735,0,13,13,16,1,0_dist_green/trial17.png,,,1,0,greenverival,p,28,27,Female,2021-02-26_08h51.11.760,exp11,2020.2.6,Win32,60,IwAR1sxqq8ylL-bjnWBHQxz-VtA0gx9jqv9oV6bl75TRXq6ZcboA5B7sKuaNg,,,,,,,,,,,
,,,,,,,,,,,,,,a,1,0.73307,space,0.19373,0,14,14,170,1,0_targ_10_dist_green/trial21.png,,,0,10,greenverival,a,28,27,Female,2021-02-26_08h51.11.760,exp11,2020.2.6,Win32,60,IwAR1sxqq8ylL-bjnWBHQxz-VtA0gx9jqv9oV6bl75TRXq6ZcboA5B7sKuaNg,,,,,,,,,,,
,,,,,,,,,,,,,,a,1,0.573075,space,0.294785,0,15,15,111,1,0_targ_1_dist_green/trial12.png,,,0,1,greenverival,a,28,27,Female,2021-02-26_08h51.11.760,exp11,2020.2.6,Win32,60,IwAR1sxqq8ylL-bjnWBHQxz-VtA0gx9jqv9oV6bl75TRXq6ZcboA5B7sKuaNg,,,,,,,,,,,
,,,,,,,,,,,,,,p,1,0.84187,space,0.194765,0,16,16,99,1,15_dist_green/trial25.png,,,1,15,greenverival,p,28,27,Female,2021-02-26_08h51.11.760,exp11,2020.2.6,Win32,60,IwAR1sxqq8ylL-bjnWBHQxz-VtA0gx9jqv9oV6bl75TRXq6ZcboA5B7sKuaNg,,,,,,,,,,,
,,,,,,,,,,,,,,a,1,0.723775,space,0.13373,0,17,17,119,1,0_targ_1_dist_green/trial20.png,,,0,1,greenverival,a,28,27,Female,2021-02-26_08h51.11.760,exp11,2020.2.6,Win32,60,IwAR1sxqq8ylL-bjnWBHQxz-VtA0gx9jqv9oV6bl75TRXq6ZcboA5B7sKuaNg,,,,,,,,,,,
,,,,,,,,,,,,,,p,1,0.59473,space,0.307995,0,18,18,39,1,3_dist_green/trial15.png,,,1,3,greenverival,p,28,27,Female,2021-02-26_08h51.11.760,exp11,2020.2.6,Win32,60,IwAR1sxqq8ylL-bjnWBHQxz-VtA0gx9jqv9oV6bl75TRXq6ZcboA5B7sKuaNg,,,,,,,,,,,
,,,,,,,,,,,,,,p,1,0.939835,space,0.20988,0,19,19,76,1,15_dist_green/trial2.png,,,1,15,greenverival,p,28,27,Female,2021-02-26_08h51.11.760,exp11,2020.2.6,Win32,60,IwAR1sxqq8ylL-bjnWBHQxz-VtA0gx9jqv9oV6bl75TRXq6ZcboA5B7sKuaNg,,,,,,,,,,,
,,,,,,,,,,,,,,p,1,0.595435,space,0.168625,0,20,20,47,1,3_dist_green/trial23.png,,,1,3,greenverival,p,28,27,Female,2021-02-26_08h51.11.760,exp11,2020.2.6,Win32,60,IwAR1sxqq8ylL-bjnWBHQxz-VtA0gx9jqv9oV6bl75TRXq6ZcboA5B7sKuaNg,,,,,,,,,,,
,,,,,,,,,,,,,,p,1,0.500195,space,0.225515,0,21,21,37,1,3_dist_green/trial13.png,,,1,3,greenverival,p,28,27,Female,2021-02-26_08h51.11.760,exp11,2020.2.6,Win32,60,IwAR1sxqq8ylL-bjnWBHQxz-VtA0gx9jqv9oV6bl75TRXq6ZcboA5B7sKuaNg,,,,,,,,,,,
,,,,,,,,,,,,,,p,1,0.454855,space,0.266285,0,22,22,11,1,0_dist_green/trial12.png,,,1,0,greenverival,p,28,27,Female,2021-02-26_08h51.11.760,exp11,2020.2.6,Win32,60,IwAR1sxqq8ylL-bjnWBHQxz-VtA0gx9jqv9oV6bl75TRXq6ZcboA5B7sKuaNg,,,,,,,,,,,
,,,,,,,,,,,,,,a,1,0.6043,space,0.31776,0,23,23,147,1,0_targ_4_dist_green/trial23.png,,,0,4,greenverival,a,28,27,Female,2021-02-26_08h51.11.760,exp11,2020.2.6,Win32,60,IwAR1sxqq8ylL-bjnWBHQxz-VtA0gx9jqv9oV6bl75TRXq6ZcboA5B7sKuaNg,,,,,,,,,,,
,,,,,,,,,,,,,,a,1,0.78958,space,0.154165,0,24,24,124,1,0_targ_1_dist_green/trial25.png,,,0,1,greenverival,a,28,27,Female,2021-02-26_08h51.11.760,exp11,2020.2.6,Win32,60,IwAR1sxqq8ylL-bjnWBHQxz-VtA0gx9jqv9oV6bl75TRXq6ZcboA5B7sKuaNg,,,,,,,,,,,
,,,,,,,,,,,,,,a,1,0.809245,space,0.15176,0,25,25,165,1,0_targ_10_dist_green/trial16.png,,,0,10,greenverival,a,28,27,Female,2021-02-26_08h51.11.760,exp11,2020.2.6,Win32,60,IwAR1sxqq8ylL-bjnWBHQxz-VtA0gx9jqv9oV6bl75TRXq6ZcboA5B7sKuaNg,,,,,,,,,,,
,,,,,,,,,,,,,,a,1,0.641655,space,0.116675,0,26,26,149,1,0_targ_4_dist_green/trial25.png,,,0,4,greenverival,a,28,27,Female,2021-02-26_08h51.11.760,exp11,2020.2.6,Win32,60,IwAR1sxqq8ylL-bjnWBHQxz-VtA0gx9jqv9oV6bl75TRXq6ZcboA5B7sKuaNg,,,,,,,,,,,
,,,,,,,,,,,,,,a,1,0.9383,space,0.034655,0,27,27,192,1,0_targ_16_dist_green/trial18.png,,,0,16,greenverival,a,28,27,Female,2021-02-26_08h51.11.760,exp11,2020.2.6,Win32,60,IwAR1sxqq8ylL-bjnWBHQxz-VtA0gx9jqv9oV6bl75TRXq6ZcboA5B7sKuaNg,,,,,,,,,,,
,,,,,,,,,,,,,,a,1,0.996405,space,0.276595,0,28,28,156,1,0_targ_10_dist_green/trial7.png,,,0,10,greenverival,a,28,27,Female,2021-02-26_08h51.11.760,exp11,2020.2.6,Win32,60,IwAR1sxqq8ylL-bjnWBHQxz-VtA0gx9jqv9oV6bl75TRXq6ZcboA5B7sKuaNg,,,,,,,,,,,
,,,,,,,,,,,,,,a,1,0.732575,space,0.134395,0,29,29,135,1,0_targ_4_dist_green/trial11.png,,,0,4,greenverival,a,28,27,Female,2021-02-26_08h51.11.760,exp11,2020.2.6,Win32,60,IwAR1sxqq8ylL-bjnWBHQxz-VtA0gx9jqv9oV6bl75TRXq6ZcboA5B7sKuaNg,,,,,,,,,,,
,,,,,,,,,,,,,,a,1,0.787835,space,0.151835,0,30,30,186,1,0_targ_16_dist_green/trial12.png,,,0,16,greenverival,a,28,27,Female,2021-02-26_08h51.11.760,exp11,2020.2.6,Win32,60,IwAR1sxqq8ylL-bjnWBHQxz-VtA0gx9jqv9oV6bl75TRXq6ZcboA5B7sKuaNg,,,,,,,,,,,
,,,,,,,,,,,,,,a,1,0.851585,space,0.107905,0,31,31,150,1,0_targ_10_dist_green/trial1.png,,,0,10,greenverival,a,28,27,Female,2021-02-26_08h51.11.760,exp11,2020.2.6,Win32,60,IwAR1sxqq8ylL-bjnWBHQxz-VtA0gx9jqv9oV6bl75TRXq6ZcboA5B7sKuaNg,,,,,,,,,,,
,,,,,,,,,,,,,,a,1,0.602705,space,0.25138,0,32,32,118,1,0_targ_1_dist_green/trial19.png,,,0,1,greenverival,a,28,27,Female,2021-02-26_08h51.11.760,exp11,2020.2.6,Win32,60,IwAR1sxqq8ylL-bjnWBHQxz-VtA0gx9jqv9oV6bl75TRXq6ZcboA5B7sKuaNg,,,,,,,,,,,
,,,,,,,,,,,,,,a,1,0.43171,space,0.201445,0,33,33,110,1,0_targ_1_dist_green/trial11.png,,,0,1,greenverival,a,28,27,Female,2021-02-26_08h51.11.760,exp11,2020.2.6,Win32,60,IwAR1sxqq8ylL-bjnWBHQxz-VtA0gx9jqv9oV6bl75TRXq6ZcboA5B7sKuaNg,,,,,,,,,,,
,,,,,,,,,,,,,,p,1,0.788455,space,0.2842,0,34,34,36,1,3_dist_green/trial12.png,,,1,3,greenverival,p,28,27,Female,2021-02-26_08h51.11.760,exp11,2020.2.6,Win32,60,IwAR1sxqq8ylL-bjnWBHQxz-VtA0gx9jqv9oV6bl75TRXq6ZcboA5B7sKuaNg,,,,,,,,,,,
,,,,,,,,,,,,,,a,1,0.63146,space,0.165965,0,35,35,137,1,0_targ_4_dist_green/trial13.png,,,0,4,greenverival,a,28,27,Female,2021-02-26_08h51.11.760,exp11,2020.2.6,Win32,60,IwAR1sxqq8ylL-bjnWBHQxz-VtA0gx9jqv9oV6bl75TRXq6ZcboA5B7sKuaNg,,,,,,,,,,,
,,,,,,,,,,,,,,p,1,1.464545,space,0.50853,0,36,36,75,1,15_dist_green/trial1.png,,,1,15,greenverival,p,28,27,Female,2021-02-26_08h51.11.760,exp11,2020.2.6,Win32,60,IwAR1sxqq8ylL-bjnWBHQxz-VtA0gx9jqv9oV6bl75TRXq6ZcboA5B7sKuaNg,,,,,,,,,,,
,,,,,,,,,,,,,,p,1,0.679575,space,0.3017,0,37,37,1,1,0_dist_green/trial2.png,,,1,0,greenverival,p,28,27,Female,2021-02-26_08h51.11.760,exp11,2020.2.6,Win32,60,IwAR1sxqq8ylL-bjnWBHQxz-VtA0gx9jqv9oV6bl75TRXq6ZcboA5B7sKuaNg,,,,,,,,,,,
,,,,,,,,,,,,,,p,1,0.683745,space,0.22673,0,38,38,35,1,3_dist_green/trial11.png,,,1,3,greenverival,p,28,27,Female,2021-02-26_08h51.11.760,exp11,2020.2.6,Win32,60,IwAR1sxqq8ylL-bjnWBHQxz-VtA0gx9jqv9oV6bl75TRXq6ZcboA5B7sKuaNg,,,,,,,,,,,
,,,,,,,,,,,,,,a,1,0.74617,space,0.38629,0,39,39,191,1,0_targ_16_dist_green/trial17.png,,,0,16,greenverival,a,28,27,Female,2021-02-26_08h51.11.760,exp11,2020.2.6,Win32,60,IwAR1sxqq8ylL-bjnWBHQxz-VtA0gx9jqv9oV6bl75TRXq6ZcboA5B7sKuaNg,,,,,,,,,,,
,,,,,,,,,,,,,,a,1,0.880765,space,0.091015,0,40,40,181,1,0_targ_16_dist_green/trial7.png,,,0,16,greenverival,a,28,27,Female,2021-02-26_08h51.11.760,exp11,2020.2.6,Win32,60,IwAR1sxqq8ylL-bjnWBHQxz-VtA0gx9jqv9oV6bl75TRXq6ZcboA5B7sKuaNg,,,,,,,,,,,
,,,,,,,,,,,,,,a,1,0.686075,space,0.11852,0,41,41,180,1,0_targ_16_dist_green/trial6.png,,,0,16,greenverival,a,28,27,Female,2021-02-26_08h51.11.760,exp11,2020.2.6,Win32,60,IwAR1sxqq8ylL-bjnWBHQxz-VtA0gx9jqv9oV6bl75TRXq6ZcboA5B7sKuaNg,,,,,,,,,,,
,,,,,,,,,,,,,,a,1,0.58925,space,0.184435,0,42,42,171,1,0_targ_10_dist_green/trial22.png,,,0,10,greenverival,a,28,27,Female,2021-02-26_08h51.11.760,exp11,2020.2.6,Win32,60,IwAR1sxqq8ylL-bjnWBHQxz-VtA0gx9jqv9oV6bl75TRXq6ZcboA5B7sKuaNg,,,,,,,,,,,
,,,,,,,,,,,,,,a,1,0.688615,space,0.152085,0,43,43,193,1,0_targ_16_dist_green/trial19.png,,,0,16,greenverival,a,28,27,Female,2021-02-26_08h51.11.760,exp11,2020.2.6,Win32,60,IwAR1sxqq8ylL-bjnWBHQxz-VtA0gx9jqv9oV6bl75TRXq6ZcboA5B7sKuaNg,,,,,,,,,,,
,,,,,,,,,,,,,,a,1,0.615145,space,0.16746,0,44,44,176,1,0_targ_16_dist_green/trial2.png,,,0,16,greenverival,a,28,27,Female,2021-02-26_08h51.11.760,exp11,2020.2.6,Win32,60,IwAR1sxqq8ylL-bjnWBHQxz-VtA0gx9jqv9oV6bl75TRXq6ZcboA5B7sKuaNg,,,,,,,,,,,
,,,,,,,,,,,,,,p,1,0.62922,space,0.170245,0,45,45,33,1,3_dist_green/trial9.png,,,1,3,greenverival,p,28,27,Female,2021-02-26_08h51.11.760,exp11,2020.2.6,Win32,60,IwAR1sxqq8ylL-bjnWBHQxz-VtA0gx9jqv9oV6bl75TRXq6ZcboA5B7sKuaNg,,,,,,,,,,,
,,,,,,,,,,,,,,p,1,0.491535,space,0.167295,0,46,46,8,1,0_dist_green/trial9.png,,,1,0,greenverival,p,28,27,Female,2021-02-26_08h51.11.760,exp11,2020.2.6,Win32,60,IwAR1sxqq8ylL-bjnWBHQxz-VtA0gx9jqv9oV6bl75TRXq6ZcboA5B7sKuaNg,,,,,,,,,,,
,,,,,,,,,,,,,,a,1,0.698355,space,0.200845,0,47,47,151,1,0_targ_10_dist_green/trial2.png,,,0,10,greenverival,a,28,27,Female,2021-02-26_08h51.11.760,exp11,2020.2.6,Win32,60,IwAR1sxqq8ylL-bjnWBHQxz-VtA0gx9jqv9oV6bl75TRXq6ZcboA5B7sKuaNg,,,,,,,,,,,
,,,,,,,,,,,,,,p,1,0.54296,space,0.276905,0,48,48,20,1,0_dist_green/trial21.png,,,1,0,greenverival,p,28,27,Female,2021-02-26_08h51.11.760,exp11,2020.2.6,Win32,60,IwAR1sxqq8ylL-bjnWBHQxz-VtA0gx9jqv9oV6bl75TRXq6ZcboA5B7sKuaNg,,,,,,,,,,,
,,,,,,,,,,,,,,p,1,0.84598,space,0.238305,0,49,49,96,1,15_dist_green/trial22.png,,,1,15,greenverival,p,28,27,Female,2021-02-26_08h51.11.760,exp11,2020.2.6,Win32,60,IwAR1sxqq8ylL-bjnWBHQxz-VtA0gx9jqv9oV6bl75TRXq6ZcboA5B7sKuaNg,,,,,,,,,,,
,,,,,,,,,,,,,,a,1,0.67401,space,0.122615,0,50,50,132,1,0_targ_4_dist_green/trial8.png,,,0,4,greenverival,a,28,27,Female,2021-02-26_08h51.11.760,exp11,2020.2.6,Win32,60,IwAR1sxqq8ylL-bjnWBHQxz-VtA0gx9jqv9oV6bl75TRXq6ZcboA5B7sKuaNg,,,,,,,,,,,
,,,,,,,,,,,,,,a,1,0.76204,space,0.16777,0,51,51,179,1,0_targ_16_dist_green/trial5.png,,,0,16,greenverival,a,28,27,Female,2021-02-26_08h51.11.760,exp11,2020.2.6,Win32,60,IwAR1sxqq8ylL-bjnWBHQxz-VtA0gx9jqv9oV6bl75TRXq6ZcboA5B7sKuaNg,,,,,,,,,,,
,,,,,,,,,,,,,,p,1,0.71777,space,0.1676,0,52,52,88,1,15_dist_green/trial14.png,,,1,15,greenverival,p,28,27,Female,2021-02-26_08h51.11.760,exp11,2020.2.6,Win32,60,IwAR1sxqq8ylL-bjnWBHQxz-VtA0gx9jqv9oV6bl75TRXq6ZcboA5B7sKuaNg,,,,,,,,,,,
,,,,,,,,,,,,,,p,1,0.556555,space,0.123855,0,53,53,52,1,9_dist_green/trial3.png,,,1,9,greenverival,p,28,27,Female,2021-02-26_08h51.11.760,exp11,2020.2.6,Win32,60,IwAR1sxqq8ylL-bjnWBHQxz-VtA0gx9jqv9oV6bl75TRXq6ZcboA5B7sKuaNg,,,,,,,,,,,
,,,,,,,,,,,,,,a,1,0.60849,space,0.246035,0,54,54,133,1,0_targ_4_dist_green/trial9.png,,,0,4,greenverival,a,28,27,Female,2021-02-26_08h51.11.760,exp11,2020.2.6,Win32,60,IwAR1sxqq8ylL-bjnWBHQxz-VtA0gx9jqv9oV6bl75TRXq6ZcboA5B7sKuaNg,,,,,,,,,,,
,,,,,,,,,,,,,,p,1,0.66128,space,0.184895,0,55,55,97,1,15_dist_green/trial23.png,,,1,15,greenverival,p,28,27,Female,2021-02-26_08h51.11.760,exp11,2020.2.6,Win32,60,IwAR1sxqq8ylL-bjnWBHQxz-VtA0gx9jqv9oV6bl75TRXq6ZcboA5B7sKuaNg,,,,,,,,,,,
,,,,,,,,,,,,,,a,1,0.589425,space,0.46706,0,56,56,100,1,0_targ_1_dist_green/trial1.png,,,0,1,greenverival,a,28,27,Female,2021-02-26_08h51.11.760,exp11,2020.2.6,Win32,60,IwAR1sxqq8ylL-bjnWBHQxz-VtA0gx9jqv9oV6bl75TRXq6ZcboA5B7sKuaNg,,,,,,,,,,,
,,,,,,,,,,,,,,a,1,0.6298,space,0.11706,0,57,57,138,1,0_targ_4_dist_green/trial14.png,,,0,4,greenverival,a,28,27,Female,2021-02-26_08h51.11.760,exp11,2020.2.6,Win32,60,IwAR1sxqq8ylL-bjnWBHQxz-VtA0gx9jqv9oV6bl75TRXq6ZcboA5B7sKuaNg,,,,,,,,,,,
,,,,,,,,,,,,,,p,1,0.63614,space,0.117475,0,58,58,23,1,0_dist_green/trial24.png,,,1,0,greenverival,p,28,27,Female,2021-02-26_08h51.11.760,exp11,2020.2.6,Win32,60,IwAR1sxqq8ylL-bjnWBHQxz-VtA0gx9jqv9oV6bl75TRXq6ZcboA5B7sKuaNg,,,,,,,,,,,
,,,,,,,,,,,,,,a,1,0.91262,space,0.1261,0,59,59,199,1,0_targ_16_dist_green/trial25.png,,,0,16,greenverival,a,28,27,Female,2021-02-26_08h51.11.760,exp11,2020.2.6,Win32,60,IwAR1sxqq8ylL-bjnWBHQxz-VtA0gx9jqv9oV6bl75TRXq6ZcboA5B7sKuaNg,,,,,,,,,,,
,,,,,,,,,,,,,,p,1,0.55367,space,0.18535,0,60,60,43,1,3_dist_green/trial19.png,,,1,3,greenverival,p,28,27,Female,2021-02-26_08h51.11.760,exp11,2020.2.6,Win32,60,IwAR1sxqq8ylL-bjnWBHQxz-VtA0gx9jqv9oV6bl75TRXq6ZcboA5B7sKuaNg,,,,,,,,,,,
,,,,,,,,,,,,,,p,1,0.630465,space,0.124055,0,61,61,27,1,3_dist_green/trial3.png,,,1,3,greenverival,p,28,27,Female,2021-02-26_08h51.11.760,exp11,2020.2.6,Win32,60,IwAR1sxqq8ylL-bjnWBHQxz-VtA0gx9jqv9oV6bl75TRXq6ZcboA5B7sKuaNg,,,,,,,,,,,
,,,,,,,,,,,,,,a,1,0.64114,space,0.151175,0,62,62,169,1,0_targ_10_dist_green/trial20.png,,,0,10,greenverival,a,28,27,Female,2021-02-26_08h51.11.760,exp11,2020.2.6,Win32,60,IwAR1sxqq8ylL-bjnWBHQxz-VtA0gx9jqv9oV6bl75TRXq6ZcboA5B7sKuaNg,,,,,,,,,,,
,,,,,,,,,,,,,,p,1,0.939735,space,0.53597,0,63,63,87,1,15_dist_green/trial13.png,,,1,15,greenverival,p,28,27,Female,2021-02-26_08h51.11.760,exp11,2020.2.6,Win32,60,IwAR1sxqq8ylL-bjnWBHQxz-VtA0gx9jqv9oV6bl75TRXq6ZcboA5B7sKuaNg,,,,,,,,,,,
,,,,,,,,,,,,,,a,1,1.181845,space,0.20651,0,64,64,102,1,0_targ_1_dist_green/trial3.png,,,0,1,greenverival,a,28,27,Female,2021-02-26_08h51.11.760,exp11,2020.2.6,Win32,60,IwAR1sxqq8ylL-bjnWBHQxz-VtA0gx9jqv9oV6bl75TRXq6ZcboA5B7sKuaNg,,,,,,,,,,,
,,,,,,,,,,,,,,a,1,0.638315,space,0.17076,0,65,65,145,1,0_targ_4_dist_green/trial21.png,,,0,4,greenverival,a,28,27,Female,2021-02-26_08h51.11.760,exp11,2020.2.6,Win32,60,IwAR1sxqq8ylL-bjnWBHQxz-VtA0gx9jqv9oV6bl75TRXq6ZcboA5B7sKuaNg,,,,,,,,,,,
,,,,,,,,,,,,,,p,1,0.61421,space,0.312505,0,66,66,21,1,0_dist_green/trial22.png,,,1,0,greenverival,p,28,27,Female,2021-02-26_08h51.11.760,exp11,2020.2.6,Win32,60,IwAR1sxqq8ylL-bjnWBHQxz-VtA0gx9jqv9oV6bl75TRXq6ZcboA5B7sKuaNg,,,,,,,,,,,
,,,,,,,,,,,,,,a,1,0.760895,space,0.12326,0,67,67,178,1,0_targ_16_dist_green/trial4.png,,,0,16,greenverival,a,28,27,Female,2021-02-26_08h51.11.760,exp11,2020.2.6,Win32,60,IwAR1sxqq8ylL-bjnWBHQxz-VtA0gx9jqv9oV6bl75TRXq6ZcboA5B7sKuaNg,,,,,,,,,,,
,,,,,,,,,,,,,,p,1,0.68972,space,0.23259,0,68,68,3,1,0_dist_green/trial4.png,,,1,0,greenverival,p,28,27,Female,2021-02-26_08h51.11.760,exp11,2020.2.6,Win32,60,IwAR1sxqq8ylL-bjnWBHQxz-VtA0gx9jqv9oV6bl75TRXq6ZcboA5B7sKuaNg,,,,,,,,,,,
,,,,,,,,,,,,,,a,1,0.740885,space,0.152785,0,69,69,142,1,0_targ_4_dist_green/trial18.png,,,0,4,greenverival,a,28,27,Female,2021-02-26_08h51.11.760,exp11,2020.2.6,Win32,60,IwAR1sxqq8ylL-bjnWBHQxz-VtA0gx9jqv9oV6bl75TRXq6ZcboA5B7sKuaNg,,,,,,,,,,,
,,,,,,,,,,,,,,p,1,1.0479,space,0.421585,0,70,70,90,1,15_dist_green/trial16.png,,,1,15,greenverival,p,28,27,Female,2021-02-26_08h51.11.760,exp11,2020.2.6,Win32,60,IwAR1sxqq8ylL-bjnWBHQxz-VtA0gx9jqv9oV6bl75TRXq6ZcboA5B7sKuaNg,,,,,,,,,,,
,,,,,,,,,,,,,,a,1,0.596535,space,0.158285,0,71,71,143,1,0_targ_4_dist_green/trial19.png,,,0,4,greenverival,a,28,27,Female,2021-02-26_08h51.11.760,exp11,2020.2.6,Win32,60,IwAR1sxqq8ylL-bjnWBHQxz-VtA0gx9jqv9oV6bl75TRXq6ZcboA5B7sKuaNg,,,,,,,,,,,
,,,,,,,,,,,,,,p,1,0.60947,space,0.275755,0,72,72,26,1,3_dist_green/trial2.png,,,1,3,greenverival,p,28,27,Female,2021-02-26_08h51.11.760,exp11,2020.2.6,Win32,60,IwAR1sxqq8ylL-bjnWBHQxz-VtA0gx9jqv9oV6bl75TRXq6ZcboA5B7sKuaNg,,,,,,,,,,,
,,,,,,,,,,,,,,a,1,0.58011,space,0.150885,0,73,73,108,1,0_targ_1_dist_green/trial9.png,,,0,1,greenverival,a,28,27,Female,2021-02-26_08h51.11.760,exp11,2020.2.6,Win32,60,IwAR1sxqq8ylL-bjnWBHQxz-VtA0gx9jqv9oV6bl75TRXq6ZcboA5B7sKuaNg,,,,,,,,,,,
,,,,,,,,,,,,,,p,1,0.686755,space,0.134155,0,74,74,5,1,0_dist_green/trial6.png,,,1,0,greenverival,p,28,27,Female,2021-02-26_08h51.11.760,exp11,2020.2.6,Win32,60,IwAR1sxqq8ylL-bjnWBHQxz-VtA0gx9jqv9oV6bl75TRXq6ZcboA5B7sKuaNg,,,,,,,,,,,
,,,,,,,,,,,,,,a,1,0.541915,space,0.125735,0,75,75,128,1,0_targ_4_dist_green/trial4.png,,,0,4,greenverival,a,28,27,Female,2021-02-26_08h51.11.760,exp11,2020.2.6,Win32,60,IwAR1sxqq8ylL-bjnWBHQxz-VtA0gx9jqv9oV6bl75TRXq6ZcboA5B7sKuaNg,,,,,,,,,,,
,,,,,,,,,,,,,,a,1,0.803085,space,0.15044,0,76,76,155,1,0_targ_10_dist_green/trial6.png,,,0,10,greenverival,a,28,27,Female,2021-02-26_08h51.11.760,exp11,2020.2.6,Win32,60,IwAR1sxqq8ylL-bjnWBHQxz-VtA0gx9jqv9oV6bl75TRXq6ZcboA5B7sKuaNg,,,,,,,,,,,
,,,,,,,,,,,,,,p,1,0.654975,space,0.16965,0,77,77,60,1,9_dist_green/trial11.png,,,1,9,greenverival,p,28,27,Female,2021-02-26_08h51.11.760,exp11,2020.2.6,Win32,60,IwAR1sxqq8ylL-bjnWBHQxz-VtA0gx9jqv9oV6bl75TRXq6ZcboA5B7sKuaNg,,,,,,,,,,,
,,,,,,,,,,,,,,a,1,0.95845,space,0.244565,0,78,78,172,1,0_targ_10_dist_green/trial23.png,,,0,10,greenverival,a,28,27,Female,2021-02-26_08h51.11.760,exp11,2020.2.6,Win32,60,IwAR1sxqq8ylL-bjnWBHQxz-VtA0gx9jqv9oV6bl75TRXq6ZcboA5B7sKuaNg,,,,,,,,,,,
,,,,,,,,,,,,,,p,1,0.564735,space,0.155315,0,79,79,45,1,3_dist_green/trial21.png,,,1,3,greenverival,p,28,27,Female,2021-02-26_08h51.11.760,exp11,2020.2.6,Win32,60,IwAR1sxqq8ylL-bjnWBHQxz-VtA0gx9jqv9oV6bl75TRXq6ZcboA5B7sKuaNg,,,,,,,,,,,
,,,,,,,,,,,,,,p,1,0.55807,space,0.073315,0,80,80,91,1,15_dist_green/trial17.png,,,1,15,greenverival,p,28,27,Female,2021-02-26_08h51.11.760,exp11,2020.2.6,Win32,60,IwAR1sxqq8ylL-bjnWBHQxz-VtA0gx9jqv9oV6bl75TRXq6ZcboA5B7sKuaNg,,,,,,,,,,,
,,,,,,,,,,,,,,p,1,0.702895,space,0.134875,0,81,81,0,1,0_dist_green/trial1.png,,,1,0,greenverival,p,28,27,Female,2021-02-26_08h51.11.760,exp11,2020.2.6,Win32,60,IwAR1sxqq8ylL-bjnWBHQxz-VtA0gx9jqv9oV6bl75TRXq6ZcboA5B7sKuaNg,,,,,,,,,,,
,,,,,,,,,,,,,,p,1,0.517095,space,0.110955,0,82,82,12,1,0_dist_green/trial13.png,,,1,0,greenverival,p,28,27,Female,2021-02-26_08h51.11.760,exp11,2020.2.6,Win32,60,IwAR1sxqq8ylL-bjnWBHQxz-VtA0gx9jqv9oV6bl75TRXq6ZcboA5B7sKuaNg,,,,,,,,,,,
,,,,,,,,,,,,,,a,1,0.54379,space,0.121235,0,83,83,140,1,0_targ_4_dist_green/trial6.png,,,0,4,greenverival,a,28,27,Female,2021-02-26_08h51.11.760,exp11,2020.2.6,Win32,60,IwAR1sxqq8ylL-bjnWBHQxz-VtA0gx9jqv9oV6bl75TRXq6ZcboA5B7sKuaNg,,,,,,,,,,,
,,,,,,,,,,,,,,p,1,0.634535,space,0.09193,0,84,84,32,1,3_dist_green/trial8.png,,,1,3,greenverival,p,28,27,Female,2021-02-26_08h51.11.760,exp11,2020.2.6,Win32,60,IwAR1sxqq8ylL-bjnWBHQxz-VtA0gx9jqv9oV6bl75TRXq6ZcboA5B7sKuaNg,,,,,,,,,,,
,,,,,,,,,,,,,,a,1,0.57652,space,0.125965,0,85,85,144,1,0_targ_4_dist_green/trial20.png,,,0,4,greenverival,a,28,27,Female,2021-02-26_08h51.11.760,exp11,2020.2.6,Win32,60,IwAR1sxqq8ylL-bjnWBHQxz-VtA0gx9jqv9oV6bl75TRXq6ZcboA5B7sKuaNg,,,,,,,,,,,
,,,,,,,,,,,,,,p,1,0.97907,space,0.11708,0,86,86,59,1,9_dist_green/trial10.png,,,1,9,greenverival,p,28,27,Female,2021-02-26_08h51.11.760,exp11,2020.2.6,Win32,60,IwAR1sxqq8ylL-bjnWBHQxz-VtA0gx9jqv9oV6bl75TRXq6ZcboA5B7sKuaNg,,,,,,,,,,,
,,,,,,,,,,,,,,a,1,0.8062,space,0.14358,0,87,87,188,1,0_targ_16_dist_green/trial14.png,,,0,16,greenverival,a,28,27,Female,2021-02-26_08h51.11.760,exp11,2020.2.6,Win32,60,IwAR1sxqq8ylL-bjnWBHQxz-VtA0gx9jqv9oV6bl75TRXq6ZcboA5B7sKuaNg,,,,,,,,,,,
,,,,,,,,,,,,,,p,1,0.79428,space,0.121315,0,88,88,79,1,15_dist_green/trial5.png,,,1,15,greenverival,p,28,27,Female,2021-02-26_08h51.11.760,exp11,2020.2.6,Win32,60,IwAR1sxqq8ylL-bjnWBHQxz-VtA0gx9jqv9oV6bl75TRXq6ZcboA5B7sKuaNg,,,,,,,,,,,
,,,,,,,,,,,,,,p,1,0.58334,space,0.10058,0,89,89,10,1,0_dist_green/trial11.png,,,1,0,greenverival,p,28,27,Female,2021-02-26_08h51.11.760,exp11,2020.2.6,Win32,60,IwAR1sxqq8ylL-bjnWBHQxz-VtA0gx9jqv9oV6bl75TRXq6ZcboA5B7sKuaNg,,,,,,,,,,,
,,,,,,,,,,,,,,a,1,0.61283,space,0.118705,0,90,90,130,1,0_targ_4_dist_green/trial6.png,,,0,4,greenverival,a,28,27,Female,2021-02-26_08h51.11.760,exp11,2020.2.6,Win32,60,IwAR1sxqq8ylL-bjnWBHQxz-VtA0gx9jqv9oV6bl75TRXq6ZcboA5B7sKuaNg,,,,,,,,,,,
,,,,,,,,,,,,,,p,1,0.773835,space,0.09152,0,91,91,18,1,0_dist_green/trial19.png,,,1,0,greenverival,p,28,27,Female,2021-02-26_08h51.11.760,exp11,2020.2.6,Win32,60,IwAR1sxqq8ylL-bjnWBHQxz-VtA0gx9jqv9oV6bl75TRXq6ZcboA5B7sKuaNg,,,,,,,,,,,
,,,,,,,,,,,,,,p,1,0.70602,space,0.14342,0,92,92,93,1,15_dist_green/trial19.png,,,1,15,greenverival,p,28,27,Female,2021-02-26_08h51.11.760,exp11,2020.2.6,Win32,60,IwAR1sxqq8ylL-bjnWBHQxz-VtA0gx9jqv9oV6bl75TRXq6ZcboA5B7sKuaNg,,,,,,,,,,,
,,,,,,,,,,,,,,a,1,0.741075,space,0.295705,0,93,93,134,1,0_targ_4_dist_green/trial10.png,,,0,4,greenverival,a,28,27,Female,2021-02-26_08h51.11.760,exp11,2020.2.6,Win32,60,IwAR1sxqq8ylL-bjnWBHQxz-VtA0gx9jqv9oV6bl75TRXq6ZcboA5B7sKuaNg,,,,,,,,,,,
,,,,,,,,,,,,,,a,1,0.610555,space,0.234565,0,94,94,157,1,0_targ_10_dist_green/trial8.png,,,0,10,greenverival,a,28,27,Female,2021-02-26_08h51.11.760,exp11,2020.2.6,Win32,60,IwAR1sxqq8ylL-bjnWBHQxz-VtA0gx9jqv9oV6bl75TRXq6ZcboA5B7sKuaNg,,,,,,,,,,,
,,,,,,,,,,,,,,p,1,0.814285,space,0.124785,0,95,95,65,1,9_dist_green/trial16.png,,,1,9,greenverival,p,28,27,Female,2021-02-26_08h51.11.760,exp11,2020.2.6,Win32,60,IwAR1sxqq8ylL-bjnWBHQxz-VtA0gx9jqv9oV6bl75TRXq6ZcboA5B7sKuaNg,,,,,,,,,,,
,,,,,,,,,,,,,,p,1,0.49337,space,0.10636,0,96,96,9,1,0_dist_green/trial10.png,,,1,0,greenverival,p,28,27,Female,2021-02-26_08h51.11.760,exp11,2020.2.6,Win32,60,IwAR1sxqq8ylL-bjnWBHQxz-VtA0gx9jqv9oV6bl75TRXq6ZcboA5B7sKuaNg,,,,,,,,,,,
,,,,,,,,,,,,,,p,1,0.510655,space,0.051505,0,97,97,19,1,0_dist_green/trial20.png,,,1,0,greenverival,p,28,27,Female,2021-02-26_08h51.11.760,exp11,2020.2.6,Win32,60,IwAR1sxqq8ylL-bjnWBHQxz-VtA0gx9jqv9oV6bl75TRXq6ZcboA5B7sKuaNg,,,,,,,,,,,
,,,,,,,,,,,,,,a,1,0.59907,space,0.099405,0,98,98,136,1,0_targ_4_dist_green/trial12.png,,,0,4,greenverival,a,28,27,Female,2021-02-26_08h51.11.760,exp11,2020.2.6,Win32,60,IwAR1sxqq8ylL-bjnWBHQxz-VtA0gx9jqv9oV6bl75TRXq6ZcboA5B7sKuaNg,,,,,,,,,,,
,,,,,,,,,,,,,,p,1,0.65401,space,0.103805,0,99,99,57,1,9_dist_green/trial8.png,,,1,9,greenverival,p,28,27,Female,2021-02-26_08h51.11.760,exp11,2020.2.6,Win32,60,IwAR1sxqq8ylL-bjnWBHQxz-VtA0gx9jqv9oV6bl75TRXq6ZcboA5B7sKuaNg,,,,,,,,,,,
,,,,,,,,,,,,,,p,1,0.91134,space,0.60564,0,100,100,50,1,9_dist_green/trial1.png,,,1,9,greenverival,p,28,27,Female,2021-02-26_08h51.11.760,exp11,2020.2.6,Win32,60,IwAR1sxqq8ylL-bjnWBHQxz-VtA0gx9jqv9oV6bl75TRXq6ZcboA5B7sKuaNg,,,,,,,,,,,
,,,,,,,,,,,,,,p,1,1.21536,space,0.45255,0,101,101,95,1,15_dist_green/trial21.png,,,1,15,greenverival,p,28,27,Female,2021-02-26_08h51.11.760,exp11,2020.2.6,Win32,60,IwAR1sxqq8ylL-bjnWBHQxz-VtA0gx9jqv9oV6bl75TRXq6ZcboA5B7sKuaNg,,,,,,,,,,,
,,,,,,,,,,,,,,p,1,0.545705,space,0.12261,0,102,102,61,1,9_dist_green/trial12.png,,,1,9,greenverival,p,28,27,Female,2021-02-26_08h51.11.760,exp11,2020.2.6,Win32,60,IwAR1sxqq8ylL-bjnWBHQxz-VtA0gx9jqv9oV6bl75TRXq6ZcboA5B7sKuaNg,,,,,,,,,,,
,,,,,,,,,,,,,,a,1,0.80037,space,0.08895,0,103,103,185,1,0_targ_16_dist_green/trial11.png,,,0,16,greenverival,a,28,27,Female,2021-02-26_08h51.11.760,exp11,2020.2.6,Win32,60,IwAR1sxqq8ylL-bjnWBHQxz-VtA0gx9jqv9oV6bl75TRXq6ZcboA5B7sKuaNg,,,,,,,,,,,
,,,,,,,,,,,,,,a,1,0.819145,space,0.071215,0,104,104,187,1,0_targ_16_dist_green/trial13.png,,,0,16,greenverival,a,28,27,Female,2021-02-26_08h51.11.760,exp11,2020.2.6,Win32,60,IwAR1sxqq8ylL-bjnWBHQxz-VtA0gx9jqv9oV6bl75TRXq6ZcboA5B7sKuaNg,,,,,,,,,,,
,,,,,,,,,,,,,,a,1,0.692995,space,0.13823,0,105,105,198,1,0_targ_16_dist_green/trial24.png,,,0,16,greenverival,a,28,27,Female,2021-02-26_08h51.11.760,exp11,2020.2.6,Win32,60,IwAR1sxqq8ylL-bjnWBHQxz-VtA0gx9jqv9oV6bl75TRXq6ZcboA5B7sKuaNg,,,,,,,,,,,
,,,,,,,,,,,,,,p,1,0.59709,space,0.141805,0,106,106,89,1,15_dist_green/trial15.png,,,1,15,greenverival,p,28,27,Female,2021-02-26_08h51.11.760,exp11,2020.2.6,Win32,60,IwAR1sxqq8ylL-bjnWBHQxz-VtA0gx9jqv9oV6bl75TRXq6ZcboA5B7sKuaNg,,,,,,,,,,,
,,,,,,,,,,,,,,a,1,0.665835,space,0.05884,0,107,107,189,1,0_targ_16_dist_green/trial15.png,,,0,16,greenverival,a,28,27,Female,2021-02-26_08h51.11.760,exp11,2020.2.6,Win32,60,IwAR1sxqq8ylL-bjnWBHQxz-VtA0gx9jqv9oV6bl75TRXq6ZcboA5B7sKuaNg,,,,,,,,,,,
,,,,,,,,,,,,,,a,1,0.749905,space,0.11747,0,108,108,158,1,0_targ_10_dist_green/trial9.png,,,0,10,greenverival,a,28,27,Female,2021-02-26_08h51.11.760,exp11,2020.2.6,Win32,60,IwAR1sxqq8ylL-bjnWBHQxz-VtA0gx9jqv9oV6bl75TRXq6ZcboA5B7sKuaNg,,,,,,,,,,,
,,,,,,,,,,,,,,a,1,0.650095,space,0.372555,0,109,109,152,1,0_targ_10_dist_green/trial3.png,,,0,10,greenverival,a,28,27,Female,2021-02-26_08h51.11.760,exp11,2020.2.6,Win32,60,IwAR1sxqq8ylL-bjnWBHQxz-VtA0gx9jqv9oV6bl75TRXq6ZcboA5B7sKuaNg,,,,,,,,,,,
,,,,,,,,,,,,,,p,1,0.49576,space,0.01736,0,110,110,24,1,0_dist_green/trial25.png,,,1,0,greenverival,p,28,27,Female,2021-02-26_08h51.11.760,exp11,2020.2.6,Win32,60,IwAR1sxqq8ylL-bjnWBHQxz-VtA0gx9jqv9oV6bl75TRXq6ZcboA5B7sKuaNg,,,,,,,,,,,
,,,,,,,,,,,,,,a,1,0.905445,space,0.13214,0,111,111,139,1,0_targ_4_dist_green/trial15.png,,,0,4,greenverival,a,28,27,Female,2021-02-26_08h51.11.760,exp11,2020.2.6,Win32,60,IwAR1sxqq8ylL-bjnWBHQxz-VtA0gx9jqv9oV6bl75TRXq6ZcboA5B7sKuaNg,,,,,,,,,,,
,,,,,,,,,,,,,,p,1,0.661605,space,0.11721,0,112,112,78,1,15_dist_green/trial4.png,,,1,15,greenverival,p,28,27,Female,2021-02-26_08h51.11.760,exp11,2020.2.6,Win32,60,IwAR1sxqq8ylL-bjnWBHQxz-VtA0gx9jqv9oV6bl75TRXq6ZcboA5B7sKuaNg,,,,,,,,,,,
,,,,,,,,,,,,,,a,1,0.63455,space,0.133735,0,113,113,163,1,0_targ_10_dist_green/trial14.png,,,0,10,greenverival,a,28,27,Female,2021-02-26_08h51.11.760,exp11,2020.2.6,Win32,60,IwAR1sxqq8ylL-bjnWBHQxz-VtA0gx9jqv9oV6bl75TRXq6ZcboA5B7sKuaNg,,,,,,,,,,,
,,,,,,,,,,,,,,a,1,0.72418,space,0.14594,0,114,114,173,1,0_targ_10_dist_green/trial24.png,,,0,10,greenverival,a,28,27,Female,2021-02-26_08h51.11.760,exp11,2020.2.6,Win32,60,IwAR1sxqq8ylL-bjnWBHQxz-VtA0gx9jqv9oV6bl75TRXq6ZcboA5B7sKuaNg,,,,,,,,,,,
,,,,,,,,,,,,,,a,1,0.550035,space,0.155505,0,115,115,154,1,0_targ_10_dist_green/trial5.png,,,0,10,greenverival,a,28,27,Female,2021-02-26_08h51.11.760,exp11,2020.2.6,Win32,60,IwAR1sxqq8ylL-bjnWBHQxz-VtA0gx9jqv9oV6bl75TRXq6ZcboA5B7sKuaNg,,,,,,,,,,,
,,,,,,,,,,,,,,p,1,0.48995,space,0.132655,0,116,116,49,1,3_dist_green/trial25.png,,,1,3,greenverival,p,28,27,Female,2021-02-26_08h51.11.760,exp11,2020.2.6,Win32,60,IwAR1sxqq8ylL-bjnWBHQxz-VtA0gx9jqv9oV6bl75TRXq6ZcboA5B7sKuaNg,,,,,,,,,,,
,,,,,,,,,,,,,,p,1,0.689775,space,0.491815,0,117,117,28,1,3_dist_green/trial4.png,,,1,3,greenverival,p,28,27,Female,2021-02-26_08h51.11.760,exp11,2020.2.6,Win32,60,IwAR1sxqq8ylL-bjnWBHQxz-VtA0gx9jqv9oV6bl75TRXq6ZcboA5B7sKuaNg,,,,,,,,,,,
,,,,,,,,,,,,,,p,1,0.62945,space,0.116865,0,118,118,94,1,15_dist_green/trial20.png,,,1,15,greenverival,p,28,27,Female,2021-02-26_08h51.11.760,exp11,2020.2.6,Win32,60,IwAR1sxqq8ylL-bjnWBHQxz-VtA0gx9jqv9oV6bl75TRXq6ZcboA5B7sKuaNg,,,,,,,,,,,
,,,,,,,,,,,,,,p,1,0.78683,space,0.10539,0,119,119,25,1,3_dist_green/trial1.png,,,1,3,greenverival,p,28,27,Female,2021-02-26_08h51.11.760,exp11,2020.2.6,Win32,60,IwAR1sxqq8ylL-bjnWBHQxz-VtA0gx9jqv9oV6bl75TRXq6ZcboA5B7sKuaNg,,,,,,,,,,,
,,,,,,,,,,,,,,p,1,0.57569,space,0.10499,0,120,120,66,1,9_dist_green/trial17.png,,,1,9,greenverival,p,28,27,Female,2021-02-26_08h51.11.760,exp11,2020.2.6,Win32,60,IwAR1sxqq8ylL-bjnWBHQxz-VtA0gx9jqv9oV6bl75TRXq6ZcboA5B7sKuaNg,,,,,,,,,,,
,,,,,,,,,,,,,,a,1,0.643565,space,0.094085,0,121,121,164,1,0_targ_10_dist_green/trial15.png,,,0,10,greenverival,a,28,27,Female,2021-02-26_08h51.11.760,exp11,2020.2.6,Win32,60,IwAR1sxqq8ylL-bjnWBHQxz-VtA0gx9jqv9oV6bl75TRXq6ZcboA5B7sKuaNg,,,,,,,,,,,
,,,,,,,,,,,,,,a,1,0.87845,space,0.417575,0,122,122,146,1,0_targ_4_dist_green/trial22.png,,,0,4,greenverival,a,28,27,Female,2021-02-26_08h51.11.760,exp11,2020.2.6,Win32,60,IwAR1sxqq8ylL-bjnWBHQxz-VtA0gx9jqv9oV6bl75TRXq6ZcboA5B7sKuaNg,,,,,,,,,,,
,,,,,,,,,,,,,,a,1,0.57279,space,0.1062,0,123,123,104,1,0_targ_1_dist_green/trial5.png,,,0,1,greenverival,a,28,27,Female,2021-02-26_08h51.11.760,exp11,2020.2.6,Win32,60,IwAR1sxqq8ylL-bjnWBHQxz-VtA0gx9jqv9oV6bl75TRXq6ZcboA5B7sKuaNg,,,,,,,,,,,
,,,,,,,,,,,,,,p,1,0.616255,space,0.11702,0,124,124,51,1,9_dist_green/trial2.png,,,1,9,greenverival,p,28,27,Female,2021-02-26_08h51.11.760,exp11,2020.2.6,Win32,60,IwAR1sxqq8ylL-bjnWBHQxz-VtA0gx9jqv9oV6bl75TRXq6ZcboA5B7sKuaNg,,,,,,,,,,,
,,,,,,,,,,,,,,a,1,0.81875,space,0.16777,0,125,125,195,1,0_targ_16_dist_green/trial21.png,,,0,16,greenverival,a,28,27,Female,2021-02-26_08h51.11.760,exp11,2020.2.6,Win32,60,IwAR1sxqq8ylL-bjnWBHQxz-VtA0gx9jqv9oV6bl75TRXq6ZcboA5B7sKuaNg,,,,,,,,,,,
,,,,,,,,,,,,,,p,1,0.59592,space,0.091995,0,126,126,38,1,3_dist_green/trial14.png,,,1,3,greenverival,p,28,27,Female,2021-02-26_08h51.11.760,exp11,2020.2.6,Win32,60,IwAR1sxqq8ylL-bjnWBHQxz-VtA0gx9jqv9oV6bl75TRXq6ZcboA5B7sKuaNg,,,,,,,,,,,
,,,,,,,,,,,,,,p,1,0.565235,space,0.105275,0,127,127,15,1,0_dist_green/trial16.png,,,1,0,greenverival,p,28,27,Female,2021-02-26_08h51.11.760,exp11,2020.2.6,Win32,60,IwAR1sxqq8ylL-bjnWBHQxz-VtA0gx9jqv9oV6bl75TRXq6ZcboA5B7sKuaNg,,,,,,,,,,,
,,,,,,,,,,,,,,a,1,0.504065,space,0.14025,0,128,128,122,1,0_targ_1_dist_green/trial23.png,,,0,1,greenverival,a,28,27,Female,2021-02-26_08h51.11.760,exp11,2020.2.6,Win32,60,IwAR1sxqq8ylL-bjnWBHQxz-VtA0gx9jqv9oV6bl75TRXq6ZcboA5B7sKuaNg,,,,,,,,,,,
,,,,,,,,,,,,,,p,1,0.7161,space,0.08539,0,129,129,48,1,3_dist_green/trial24.png,,,1,3,greenverival,p,28,27,Female,2021-02-26_08h51.11.760,exp11,2020.2.6,Win32,60,IwAR1sxqq8ylL-bjnWBHQxz-VtA0gx9jqv9oV6bl75TRXq6ZcboA5B7sKuaNg,,,,,,,,,,,
,,,,,,,,,,,,,,a,1,0.578745,space,0.072565,0,130,130,196,1,0_targ_16_dist_green/trial22.png,,,0,16,greenverival,a,28,27,Female,2021-02-26_08h51.11.760,exp11,2020.2.6,Win32,60,IwAR1sxqq8ylL-bjnWBHQxz-VtA0gx9jqv9oV6bl75TRXq6ZcboA5B7sKuaNg,,,,,,,,,,,
,,,,,,,,,,,,,,a,1,0.614965,space,0.09532,0,131,131,182,1,0_targ_16_dist_green/trial8.png,,,0,16,greenverival,a,28,27,Female,2021-02-26_08h51.11.760,exp11,2020.2.6,Win32,60,IwAR1sxqq8ylL-bjnWBHQxz-VtA0gx9jqv9oV6bl75TRXq6ZcboA5B7sKuaNg,,,,,,,,,,,
,,,,,,,,,,,,,,p,1,0.69175,space,0.12065,0,132,132,82,1,15_dist_green/trial8.png,,,1,15,greenverival,p,28,27,Female,2021-02-26_08h51.11.760,exp11,2020.2.6,Win32,60,IwAR1sxqq8ylL-bjnWBHQxz-VtA0gx9jqv9oV6bl75TRXq6ZcboA5B7sKuaNg,,,,,,,,,,,
,,,,,,,,,,,,,,a,1,0.73578,space,0.13077,0,133,133,121,1,0_targ_1_dist_green/trial22.png,,,0,1,greenverival,a,28,27,Female,2021-02-26_08h51.11.760,exp11,2020.2.6,Win32,60,IwAR1sxqq8ylL-bjnWBHQxz-VtA0gx9jqv9oV6bl75TRXq6ZcboA5B7sKuaNg,,,,,,,,,,,
,,,,,,,,,,,,,,p,1,0.5013,space,0.10885,0,134,134,83,1,15_dist_green/trial9.png,,,1,15,greenverival,p,28,27,Female,2021-02-26_08h51.11.760,exp11,2020.2.6,Win32,60,IwAR1sxqq8ylL-bjnWBHQxz-VtA0gx9jqv9oV6bl75TRXq6ZcboA5B7sKuaNg,,,,,,,,,,,
,,,,,,,,,,,,,,p,1,0.778185,space,0.134925,0,135,135,17,1,0_dist_green/trial18.png,,,1,0,greenverival,p,28,27,Female,2021-02-26_08h51.11.760,exp11,2020.2.6,Win32,60,IwAR1sxqq8ylL-bjnWBHQxz-VtA0gx9jqv9oV6bl75TRXq6ZcboA5B7sKuaNg,,,,,,,,,,,
,,,,,,,,,,,,,,a,1,0.921995,space,0.18336,0,136,136,116,1,0_targ_1_dist_green/trial17.png,,,0,1,greenverival,a,28,27,Female,2021-02-26_08h51.11.760,exp11,2020.2.6,Win32,60,IwAR1sxqq8ylL-bjnWBHQxz-VtA0gx9jqv9oV6bl75TRXq6ZcboA5B7sKuaNg,,,,,,,,,,,
,,,,,,,,,,,,,,p,1,0.747955,space,0.070925,0,137,137,55,1,9_dist_green/trial6.png,,,1,9,greenverival,p,28,27,Female,2021-02-26_08h51.11.760,exp11,2020.2.6,Win32,60,IwAR1sxqq8ylL-bjnWBHQxz-VtA0gx9jqv9oV6bl75TRXq6ZcboA5B7sKuaNg,,,,,,,,,,,
,,,,,,,,,,,,,,a,1,0.6107,space,0.40852,0,138,138,166,1,0_targ_10_dist_green/trial17.png,,,0,10,greenverival,a,28,27,Female,2021-02-26_08h51.11.760,exp11,2020.2.6,Win32,60,IwAR1sxqq8ylL-bjnWBHQxz-VtA0gx9jqv9oV6bl75TRXq6ZcboA5B7sKuaNg,,,,,,,,,,,
,,,,,,,,,,,,,,p,1,0.624,space,0.10363,0,139,139,69,1,9_dist_green/trial20.png,,,1,9,greenverival,p,28,27,Female,2021-02-26_08h51.11.760,exp11,2020.2.6,Win32,60,IwAR1sxqq8ylL-bjnWBHQxz-VtA0gx9jqv9oV6bl75TRXq6ZcboA5B7sKuaNg,,,,,,,,,,,
,,,,,,,,,,,,,,p,1,0.92606,space,0.126845,0,140,140,44,1,3_dist_green/trial20.png,,,1,3,greenverival,p,28,27,Female,2021-02-26_08h51.11.760,exp11,2020.2.6,Win32,60,IwAR1sxqq8ylL-bjnWBHQxz-VtA0gx9jqv9oV6bl75TRXq6ZcboA5B7sKuaNg,,,,,,,,,,,
,,,,,,,,,,,,,,p,1,0.635145,space,0.1509,0,141,141,56,1,9_dist_green/trial7.png,,,1,9,greenverival,p,28,27,Female,2021-02-26_08h51.11.760,exp11,2020.2.6,Win32,60,IwAR1sxqq8ylL-bjnWBHQxz-VtA0gx9jqv9oV6bl75TRXq6ZcboA5B7sKuaNg,,,,,,,,,,,
,,,,,,,,,,,,,,a,1,0.58029,space,0.09091,0,142,142,197,1,0_targ_16_dist_green/trial23.png,,,0,16,greenverival,a,28,27,Female,2021-02-26_08h51.11.760,exp11,2020.2.6,Win32,60,IwAR1sxqq8ylL-bjnWBHQxz-VtA0gx9jqv9oV6bl75TRXq6ZcboA5B7sKuaNg,,,,,,,,,,,
,,,,,,,,,,,,,,p,1,0.589845,space,0.141715,0,143,143,7,1,0_dist_green/trial8.png,,,1,0,greenverival,p,28,27,Female,2021-02-26_08h51.11.760,exp11,2020.2.6,Win32,60,IwAR1sxqq8ylL-bjnWBHQxz-VtA0gx9jqv9oV6bl75TRXq6ZcboA5B7sKuaNg,,,,,,,,,,,
,,,,,,,,,,,,,,a,1,0.881785,space,0.090155,0,144,144,162,1,0_targ_10_dist_green/trial13.png,,,0,10,greenverival,a,28,27,Female,2021-02-26_08h51.11.760,exp11,2020.2.6,Win32,60,IwAR1sxqq8ylL-bjnWBHQxz-VtA0gx9jqv9oV6bl75TRXq6ZcboA5B7sKuaNg,,,,,,,,,,,
,,,,,,,,,,,,,,p,1,0.578265,space,0.38837,0,145,145,64,1,9_dist_green/trial15.png,,,1,9,greenverival,p,28,27,Female,2021-02-26_08h51.11.760,exp11,2020.2.6,Win32,60,IwAR1sxqq8ylL-bjnWBHQxz-VtA0gx9jqv9oV6bl75TRXq6ZcboA5B7sKuaNg,,,,,,,,,,,
,,,,,,,,,,,,,,p,1,0.55524,space,0.084235,0,146,146,84,1,15_dist_green/trial10.png,,,1,15,greenverival,p,28,27,Female,2021-02-26_08h51.11.760,exp11,2020.2.6,Win32,60,IwAR1sxqq8ylL-bjnWBHQxz-VtA0gx9jqv9oV6bl75TRXq6ZcboA5B7sKuaNg,,,,,,,,,,,
,,,,,,,,,,,,,,a,1,0.58338,space,0.03951,0,147,147,184,1,0_targ_16_dist_green/trial10.png,,,0,16,greenverival,a,28,27,Female,2021-02-26_08h51.11.760,exp11,2020.2.6,Win32,60,IwAR1sxqq8ylL-bjnWBHQxz-VtA0gx9jqv9oV6bl75TRXq6ZcboA5B7sKuaNg,,,,,,,,,,,
,,,,,,,,,,,,,,a,1,0.8023,space,0.08761,0,148,148,129,1,0_targ_4_dist_green/trial5.png,,,0,4,greenverival,a,28,27,Female,2021-02-26_08h51.11.760,exp11,2020.2.6,Win32,60,IwAR1sxqq8ylL-bjnWBHQxz-VtA0gx9jqv9oV6bl75TRXq6ZcboA5B7sKuaNg,,,,,,,,,,,
,,,,,,,,,,,,,,p,1,0.550385,space,0.063385,0,149,149,34,1,3_dist_green/trial10.png,,,1,3,greenverival,p,28,27,Female,2021-02-26_08h51.11.760,exp11,2020.2.6,Win32,60,IwAR1sxqq8ylL-bjnWBHQxz-VtA0gx9jqv9oV6bl75TRXq6ZcboA5B7sKuaNg,,,,,,,,,,,
,,,,,,,,,,,,,,a,1,0.769675,space,0.21395,0,150,150,123,1,0_targ_1_dist_green/trial24.png,,,0,1,greenverival,a,28,27,Female,2021-02-26_08h51.11.760,exp11,2020.2.6,Win32,60,IwAR1sxqq8ylL-bjnWBHQxz-VtA0gx9jqv9oV6bl75TRXq6ZcboA5B7sKuaNg,,,,,,,,,,,
,,,,,,,,,,,,,,a,1,0.56777,space,0.1412,0,151,151,113,1,0_targ_1_dist_green/trial14.png,,,0,1,greenverival,a,28,27,Female,2021-02-26_08h51.11.760,exp11,2020.2.6,Win32,60,IwAR1sxqq8ylL-bjnWBHQxz-VtA0gx9jqv9oV6bl75TRXq6ZcboA5B7sKuaNg,,,,,,,,,,,
,,,,,,,,,,,,,,a,1,0.974845,space,0.147475,0,152,152,194,1,0_targ_16_dist_green/trial20.png,,,0,16,greenverival,a,28,27,Female,2021-02-26_08h51.11.760,exp11,2020.2.6,Win32,60,IwAR1sxqq8ylL-bjnWBHQxz-VtA0gx9jqv9oV6bl75TRXq6ZcboA5B7sKuaNg,,,,,,,,,,,
,,,,,,,,,,,,,,p,1,0.745205,space,0.059755,0,153,153,81,1,15_dist_green/trial7.png,,,1,15,greenverival,p,28,27,Female,2021-02-26_08h51.11.760,exp11,2020.2.6,Win32,60,IwAR1sxqq8ylL-bjnWBHQxz-VtA0gx9jqv9oV6bl75TRXq6ZcboA5B7sKuaNg,,,,,,,,,,,
,,,,,,,,,,,,,,a,1,0.815455,space,0.08514,0,154,154,131,1,0_targ_4_dist_green/trial7.png,,,0,4,greenverival,a,28,27,Female,2021-02-26_08h51.11.760,exp11,2020.2.6,Win32,60,IwAR1sxqq8ylL-bjnWBHQxz-VtA0gx9jqv9oV6bl75TRXq6ZcboA5B7sKuaNg,,,,,,,,,,,
,,,,,,,,,,,,,,a,1,0.74884,space,0.12389,0,155,155,103,1,0_targ_1_dist_green/trial4.png,,,0,1,greenverival,a,28,27,Female,2021-02-26_08h51.11.760,exp11,2020.2.6,Win32,60,IwAR1sxqq8ylL-bjnWBHQxz-VtA0gx9jqv9oV6bl75TRXq6ZcboA5B7sKuaNg,,,,,,,,,,,
,,,,,,,,,,,,,,a,1,0.612895,space,0.11777,0,156,156,105,1,0_targ_1_dist_green/trial6.png,,,0,1,greenverival,a,28,27,Female,2021-02-26_08h51.11.760,exp11,2020.2.6,Win32,60,IwAR1sxqq8ylL-bjnWBHQxz-VtA0gx9jqv9oV6bl75TRXq6ZcboA5B7sKuaNg,,,,,,,,,,,
,,,,,,,,,,,,,,p,1,0.596035,space,0.10113,0,157,157,62,1,9_dist_green/trial13.png,,,1,9,greenverival,p,28,27,Female,2021-02-26_08h51.11.760,exp11,2020.2.6,Win32,60,IwAR1sxqq8ylL-bjnWBHQxz-VtA0gx9jqv9oV6bl75TRXq6ZcboA5B7sKuaNg,,,,,,,,,,,
,,,,,,,,,,,,,,a,1,0.739595,space,0.06763,0,158,158,161,1,0_targ_10_dist_green/trial12.png,,,0,10,greenverival,a,28,27,Female,2021-02-26_08h51.11.760,exp11,2020.2.6,Win32,60,IwAR1sxqq8ylL-bjnWBHQxz-VtA0gx9jqv9oV6bl75TRXq6ZcboA5B7sKuaNg,,,,,,,,,,,
,,,,,,,,,,,,,,p,1,0.80966,space,0.00386,0,159,159,22,1,0_dist_green/trial23.png,,,1,0,greenverival,p,28,27,Female,2021-02-26_08h51.11.760,exp11,2020.2.6,Win32,60,IwAR1sxqq8ylL-bjnWBHQxz-VtA0gx9jqv9oV6bl75TRXq6ZcboA5B7sKuaNg,,,,,,,,,,,
,,,,,,,,,,,,,,a,1,0.910295,space,0.1213,0,160,160,107,1,0_targ_1_dist_green/trial8.png,,,0,1,greenverival,a,28,27,Female,2021-02-26_08h51.11.760,exp11,2020.2.6,Win32,60,IwAR1sxqq8ylL-bjnWBHQxz-VtA0gx9jqv9oV6bl75TRXq6ZcboA5B7sKuaNg,,,,,,,,,,,
,,,,,,,,,,,,,,p,1,0.560715,space,0.070475,0,161,161,58,1,9_dist_green/trial9.png,,,1,9,greenverival,p,28,27,Female,2021-02-26_08h51.11.760,exp11,2020.2.6,Win32,60,IwAR1sxqq8ylL-bjnWBHQxz-VtA0gx9jqv9oV6bl75TRXq6ZcboA5B7sKuaNg,,,,,,,,,,,
,,,,,,,,,,,,,,p,1,0.78624,space,0.06689,0,162,162,30,1,3_dist_green/trial6.png,,,1,3,greenverival,p,28,27,Female,2021-02-26_08h51.11.760,exp11,2020.2.6,Win32,60,IwAR1sxqq8ylL-bjnWBHQxz-VtA0gx9jqv9oV6bl75TRXq6ZcboA5B7sKuaNg,,,,,,,,,,,
,,,,,,,,,,,,,,p,1,0.67438,space,0.088555,0,163,163,53,1,9_dist_green/trial4.png,,,1,9,greenverival,p,28,27,Female,2021-02-26_08h51.11.760,exp11,2020.2.6,Win32,60,IwAR1sxqq8ylL-bjnWBHQxz-VtA0gx9jqv9oV6bl75TRXq6ZcboA5B7sKuaNg,,,,,,,,,,,
,,,,,,,,,,,,,,a,1,0.675215,space,0.194935,0,164,164,126,1,0_targ_4_dist_green/trial2.png,,,0,4,greenverival,a,28,27,Female,2021-02-26_08h51.11.760,exp11,2020.2.6,Win32,60,IwAR1sxqq8ylL-bjnWBHQxz-VtA0gx9jqv9oV6bl75TRXq6ZcboA5B7sKuaNg,,,,,,,,,,,
,,,,,,,,,,,,,,p,1,0.59965,space,0.135225,0,165,165,4,1,0_dist_green/trial5.png,,,1,0,greenverival,p,28,27,Female,2021-02-26_08h51.11.760,exp11,2020.2.6,Win32,60,IwAR1sxqq8ylL-bjnWBHQxz-VtA0gx9jqv9oV6bl75TRXq6ZcboA5B7sKuaNg,,,,,,,,,,,
,,,,,,,,,,,,,,p,1,1.01206,space,0.09402,0,166,166,29,1,3_dist_green/trial5.png,,,1,3,greenverival,p,28,27,Female,2021-02-26_08h51.11.760,exp11,2020.2.6,Win32,60,IwAR1sxqq8ylL-bjnWBHQxz-VtA0gx9jqv9oV6bl75TRXq6ZcboA5B7sKuaNg,,,,,,,,,,,
,,,,,,,,,,,,,,p,1,0.65134,space,0.08877,0,167,167,13,1,0_dist_green/trial14.png,,,1,0,greenverival,p,28,27,Female,2021-02-26_08h51.11.760,exp11,2020.2.6,Win32,60,IwAR1sxqq8ylL-bjnWBHQxz-VtA0gx9jqv9oV6bl75TRXq6ZcboA5B7sKuaNg,,,,,,,,,,,
,,,,,,,,,,,,,,a,1,0.63,space,0.08571,0,168,168,101,1,0_targ_1_dist_green/trial2.png,,,0,1,greenverival,a,28,27,Female,2021-02-26_08h51.11.760,exp11,2020.2.6,Win32,60,IwAR1sxqq8ylL-bjnWBHQxz-VtA0gx9jqv9oV6bl75TRXq6ZcboA5B7sKuaNg,,,,,,,,,,,
,,,,,,,,,,,,,,a,1,0.820185,space,0.038015,0,169,169,112,1,0_targ_1_dist_green/trial13.png,,,0,1,greenverival,a,28,27,Female,2021-02-26_08h51.11.760,exp11,2020.2.6,Win32,60,IwAR1sxqq8ylL-bjnWBHQxz-VtA0gx9jqv9oV6bl75TRXq6ZcboA5B7sKuaNg,,,,,,,,,,,
,,,,,,,,,,,,,,a,1,0.78321,space,0.051035,0,170,170,106,1,0_targ_1_dist_green/trial7.png,,,0,1,greenverival,a,28,27,Female,2021-02-26_08h51.11.760,exp11,2020.2.6,Win32,60,IwAR1sxqq8ylL-bjnWBHQxz-VtA0gx9jqv9oV6bl75TRXq6ZcboA5B7sKuaNg,,,,,,,,,,,
,,,,,,,,,,,,,,p,1,0.57744,space,0.1079,0,171,171,41,1,3_dist_green/trial17.png,,,1,3,greenverival,p,28,27,Female,2021-02-26_08h51.11.760,exp11,2020.2.6,Win32,60,IwAR1sxqq8ylL-bjnWBHQxz-VtA0gx9jqv9oV6bl75TRXq6ZcboA5B7sKuaNg,,,,,,,,,,,
,,,,,,,,,,,,,,a,1,0.661985,space,0.08372,0,172,172,159,1,0_targ_10_dist_green/trial10.png,,,0,10,greenverival,a,28,27,Female,2021-02-26_08h51.11.760,exp11,2020.2.6,Win32,60,IwAR1sxqq8ylL-bjnWBHQxz-VtA0gx9jqv9oV6bl75TRXq6ZcboA5B7sKuaNg,,,,,,,,,,,
,,,,,,,,,,,,,,a,1,0.688305,space,0.10465,0,173,173,174,1,0_targ_10_dist_green/trial25.png,,,0,10,greenverival,a,28,27,Female,2021-02-26_08h51.11.760,exp11,2020.2.6,Win32,60,IwAR1sxqq8ylL-bjnWBHQxz-VtA0gx9jqv9oV6bl75TRXq6ZcboA5B7sKuaNg,,,,,,,,,,,
,,,,,,,,,,,,,,a,1,0.592135,space,0.075285,0,174,174,153,1,0_targ_10_dist_green/trial4.png,,,0,10,greenverival,a,28,27,Female,2021-02-26_08h51.11.760,exp11,2020.2.6,Win32,60,IwAR1sxqq8ylL-bjnWBHQxz-VtA0gx9jqv9oV6bl75TRXq6ZcboA5B7sKuaNg,,,,,,,,,,,
,,,,,,,,,,,,,,p,1,0.684595,space,0.086865,0,175,175,42,1,3_dist_green/trial18.png,,,1,3,greenverival,p,28,27,Female,2021-02-26_08h51.11.760,exp11,2020.2.6,Win32,60,IwAR1sxqq8ylL-bjnWBHQxz-VtA0gx9jqv9oV6bl75TRXq6ZcboA5B7sKuaNg,,,,,,,,,,,
,,,,,,,,,,,,,,a,1,0.709,space,0.077785,0,176,176,117,1,0_targ_1_dist_green/trial18.png,,,0,1,greenverival,a,28,27,Female,2021-02-26_08h51.11.760,exp11,2020.2.6,Win32,60,IwAR1sxqq8ylL-bjnWBHQxz-VtA0gx9jqv9oV6bl75TRXq6ZcboA5B7sKuaNg,,,,,,,,,,,
,,,,,,,,,,,,,,a,1,0.67693,space,0.11654,0,177,177,115,1,0_targ_1_dist_green/trial6.png,,,0,1,greenverival,a,28,27,Female,2021-02-26_08h51.11.760,exp11,2020.2.6,Win32,60,IwAR1sxqq8ylL-bjnWBHQxz-VtA0gx9jqv9oV6bl75TRXq6ZcboA5B7sKuaNg,,,,,,,,,,,
,,,,,,,,,,,,,,p,1,0.648055,space,0.051205,0,178,178,40,1,3_dist_green/trial16.png,,,1,3,greenverival,p,28,27,Female,2021-02-26_08h51.11.760,exp11,2020.2.6,Win32,60,IwAR1sxqq8ylL-bjnWBHQxz-VtA0gx9jqv9oV6bl75TRXq6ZcboA5B7sKuaNg,,,,,,,,,,,
,,,,,,,,,,,,,,p,1,0.70622,space,0.02842,0,179,179,86,1,15_dist_green/trial12.png,,,1,15,greenverival,p,28,27,Female,2021-02-26_08h51.11.760,exp11,2020.2.6,Win32,60,IwAR1sxqq8ylL-bjnWBHQxz-VtA0gx9jqv9oV6bl75TRXq6ZcboA5B7sKuaNg,,,,,,,,,,,
,,,,,,,,,,,,,,p,1,0.73359,space,0.08432,0,180,180,98,1,15_dist_green/trial24.png,,,1,15,greenverival,p,28,27,Female,2021-02-26_08h51.11.760,exp11,2020.2.6,Win32,60,IwAR1sxqq8ylL-bjnWBHQxz-VtA0gx9jqv9oV6bl75TRXq6ZcboA5B7sKuaNg,,,,,,,,,,,
,,,,,,,,,,,,,,a,1,0.582035,space,0.08428,0,181,181,125,1,0_targ_4_dist_green/trial1.png,,,0,4,greenverival,a,28,27,Female,2021-02-26_08h51.11.760,exp11,2020.2.6,Win32,60,IwAR1sxqq8ylL-bjnWBHQxz-VtA0gx9jqv9oV6bl75TRXq6ZcboA5B7sKuaNg,,,,,,,,,,,
,,,,,,,,,,,,,,a,1,0.653765,space,0.061565,0,182,182,109,1,0_targ_1_dist_green/trial10.png,,,0,1,greenverival,a,28,27,Female,2021-02-26_08h51.11.760,exp11,2020.2.6,Win32,60,IwAR1sxqq8ylL-bjnWBHQxz-VtA0gx9jqv9oV6bl75TRXq6ZcboA5B7sKuaNg,,,,,,,,,,,
,,,,,,,,,,,,,,p,1,0.56541,space,0.023985,0,183,183,74,1,9_dist_green/trial25.png,,,1,9,greenverival,p,28,27,Female,2021-02-26_08h51.11.760,exp11,2020.2.6,Win32,60,IwAR1sxqq8ylL-bjnWBHQxz-VtA0gx9jqv9oV6bl75TRXq6ZcboA5B7sKuaNg,,,,,,,,,,,
,,,,,,,,,,,,,,p,1,0.699085,space,0.02782,0,184,184,80,1,15_dist_green/trial6.png,,,1,15,greenverival,p,28,27,Female,2021-02-26_08h51.11.760,exp11,2020.2.6,Win32,60,IwAR1sxqq8ylL-bjnWBHQxz-VtA0gx9jqv9oV6bl75TRXq6ZcboA5B7sKuaNg,,,,,,,,,,,
,,,,,,,,,,,,,,a,1,0.650505,space,0.045785,0,185,185,175,1,0_targ_16_dist_green/trial1.png,,,0,16,greenverival,a,28,27,Female,2021-02-26_08h51.11.760,exp11,2020.2.6,Win32,60,IwAR1sxqq8ylL-bjnWBHQxz-VtA0gx9jqv9oV6bl75TRXq6ZcboA5B7sKuaNg,,,,,,,,,,,
,,,,,,,,,,,,,,a,1,0.881215,space,0.05394,0,186,186,114,1,0_targ_1_dist_green/trial15.png,,,0,1,greenverival,a,28,27,Female,2021-02-26_08h51.11.760,exp11,2020.2.6,Win32,60,IwAR1sxqq8ylL-bjnWBHQxz-VtA0gx9jqv9oV6bl75TRXq6ZcboA5B7sKuaNg,,,,,,,,,,,
,,,,,,,,,,,,,,p,1,0.601815,space,0.07528,0,187,187,14,1,0_dist_green/trial15.png,,,1,0,greenverival,p,28,27,Female,2021-02-26_08h51.11.760,exp11,2020.2.6,Win32,60,IwAR1sxqq8ylL-bjnWBHQxz-VtA0gx9jqv9oV6bl75TRXq6ZcboA5B7sKuaNg,,,,,,,,,,,
,,,,,,,,,,,,,,p,1,0.59228,space,0.00583,0,188,188,54,1,9_dist_green/trial5.png,,,1,9,greenverival,p,28,27,Female,2021-02-26_08h51.11.760,exp11,2020.2.6,Win32,60,IwAR1sxqq8ylL-bjnWBHQxz-VtA0gx9jqv9oV6bl75TRXq6ZcboA5B7sKuaNg,,,,,,,,,,,
,,,,,,,,,,,,,,p,1,0.60786,space,0.06315,0,189,189,63,1,9_dist_green/trial14.png,,,1,9,greenverival,p,28,27,Female,2021-02-26_08h51.11.760,exp11,2020.2.6,Win32,60,IwAR1sxqq8ylL-bjnWBHQxz-VtA0gx9jqv9oV6bl75TRXq6ZcboA5B7sKuaNg,,,,,,,,,,,
,,,,,,,,,,,,,,p,1,0.64665,space,0.49567,0,190,190,6,1,0_dist_green/trial7.png,,,1,0,greenverival,p,28,27,Female,2021-02-26_08h51.11.760,exp11,2020.2.6,Win32,60,IwAR1sxqq8ylL-bjnWBHQxz-VtA0gx9jqv9oV6bl75TRXq6ZcboA5B7sKuaNg,,,,,,,,,,,
,,,,,,,,,,,,,,a,1,1.299925,space,0.13399,0,191,191,177,1,0_targ_16_dist_green/trial3.png,,,0,16,greenverival,a,28,27,Female,2021-02-26_08h51.11.760,exp11,2020.2.6,Win32,60,IwAR1sxqq8ylL-bjnWBHQxz-VtA0gx9jqv9oV6bl75TRXq6ZcboA5B7sKuaNg,,,,,,,,,,,
,,,,,,,,,,,,,,p,1,0.563815,space,0.055615,0,192,192,31,1,3_dist_green/trial7.png,,,1,3,greenverival,p,28,27,Female,2021-02-26_08h51.11.760,exp11,2020.2.6,Win32,60,IwAR1sxqq8ylL-bjnWBHQxz-VtA0gx9jqv9oV6bl75TRXq6ZcboA5B7sKuaNg,,,,,,,,,,,
,,,,,,,,,,,,,,a,1,0.660635,space,0.102335,0,193,193,183,1,0_targ_16_dist_green/trial9.png,,,0,16,greenverival,a,28,27,Female,2021-02-26_08h51.11.760,exp11,2020.2.6,Win32,60,IwAR1sxqq8ylL-bjnWBHQxz-VtA0gx9jqv9oV6bl75TRXq6ZcboA5B7sKuaNg,,,,,,,,,,,
,,,,,,,,,,,,,,p,1,0.834105,space,0.1007,0,194,194,71,1,9_dist_green/trial22.png,,,1,9,greenverival,p,28,27,Female,2021-02-26_08h51.11.760,exp11,2020.2.6,Win32,60,IwAR1sxqq8ylL-bjnWBHQxz-VtA0gx9jqv9oV6bl75TRXq6ZcboA5B7sKuaNg,,,,,,,,,,,
,,,,,,,,,,,,,,p,1,0.61633,space,0.07508,0,195,195,77,1,15_dist_green/trial3.png,,,1,15,greenverival,p,28,27,Female,2021-02-26_08h51.11.760,exp11,2020.2.6,Win32,60,IwAR1sxqq8ylL-bjnWBHQxz-VtA0gx9jqv9oV6bl75TRXq6ZcboA5B7sKuaNg,,,,,,,,,,,
,,,,,,,,,,,,,,a,1,0.69,space,0.234515,0,196,196,190,1,0_targ_16_dist_green/trial16.png,,,0,16,greenverival,a,28,27,Female,2021-02-26_08h51.11.760,exp11,2020.2.6,Win32,60,IwAR1sxqq8ylL-bjnWBHQxz-VtA0gx9jqv9oV6bl75TRXq6ZcboA5B7sKuaNg,,,,,,,,,,,
,,,,,,,,,,,,,,a,1,0.690895,space,0.071475,0,197,197,127,1,0_targ_4_dist_green/trial3.png,,,0,4,greenverival,a,28,27,Female,2021-02-26_08h51.11.760,exp11,2020.2.6,Win32,60,IwAR1sxqq8ylL-bjnWBHQxz-VtA0gx9jqv9oV6bl75TRXq6ZcboA5B7sKuaNg,,,,,,,,,,,
,,,,,,,,,,,,,,a,1,0.619065,space,0.10086,0,198,198,141,1,0_targ_4_dist_green/trial17.png,,,0,4,greenverival,a,28,27,Female,2021-02-26_08h51.11.760,exp11,2020.2.6,Win32,60,IwAR1sxqq8ylL-bjnWBHQxz-VtA0gx9jqv9oV6bl75TRXq6ZcboA5B7sKuaNg,,,,,,,,,,,
,,,,,,,,,,,,,,p,1,0.747725,space,0.0886,0,199,199,46,1,3_dist_green/trial22.png,,,1,3,greenverival,p,28,27,Female,2021-02-26_08h51.11.760,exp11,2020.2.6,Win32,60,IwAR1sxqq8ylL-bjnWBHQxz-VtA0gx9jqv9oV6bl75TRXq6ZcboA5B7sKuaNg,,,,,,,,,,,
,,,,,,,,,,,,,,,,,,,,,,,,,,,,,,,28,27,Female,2021-02-26_08h51.11.760,exp11,2020.2.6,Win32,60,IwAR1sxqq8ylL-bjnWBHQxz-VtA0gx9jqv9oV6bl75TRXq6ZcboA5B7sKuaNg,0,0,0,0,1,conGreen.xlsx,green vertical,Look for green vertical bar (target) and indicate if it is present or absent in the array. If green vertical target is present press 'p' and if absent press 'a'. Press SPACE to start.,,,
,,,,,,,,,,space,5.107655,space,1.916505,a,1,1.236215,space,0.059115,0,0,0,183,1,0_targ_16_dist_red/trial9.png,,,0,16,redHorizontal,a,28,27,Female,2021-02-26_08h51.11.760,exp11,2020.2.6,Win32,60,IwAR1sxqq8ylL-bjnWBHQxz-VtA0gx9jqv9oV6bl75TRXq6ZcboA5B7sKuaNg,,,,,,,,,,,
,,,,,,,,,,,,,,a,1,0.52898,space,0.065135,0,1,1,171,1,0_targ_10_dist_red/trial22.png,,,0,10,redHorizontal,a,28,27,Female,2021-02-26_08h51.11.760,exp11,2020.2.6,Win32,60,IwAR1sxqq8ylL-bjnWBHQxz-VtA0gx9jqv9oV6bl75TRXq6ZcboA5B7sKuaNg,,,,,,,,,,,
,,,,,,,,,,,,,,a,0,0.58041,space,0.008305,0,2,2,69,1,9_dist_red/trial20.png,,,1,9,redHorizontal,p,28,27,Female,2021-02-26_08h51.11.760,exp11,2020.2.6,Win32,60,IwAR1sxqq8ylL-bjnWBHQxz-VtA0gx9jqv9oV6bl75TRXq6ZcboA5B7sKuaNg,,,,,,,,,,,
,,,,,,,,,,,,,,a,1,1.55045,space,0.146365,0,3,3,104,1,0_targ_1_dist_red/trial5.png,,,0,1,redHorizontal,a,28,27,Female,2021-02-26_08h51.11.760,exp11,2020.2.6,Win32,60,IwAR1sxqq8ylL-bjnWBHQxz-VtA0gx9jqv9oV6bl75TRXq6ZcboA5B7sKuaNg,,,,,,,,,,,
,,,,,,,,,,,,,,p,1,1.409805,space,0.596435,0,4,4,9,1,0_dist_red/trial10.png,,,1,0,redHorizontal,p,28,27,Female,2021-02-26_08h51.11.760,exp11,2020.2.6,Win32,60,IwAR1sxqq8ylL-bjnWBHQxz-VtA0gx9jqv9oV6bl75TRXq6ZcboA5B7sKuaNg,,,,,,,,,,,
,,,,,,,,,,,,,,p,1,0.512505,space,0.400525,0,5,5,8,1,0_dist_red/trial9.png,,,1,0,redHorizontal,p,28,27,Female,2021-02-26_08h51.11.760,exp11,2020.2.6,Win32,60,IwAR1sxqq8ylL-bjnWBHQxz-VtA0gx9jqv9oV6bl75TRXq6ZcboA5B7sKuaNg,,,,,,,,,,,
,,,,,,,,,,,,,,a,1,0.84011,space,0.11048,0,6,6,154,1,0_targ_10_dist_red/trial5.png,,,0,10,redHorizontal,a,28,27,Female,2021-02-26_08h51.11.760,exp11,2020.2.6,Win32,60,IwAR1sxqq8ylL-bjnWBHQxz-VtA0gx9jqv9oV6bl75TRXq6ZcboA5B7sKuaNg,,,,,,,,,,,
,,,,,,,,,,,,,,a,1,0.86114,space,0.15129,0,7,7,174,1,0_targ_10_dist_red/trial25.png,,,0,10,redHorizontal,a,28,27,Female,2021-02-26_08h51.11.760,exp11,2020.2.6,Win32,60,IwAR1sxqq8ylL-bjnWBHQxz-VtA0gx9jqv9oV6bl75TRXq6ZcboA5B7sKuaNg,,,,,,,,,,,
,,,,,,,,,,,,,,a,1,0.64501,space,0.101265,0,8,8,178,1,0_targ_16_dist_red/trial4.png,,,0,16,redHorizontal,a,28,27,Female,2021-02-26_08h51.11.760,exp11,2020.2.6,Win32,60,IwAR1sxqq8ylL-bjnWBHQxz-VtA0gx9jqv9oV6bl75TRXq6ZcboA5B7sKuaNg,,,,,,,,,,,
,,,,,,,,,,,,,,a,1,1.195175,space,0.17571,0,9,9,111,1,0_targ_1_dist_red/trial12.png,,,0,1,redHorizontal,a,28,27,Female,2021-02-26_08h51.11.760,exp11,2020.2.6,Win32,60,IwAR1sxqq8ylL-bjnWBHQxz-VtA0gx9jqv9oV6bl75TRXq6ZcboA5B7sKuaNg,,,,,,,,,,,
,,,,,,,,,,,,,,a,1,0.730965,space,0.15294,0,10,10,199,1,0_targ_16_dist_red/trial25.png,,,0,16,redHorizontal,a,28,27,Female,2021-02-26_08h51.11.760,exp11,2020.2.6,Win32,60,IwAR1sxqq8ylL-bjnWBHQxz-VtA0gx9jqv9oV6bl75TRXq6ZcboA5B7sKuaNg,,,,,,,,,,,
,,,,,,,,,,,,,,a,1,0.79896,space,0.20039,0,11,11,197,1,0_targ_16_dist_red/trial23.png,,,0,16,redHorizontal,a,28,27,Female,2021-02-26_08h51.11.760,exp11,2020.2.6,Win32,60,IwAR1sxqq8ylL-bjnWBHQxz-VtA0gx9jqv9oV6bl75TRXq6ZcboA5B7sKuaNg,,,,,,,,,,,
,,,,,,,,,,,,,,a,1,0.64255,space,0.115185,0,12,12,102,1,0_targ_1_dist_red/trial3.png,,,0,1,redHorizontal,a,28,27,Female,2021-02-26_08h51.11.760,exp11,2020.2.6,Win32,60,IwAR1sxqq8ylL-bjnWBHQxz-VtA0gx9jqv9oV6bl75TRXq6ZcboA5B7sKuaNg,,,,,,,,,,,
,,,,,,,,,,,,,,a,1,0.693525,space,0.111915,0,13,13,167,1,0_targ_10_dist_red/trial18.png,,,0,10,redHorizontal,a,28,27,Female,2021-02-26_08h51.11.760,exp11,2020.2.6,Win32,60,IwAR1sxqq8ylL-bjnWBHQxz-VtA0gx9jqv9oV6bl75TRXq6ZcboA5B7sKuaNg,,,,,,,,,,,
,,,,,,,,,,,,,,p,1,0.704805,space,0.16138,0,14,14,97,1,15_dist_red/trial23.png,,,1,15,redHorizontal,p,28,27,Female,2021-02-26_08h51.11.760,exp11,2020.2.6,Win32,60,IwAR1sxqq8ylL-bjnWBHQxz-VtA0gx9jqv9oV6bl75TRXq6ZcboA5B7sKuaNg,,,,,,,,,,,
,,,,,,,,,,,,,,p,1,0.625155,space,0.42275,0,15,15,96,1,15_dist_red/trial22.png,,,1,15,redHorizontal,p,28,27,Female,2021-02-26_08h51.11.760,exp11,2020.2.6,Win32,60,IwAR1sxqq8ylL-bjnWBHQxz-VtA0gx9jqv9oV6bl75TRXq6ZcboA5B7sKuaNg,,,,,,,,,,,
,,,,,,,,,,,,,,p,1,0.562015,space,0.04067,0,16,16,33,1,3_dist_red/trial9.png,,,1,3,redHorizontal,p,28,27,Female,2021-02-26_08h51.11.760,exp11,2020.2.6,Win32,60,IwAR1sxqq8ylL-bjnWBHQxz-VtA0gx9jqv9oV6bl75TRXq6ZcboA5B7sKuaNg,,,,,,,,,,,
,,,,,,,,,,,,,,p,1,0.50164,space,0.045095,0,17,17,22,1,0_dist_red/trial23.png,,,1,0,redHorizontal,p,28,27,Female,2021-02-26_08h51.11.760,exp11,2020.2.6,Win32,60,IwAR1sxqq8ylL-bjnWBHQxz-VtA0gx9jqv9oV6bl75TRXq6ZcboA5B7sKuaNg,,,,,,,,,,,
,,,,,,,,,,,,,,p,1,0.81273,space,0.073105,0,18,18,51,1,9_dist_red/trial2.png,,,1,9,redHorizontal,p,28,27,Female,2021-02-26_08h51.11.760,exp11,2020.2.6,Win32,60,IwAR1sxqq8ylL-bjnWBHQxz-VtA0gx9jqv9oV6bl75TRXq6ZcboA5B7sKuaNg,,,,,,,,,,,
,,,,,,,,,,,,,,a,1,1.21295,space,0.021495,0,19,19,193,1,0_targ_16_dist_red/trial19.png,,,0,16,redHorizontal,a,28,27,Female,2021-02-26_08h51.11.760,exp11,2020.2.6,Win32,60,IwAR1sxqq8ylL-bjnWBHQxz-VtA0gx9jqv9oV6bl75TRXq6ZcboA5B7sKuaNg,,,,,,,,,,,
,,,,,,,,,,,,,,a,1,0.712265,space,0.02334,0,20,20,179,1,0_targ_16_dist_red/trial5.png,,,0,16,redHorizontal,a,28,27,Female,2021-02-26_08h51.11.760,exp11,2020.2.6,Win32,60,IwAR1sxqq8ylL-bjnWBHQxz-VtA0gx9jqv9oV6bl75TRXq6ZcboA5B7sKuaNg,,,,,,,,,,,
,,,,,,,,,,,,,,p,1,0.600865,space,0.05083,0,21,21,12,1,0_dist_red/trial13.png,,,1,0,redHorizontal,p,28,27,Female,2021-02-26_08h51.11.760,exp11,2020.2.6,Win32,60,IwAR1sxqq8ylL-bjnWBHQxz-VtA0gx9jqv9oV6bl75TRXq6ZcboA5B7sKuaNg,,,,,,,,,,,
,,,,,,,,,,,,,,p,1,0.865655,space,0.07707,0,22,22,70,1,9_dist_red/trial21.png,,,1,9,redHorizontal,p,28,27,Female,2021-02-26_08h51.11.760,exp11,2020.2.6,Win32,60,IwAR1sxqq8ylL-bjnWBHQxz-VtA0gx9jqv9oV6bl75TRXq6ZcboA5B7sKuaNg,,,,,,,,,,,
,,,,,,,,,,,,,,a,1,0.703895,space,0.0508,0,23,23,195,1,0_targ_16_dist_red/trial21.png,,,0,16,redHorizontal,a,28,27,Female,2021-02-26_08h51.11.760,exp11,2020.2.6,Win32,60,IwAR1sxqq8ylL-bjnWBHQxz-VtA0gx9jqv9oV6bl75TRXq6ZcboA5B7sKuaNg,,,,,,,,,,,
,,,,,,,,,,,,,,a,1,0.75301,space,1.167585,0,24,24,115,1,0_targ_1_dist_red/trial6.png,,,0,1,redHorizontal,a,28,27,Female,2021-02-26_08h51.11.760,exp11,2020.2.6,Win32,60,IwAR1sxqq8ylL-bjnWBHQxz-VtA0gx9jqv9oV6bl75TRXq6ZcboA5B7sKuaNg,,,,,,,,,,,
,,,,,,,,,,,,,,a,1,0.764565,space,0.065365,0,25,25,148,1,0_targ_4_dist_red/trial24.png,,,0,4,redHorizontal,a,28,27,Female,2021-02-26_08h51.11.760,exp11,2020.2.6,Win32,60,IwAR1sxqq8ylL-bjnWBHQxz-VtA0gx9jqv9oV6bl75TRXq6ZcboA5B7sKuaNg,,,,,,,,,,,
,,,,,,,,,,,,,,a,1,0.739745,space,0.05103,0,26,26,126,1,0_targ_4_dist_red/trial2.png,,,0,4,redHorizontal,a,28,27,Female,2021-02-26_08h51.11.760,exp11,2020.2.6,Win32,60,IwAR1sxqq8ylL-bjnWBHQxz-VtA0gx9jqv9oV6bl75TRXq6ZcboA5B7sKuaNg,,,,,,,,,,,
,,,,,,,,,,,,,,a,1,0.677625,space,0.05852,0,27,27,147,1,0_targ_4_dist_red/trial23.png,,,0,4,redHorizontal,a,28,27,Female,2021-02-26_08h51.11.760,exp11,2020.2.6,Win32,60,IwAR1sxqq8ylL-bjnWBHQxz-VtA0gx9jqv9oV6bl75TRXq6ZcboA5B7sKuaNg,,,,,,,,,,,
,,,,,,,,,,,,,,p,1,0.90086,space,0.084135,0,28,28,29,1,3_dist_red/trial5.png,,,1,3,redHorizontal,p,28,27,Female,2021-02-26_08h51.11.760,exp11,2020.2.6,Win32,60,IwAR1sxqq8ylL-bjnWBHQxz-VtA0gx9jqv9oV6bl75TRXq6ZcboA5B7sKuaNg,,,,,,,,,,,
,,,,,,,,,,,,,,a,1,0.987555,space,0.0208,0,29,29,189,1,0_targ_16_dist_red/trial15.png,,,0,16,redHorizontal,a,28,27,Female,2021-02-26_08h51.11.760,exp11,2020.2.6,Win32,60,IwAR1sxqq8ylL-bjnWBHQxz-VtA0gx9jqv9oV6bl75TRXq6ZcboA5B7sKuaNg,,,,,,,,,,,
,,,,,,,,,,,,,,a,0,0.720225,space,1.444715,0,30,30,60,1,9_dist_red/trial11.png,,,1,9,redHorizontal,p,28,27,Female,2021-02-26_08h51.11.760,exp11,2020.2.6,Win32,60,IwAR1sxqq8ylL-bjnWBHQxz-VtA0gx9jqv9oV6bl75TRXq6ZcboA5B7sKuaNg,,,,,,,,,,,
,,,,,,,,,,,,,,a,1,1.040135,space,0.131775,0,31,31,151,1,0_targ_10_dist_red/trial2.png,,,0,10,redHorizontal,a,28,27,Female,2021-02-26_08h51.11.760,exp11,2020.2.6,Win32,60,IwAR1sxqq8ylL-bjnWBHQxz-VtA0gx9jqv9oV6bl75TRXq6ZcboA5B7sKuaNg,,,,,,,,,,,
,,,,,,,,,,,,,,p,1,0.632445,space,0.084195,0,32,32,98,1,15_dist_red/trial24.png,,,1,15,redHorizontal,p,28,27,Female,2021-02-26_08h51.11.760,exp11,2020.2.6,Win32,60,IwAR1sxqq8ylL-bjnWBHQxz-VtA0gx9jqv9oV6bl75TRXq6ZcboA5B7sKuaNg,,,,,,,,,,,
,,,,,,,,,,,,,,p,1,0.82998,space,0.093435,0,33,33,48,1,3_dist_red/trial24.png,,,1,3,redHorizontal,p,28,27,Female,2021-02-26_08h51.11.760,exp11,2020.2.6,Win32,60,IwAR1sxqq8ylL-bjnWBHQxz-VtA0gx9jqv9oV6bl75TRXq6ZcboA5B7sKuaNg,,,,,,,,,,,
,,,,,,,,,,,,,,a,1,0.638365,space,0.03487,0,34,34,127,1,0_targ_4_dist_red/trial3.png,,,0,4,redHorizontal,a,28,27,Female,2021-02-26_08h51.11.760,exp11,2020.2.6,Win32,60,IwAR1sxqq8ylL-bjnWBHQxz-VtA0gx9jqv9oV6bl75TRXq6ZcboA5B7sKuaNg,,,,,,,,,,,
,,,,,,,,,,,,,,a,0,0.71585,space,0.352475,0,35,35,79,1,15_dist_red/trial5.png,,,1,15,redHorizontal,p,28,27,Female,2021-02-26_08h51.11.760,exp11,2020.2.6,Win32,60,IwAR1sxqq8ylL-bjnWBHQxz-VtA0gx9jqv9oV6bl75TRXq6ZcboA5B7sKuaNg,,,,,,,,,,,
,,,,,,,,,,,,,,p,1,0.685115,space,0.06373,0,36,36,35,1,3_dist_red/trial11.png,,,1,3,redHorizontal,p,28,27,Female,2021-02-26_08h51.11.760,exp11,2020.2.6,Win32,60,IwAR1sxqq8ylL-bjnWBHQxz-VtA0gx9jqv9oV6bl75TRXq6ZcboA5B7sKuaNg,,,,,,,,,,,
,,,,,,,,,,,,,,p,1,0.54973,space,0.07058,0,37,37,14,1,0_dist_red/trial15.png,,,1,0,redHorizontal,p,28,27,Female,2021-02-26_08h51.11.760,exp11,2020.2.6,Win32,60,IwAR1sxqq8ylL-bjnWBHQxz-VtA0gx9jqv9oV6bl75TRXq6ZcboA5B7sKuaNg,,,,,,,,,,,
,,,,,,,,,,,,,,a,1,0.568975,space,0.067295,0,38,38,114,1,0_targ_1_dist_red/trial15.png,,,0,1,redHorizontal,a,28,27,Female,2021-02-26_08h51.11.760,exp11,2020.2.6,Win32,60,IwAR1sxqq8ylL-bjnWBHQxz-VtA0gx9jqv9oV6bl75TRXq6ZcboA5B7sKuaNg,,,,,,,,,,,
,,,,,,,,,,,,,,p,1,0.99882,space,0.05849,0,39,39,89,1,15_dist_red/trial15.png,,,1,15,redHorizontal,p,28,27,Female,2021-02-26_08h51.11.760,exp11,2020.2.6,Win32,60,IwAR1sxqq8ylL-bjnWBHQxz-VtA0gx9jqv9oV6bl75TRXq6ZcboA5B7sKuaNg,,,,,,,,,,,
,,,,,,,,,,,,,,a,1,0.940415,space,0.03689,0,40,40,180,1,0_targ_16_dist_red/trial6.png,,,0,16,redHorizontal,a,28,27,Female,2021-02-26_08h51.11.760,exp11,2020.2.6,Win32,60,IwAR1sxqq8ylL-bjnWBHQxz-VtA0gx9jqv9oV6bl75TRXq6ZcboA5B7sKuaNg,,,,,,,,,,,
,,,,,,,,,,,,,,a,1,0.71842,space,0.06162,0,41,41,198,1,0_targ_16_dist_red/trial24.png,,,0,16,redHorizontal,a,28,27,Female,2021-02-26_08h51.11.760,exp11,2020.2.6,Win32,60,IwAR1sxqq8ylL-bjnWBHQxz-VtA0gx9jqv9oV6bl75TRXq6ZcboA5B7sKuaNg,,,,,,,,,,,
,,,,,,,,,,,,,,a,1,0.83899,space,0.353165,0,42,42,191,1,0_targ_16_dist_red/trial17.png,,,0,16,redHorizontal,a,28,27,Female,2021-02-26_08h51.11.760,exp11,2020.2.6,Win32,60,IwAR1sxqq8ylL-bjnWBHQxz-VtA0gx9jqv9oV6bl75TRXq6ZcboA5B7sKuaNg,,,,,,,,,,,
,,,,,,,,,,,,,,p,1,0.61895,space,0.051425,0,43,43,65,1,9_dist_red/trial16.png,,,1,9,redHorizontal,p,28,27,Female,2021-02-26_08h51.11.760,exp11,2020.2.6,Win32,60,IwAR1sxqq8ylL-bjnWBHQxz-VtA0gx9jqv9oV6bl75TRXq6ZcboA5B7sKuaNg,,,,,,,,,,,
,,,,,,,,,,,,,,a,0,0.811265,space,0.884325,0,44,44,77,1,15_dist_red/trial3.png,,,1,15,redHorizontal,p,28,27,Female,2021-02-26_08h51.11.760,exp11,2020.2.6,Win32,60,IwAR1sxqq8ylL-bjnWBHQxz-VtA0gx9jqv9oV6bl75TRXq6ZcboA5B7sKuaNg,,,,,,,,,,,
,,,,,,,,,,,,,,p,1,0.65952,space,0.045965,0,45,45,85,1,15_dist_red/trial11.png,,,1,15,redHorizontal,p,28,27,Female,2021-02-26_08h51.11.760,exp11,2020.2.6,Win32,60,IwAR1sxqq8ylL-bjnWBHQxz-VtA0gx9jqv9oV6bl75TRXq6ZcboA5B7sKuaNg,,,,,,,,,,,
,,,,,,,,,,,,,,p,1,0.913995,space,0.06629,0,46,46,82,1,15_dist_red/trial8.png,,,1,15,redHorizontal,p,28,27,Female,2021-02-26_08h51.11.760,exp11,2020.2.6,Win32,60,IwAR1sxqq8ylL-bjnWBHQxz-VtA0gx9jqv9oV6bl75TRXq6ZcboA5B7sKuaNg,,,,,,,,,,,
,,,,,,,,,,,,,,a,1,0.804535,space,0.039845,0,47,47,165,1,0_targ_10_dist_red/trial16.png,,,0,10,redHorizontal,a,28,27,Female,2021-02-26_08h51.11.760,exp11,2020.2.6,Win32,60,IwAR1sxqq8ylL-bjnWBHQxz-VtA0gx9jqv9oV6bl75TRXq6ZcboA5B7sKuaNg,,,,,,,,,,,
,,,,,,,,,,,,,,a,1,0.822195,space,0.043345,0,48,48,108,1,0_targ_1_dist_red/trial9.png,,,0,1,redHorizontal,a,28,27,Female,2021-02-26_08h51.11.760,exp11,2020.2.6,Win32,60,IwAR1sxqq8ylL-bjnWBHQxz-VtA0gx9jqv9oV6bl75TRXq6ZcboA5B7sKuaNg,,,,,,,,,,,
,,,,,,,,,,,,,,p,1,0.7375,space,0.09002,0,49,49,6,1,0_dist_red/trial7.png,,,1,0,redHorizontal,p,28,27,Female,2021-02-26_08h51.11.760,exp11,2020.2.6,Win32,60,IwAR1sxqq8ylL-bjnWBHQxz-VtA0gx9jqv9oV6bl75TRXq6ZcboA5B7sKuaNg,,,,,,,,,,,
,,,,,,,,,,,,,,a,1,0.78281,space,0.05633,0,50,50,136,1,0_targ_4_dist_red/trial12.png,,,0,4,redHorizontal,a,28,27,Female,2021-02-26_08h51.11.760,exp11,2020.2.6,Win32,60,IwAR1sxqq8ylL-bjnWBHQxz-VtA0gx9jqv9oV6bl75TRXq6ZcboA5B7sKuaNg,,,,,,,,,,,
,,,,,,,,,,,,,,p,1,0.66399,space,0.04469,0,51,51,25,1,3_dist_red/trial1.png,,,1,3,redHorizontal,p,28,27,Female,2021-02-26_08h51.11.760,exp11,2020.2.6,Win32,60,IwAR1sxqq8ylL-bjnWBHQxz-VtA0gx9jqv9oV6bl75TRXq6ZcboA5B7sKuaNg,,,,,,,,,,,
,,,,,,,,,,,,,,p,1,1.16894,space,0.017675,0,52,52,93,1,15_dist_red/trial19.png,,,1,15,redHorizontal,p,28,27,Female,2021-02-26_08h51.11.760,exp11,2020.2.6,Win32,60,IwAR1sxqq8ylL-bjnWBHQxz-VtA0gx9jqv9oV6bl75TRXq6ZcboA5B7sKuaNg,,,,,,,,,,,
,,,,,,,,,,,,,,p,1,0.863925,space,0.739475,0,53,53,63,1,9_dist_red/trial14.png,,,1,9,redHorizontal,p,28,27,Female,2021-02-26_08h51.11.760,exp11,2020.2.6,Win32,60,IwAR1sxqq8ylL-bjnWBHQxz-VtA0gx9jqv9oV6bl75TRXq6ZcboA5B7sKuaNg,,,,,,,,,,,
,,,,,,,,,,,,,,a,1,0.81537,space,0.058865,0,54,54,175,1,0_targ_16_dist_red/trial1.png,,,0,16,redHorizontal,a,28,27,Female,2021-02-26_08h51.11.760,exp11,2020.2.6,Win32,60,IwAR1sxqq8ylL-bjnWBHQxz-VtA0gx9jqv9oV6bl75TRXq6ZcboA5B7sKuaNg,,,,,,,,,,,
,,,,,,,,,,,,,,a,1,0.795365,space,0.094885,0,55,55,135,1,0_targ_4_dist_red/trial11.png,,,0,4,redHorizontal,a,28,27,Female,2021-02-26_08h51.11.760,exp11,2020.2.6,Win32,60,IwAR1sxqq8ylL-bjnWBHQxz-VtA0gx9jqv9oV6bl75TRXq6ZcboA5B7sKuaNg,,,,,,,,,,,
,,,,,,,,,,,,,,a,1,0.89054,space,0.073955,0,56,56,181,1,0_targ_16_dist_red/trial7.png,,,0,16,redHorizontal,a,28,27,Female,2021-02-26_08h51.11.760,exp11,2020.2.6,Win32,60,IwAR1sxqq8ylL-bjnWBHQxz-VtA0gx9jqv9oV6bl75TRXq6ZcboA5B7sKuaNg,,,,,,,,,,,
,,,,,,,,,,,,,,p,1,0.666755,space,0.051015,0,57,57,75,1,15_dist_red/trial1.png,,,1,15,redHorizontal,p,28,27,Female,2021-02-26_08h51.11.760,exp11,2020.2.6,Win32,60,IwAR1sxqq8ylL-bjnWBHQxz-VtA0gx9jqv9oV6bl75TRXq6ZcboA5B7sKuaNg,,,,,,,,,,,
,,,,,,,,,,,,,,a,1,0.723705,space,0.345355,0,58,58,103,1,0_targ_1_dist_red/trial4.png,,,0,1,redHorizontal,a,28,27,Female,2021-02-26_08h51.11.760,exp11,2020.2.6,Win32,60,IwAR1sxqq8ylL-bjnWBHQxz-VtA0gx9jqv9oV6bl75TRXq6ZcboA5B7sKuaNg,,,,,,,,,,,
,,,,,,,,,,,,,,p,1,0.770135,space,0.734375,0,59,59,30,1,3_dist_red/trial6.png,,,1,3,redHorizontal,p,28,27,Female,2021-02-26_08h51.11.760,exp11,2020.2.6,Win32,60,IwAR1sxqq8ylL-bjnWBHQxz-VtA0gx9jqv9oV6bl75TRXq6ZcboA5B7sKuaNg,,,,,,,,,,,
,,,,,,,,,,,,,,p,1,0.660425,space,0.378735,0,60,60,57,1,9_dist_red/trial8.png,,,1,9,redHorizontal,p,28,27,Female,2021-02-26_08h51.11.760,exp11,2020.2.6,Win32,60,IwAR1sxqq8ylL-bjnWBHQxz-VtA0gx9jqv9oV6bl75TRXq6ZcboA5B7sKuaNg,,,,,,,,,,,
,,,,,,,,,,,,,,p,1,0.73692,space,0.250985,0,61,61,95,1,15_dist_red/trial21.png,,,1,15,redHorizontal,p,28,27,Female,2021-02-26_08h51.11.760,exp11,2020.2.6,Win32,60,IwAR1sxqq8ylL-bjnWBHQxz-VtA0gx9jqv9oV6bl75TRXq6ZcboA5B7sKuaNg,,,,,,,,,,,
,,,,,,,,,,,,,,a,0,1.467185,space,1.36018,0,62,62,44,1,3_dist_red/trial20.png,,,1,3,redHorizontal,p,28,27,Female,2021-02-26_08h51.11.760,exp11,2020.2.6,Win32,60,IwAR1sxqq8ylL-bjnWBHQxz-VtA0gx9jqv9oV6bl75TRXq6ZcboA5B7sKuaNg,,,,,,,,,,,
,,,,,,,,,,,,,,p,1,0.865875,space,0.380915,0,63,63,0,1,0_dist_red/trial1.png,,,1,0,redHorizontal,p,28,27,Female,2021-02-26_08h51.11.760,exp11,2020.2.6,Win32,60,IwAR1sxqq8ylL-bjnWBHQxz-VtA0gx9jqv9oV6bl75TRXq6ZcboA5B7sKuaNg,,,,,,,,,,,
,,,,,,,,,,,,,,p,1,0.520955,space,0.30481,0,64,64,26,1,3_dist_red/trial2.png,,,1,3,redHorizontal,p,28,27,Female,2021-02-26_08h51.11.760,exp11,2020.2.6,Win32,60,IwAR1sxqq8ylL-bjnWBHQxz-VtA0gx9jqv9oV6bl75TRXq6ZcboA5B7sKuaNg,,,,,,,,,,,
,,,,,,,,,,,,,,a,1,0.896425,space,0.134625,0,65,65,177,1,0_targ_16_dist_red/trial3.png,,,0,16,redHorizontal,a,28,27,Female,2021-02-26_08h51.11.760,exp11,2020.2.6,Win32,60,IwAR1sxqq8ylL-bjnWBHQxz-VtA0gx9jqv9oV6bl75TRXq6ZcboA5B7sKuaNg,,,,,,,,,,,
,,,,,,,,,,,,,,a,1,1.54555,space,0.16754,0,66,66,192,1,0_targ_16_dist_red/trial18.png,,,0,16,redHorizontal,a,28,27,Female,2021-02-26_08h51.11.760,exp11,2020.2.6,Win32,60,IwAR1sxqq8ylL-bjnWBHQxz-VtA0gx9jqv9oV6bl75TRXq6ZcboA5B7sKuaNg,,,,,,,,,,,
,,,,,,,,,,,,,,a,1,0.631275,space,0.13115,0,67,67,119,1,0_targ_1_dist_red/trial20.png,,,0,1,redHorizontal,a,28,27,Female,2021-02-26_08h51.11.760,exp11,2020.2.6,Win32,60,IwAR1sxqq8ylL-bjnWBHQxz-VtA0gx9jqv9oV6bl75TRXq6ZcboA5B7sKuaNg,,,,,,,,,,,
,,,,,,,,,,,,,,p,1,0.791745,space,0.433925,0,68,68,80,1,15_dist_red/trial6.png,,,1,15,redHorizontal,p,28,27,Female,2021-02-26_08h51.11.760,exp11,2020.2.6,Win32,60,IwAR1sxqq8ylL-bjnWBHQxz-VtA0gx9jqv9oV6bl75TRXq6ZcboA5B7sKuaNg,,,,,,,,,,,
,,,,,,,,,,,,,,p,1,0.603465,space,0.287595,0,69,69,47,1,3_dist_red/trial23.png,,,1,3,redHorizontal,p,28,27,Female,2021-02-26_08h51.11.760,exp11,2020.2.6,Win32,60,IwAR1sxqq8ylL-bjnWBHQxz-VtA0gx9jqv9oV6bl75TRXq6ZcboA5B7sKuaNg,,,,,,,,,,,
,,,,,,,,,,,,,,p,1,0.49837,space,0.317445,0,70,70,5,1,0_dist_red/trial6.png,,,1,0,redHorizontal,p,28,27,Female,2021-02-26_08h51.11.760,exp11,2020.2.6,Win32,60,IwAR1sxqq8ylL-bjnWBHQxz-VtA0gx9jqv9oV6bl75TRXq6ZcboA5B7sKuaNg,,,,,,,,,,,
,,,,,,,,,,,,,,p,1,0.54122,space,0.30931,0,71,71,50,1,9_dist_red/trial1.png,,,1,9,redHorizontal,p,28,27,Female,2021-02-26_08h51.11.760,exp11,2020.2.6,Win32,60,IwAR1sxqq8ylL-bjnWBHQxz-VtA0gx9jqv9oV6bl75TRXq6ZcboA5B7sKuaNg,,,,,,,,,,,
,,,,,,,,,,,,,,a,1,0.88526,space,0.19838,0,72,72,152,1,0_targ_10_dist_red/trial3.png,,,0,10,redHorizontal,a,28,27,Female,2021-02-26_08h51.11.760,exp11,2020.2.6,Win32,60,IwAR1sxqq8ylL-bjnWBHQxz-VtA0gx9jqv9oV6bl75TRXq6ZcboA5B7sKuaNg,,,,,,,,,,,
,,,,,,,,,,,,,,a,1,0.66894,space,0.284875,0,73,73,101,1,0_targ_1_dist_red/trial2.png,,,0,1,redHorizontal,a,28,27,Female,2021-02-26_08h51.11.760,exp11,2020.2.6,Win32,60,IwAR1sxqq8ylL-bjnWBHQxz-VtA0gx9jqv9oV6bl75TRXq6ZcboA5B7sKuaNg,,,,,,,,,,,
,,,,,,,,,,,,,,p,1,0.50405,space,0.73433,0,74,74,67,1,9_dist_red/trial18.png,,,1,9,redHorizontal,p,28,27,Female,2021-02-26_08h51.11.760,exp11,2020.2.6,Win32,60,IwAR1sxqq8ylL-bjnWBHQxz-VtA0gx9jqv9oV6bl75TRXq6ZcboA5B7sKuaNg,,,,,,,,,,,
,,,,,,,,,,,,,,p,1,0.758045,space,0.420905,0,75,75,1,1,0_dist_red/trial2.png,,,1,0,redHorizontal,p,28,27,Female,2021-02-26_08h51.11.760,exp11,2020.2.6,Win32,60,IwAR1sxqq8ylL-bjnWBHQxz-VtA0gx9jqv9oV6bl75TRXq6ZcboA5B7sKuaNg,,,,,,,,,,,
,,,,,,,,,,,,,,a,1,0.642705,space,0.201985,0,76,76,141,1,0_targ_4_dist_red/trial17.png,,,0,4,redHorizontal,a,28,27,Female,2021-02-26_08h51.11.760,exp11,2020.2.6,Win32,60,IwAR1sxqq8ylL-bjnWBHQxz-VtA0gx9jqv9oV6bl75TRXq6ZcboA5B7sKuaNg,,,,,,,,,,,
,,,,,,,,,,,,,,a,1,1.03154,space,0.16025,0,77,77,100,1,0_targ_1_dist_red/trial1.png,,,0,1,redHorizontal,a,28,27,Female,2021-02-26_08h51.11.760,exp11,2020.2.6,Win32,60,IwAR1sxqq8ylL-bjnWBHQxz-VtA0gx9jqv9oV6bl75TRXq6ZcboA5B7sKuaNg,,,,,,,,,,,
,,,,,,,,,,,,,,p,1,0.651395,space,0.339085,0,78,78,13,1,0_dist_red/trial14.png,,,1,0,redHorizontal,p,28,27,Female,2021-02-26_08h51.11.760,exp11,2020.2.6,Win32,60,IwAR1sxqq8ylL-bjnWBHQxz-VtA0gx9jqv9oV6bl75TRXq6ZcboA5B7sKuaNg,,,,,,,,,,,
,,,,,,,,,,,,,,a,1,0.73653,space,0.207305,0,79,79,139,1,0_targ_4_dist_red/trial15.png,,,0,4,redHorizontal,a,28,27,Female,2021-02-26_08h51.11.760,exp11,2020.2.6,Win32,60,IwAR1sxqq8ylL-bjnWBHQxz-VtA0gx9jqv9oV6bl75TRXq6ZcboA5B7sKuaNg,,,,,,,,,,,
,,,,,,,,,,,,,,a,1,1.70498,space,0.17532,0,80,80,105,1,0_targ_1_dist_red/trial6.png,,,0,1,redHorizontal,a,28,27,Female,2021-02-26_08h51.11.760,exp11,2020.2.6,Win32,60,IwAR1sxqq8ylL-bjnWBHQxz-VtA0gx9jqv9oV6bl75TRXq6ZcboA5B7sKuaNg,,,,,,,,,,,
,,,,,,,,,,,,,,p,1,0.451775,space,0.18928,0,81,81,42,1,3_dist_red/trial18.png,,,1,3,redHorizontal,p,28,27,Female,2021-02-26_08h51.11.760,exp11,2020.2.6,Win32,60,IwAR1sxqq8ylL-bjnWBHQxz-VtA0gx9jqv9oV6bl75TRXq6ZcboA5B7sKuaNg,,,,,,,,,,,
,,,,,,,,,,,,,,a,1,0.81705,space,0.40182,0,82,82,116,1,0_targ_1_dist_red/trial17.png,,,0,1,redHorizontal,a,28,27,Female,2021-02-26_08h51.11.760,exp11,2020.2.6,Win32,60,IwAR1sxqq8ylL-bjnWBHQxz-VtA0gx9jqv9oV6bl75TRXq6ZcboA5B7sKuaNg,,,,,,,,,,,
,,,,,,,,,,,,,,a,1,0.68451,space,0.15885,0,83,83,130,1,0_targ_4_dist_red/trial6.png,,,0,4,redHorizontal,a,28,27,Female,2021-02-26_08h51.11.760,exp11,2020.2.6,Win32,60,IwAR1sxqq8ylL-bjnWBHQxz-VtA0gx9jqv9oV6bl75TRXq6ZcboA5B7sKuaNg,,,,,,,,,,,
,,,,,,,,,,,,,,p,1,0.62609,space,0.16731,0,84,84,37,1,3_dist_red/trial13.png,,,1,3,redHorizontal,p,28,27,Female,2021-02-26_08h51.11.760,exp11,2020.2.6,Win32,60,IwAR1sxqq8ylL-bjnWBHQxz-VtA0gx9jqv9oV6bl75TRXq6ZcboA5B7sKuaNg,,,,,,,,,,,
,,,,,,,,,,,,,,a,1,0.63282,space,0.13642,0,85,85,142,1,0_targ_4_dist_red/trial18.png,,,0,4,redHorizontal,a,28,27,Female,2021-02-26_08h51.11.760,exp11,2020.2.6,Win32,60,IwAR1sxqq8ylL-bjnWBHQxz-VtA0gx9jqv9oV6bl75TRXq6ZcboA5B7sKuaNg,,,,,,,,,,,
,,,,,,,,,,,,,,p,1,0.74219,space,0.18561,0,86,86,55,1,9_dist_red/trial6.png,,,1,9,redHorizontal,p,28,27,Female,2021-02-26_08h51.11.760,exp11,2020.2.6,Win32,60,IwAR1sxqq8ylL-bjnWBHQxz-VtA0gx9jqv9oV6bl75TRXq6ZcboA5B7sKuaNg,,,,,,,,,,,
,,,,,,,,,,,,,,p,1,0.495635,space,0.168875,0,87,87,56,1,9_dist_red/trial7.png,,,1,9,redHorizontal,p,28,27,Female,2021-02-26_08h51.11.760,exp11,2020.2.6,Win32,60,IwAR1sxqq8ylL-bjnWBHQxz-VtA0gx9jqv9oV6bl75TRXq6ZcboA5B7sKuaNg,,,,,,,,,,,
,,,,,,,,,,,,,,a,1,0.620005,space,0.28634,0,88,88,172,1,0_targ_10_dist_red/trial23.png,,,0,10,redHorizontal,a,28,27,Female,2021-02-26_08h51.11.760,exp11,2020.2.6,Win32,60,IwAR1sxqq8ylL-bjnWBHQxz-VtA0gx9jqv9oV6bl75TRXq6ZcboA5B7sKuaNg,,,,,,,,,,,
,,,,,,,,,,,,,,a,1,0.866475,space,0.220165,0,89,89,122,1,0_targ_1_dist_red/trial23.png,,,0,1,redHorizontal,a,28,27,Female,2021-02-26_08h51.11.760,exp11,2020.2.6,Win32,60,IwAR1sxqq8ylL-bjnWBHQxz-VtA0gx9jqv9oV6bl75TRXq6ZcboA5B7sKuaNg,,,,,,,,,,,
,,,,,,,,,,,,,,a,1,0.85527,space,0.12664,0,90,90,140,1,0_targ_4_dist_red/trial6.png,,,0,4,redHorizontal,a,28,27,Female,2021-02-26_08h51.11.760,exp11,2020.2.6,Win32,60,IwAR1sxqq8ylL-bjnWBHQxz-VtA0gx9jqv9oV6bl75TRXq6ZcboA5B7sKuaNg,,,,,,,,,,,
,,,,,,,,,,,,,,p,1,0.532245,space,0.15182,0,91,91,52,1,9_dist_red/trial3.png,,,1,9,redHorizontal,p,28,27,Female,2021-02-26_08h51.11.760,exp11,2020.2.6,Win32,60,IwAR1sxqq8ylL-bjnWBHQxz-VtA0gx9jqv9oV6bl75TRXq6ZcboA5B7sKuaNg,,,,,,,,,,,
,,,,,,,,,,,,,,a,1,0.58022,space,0.099495,0,92,92,131,1,0_targ_4_dist_red/trial7.png,,,0,4,redHorizontal,a,28,27,Female,2021-02-26_08h51.11.760,exp11,2020.2.6,Win32,60,IwAR1sxqq8ylL-bjnWBHQxz-VtA0gx9jqv9oV6bl75TRXq6ZcboA5B7sKuaNg,,,,,,,,,,,
,,,,,,,,,,,,,,p,1,0.44704,space,0.350295,0,93,93,62,1,9_dist_red/trial13.png,,,1,9,redHorizontal,p,28,27,Female,2021-02-26_08h51.11.760,exp11,2020.2.6,Win32,60,IwAR1sxqq8ylL-bjnWBHQxz-VtA0gx9jqv9oV6bl75TRXq6ZcboA5B7sKuaNg,,,,,,,,,,,
,,,,,,,,,,,,,,p,1,0.724665,space,0.12909,0,94,94,41,1,3_dist_red/trial17.png,,,1,3,redHorizontal,p,28,27,Female,2021-02-26_08h51.11.760,exp11,2020.2.6,Win32,60,IwAR1sxqq8ylL-bjnWBHQxz-VtA0gx9jqv9oV6bl75TRXq6ZcboA5B7sKuaNg,,,,,,,,,,,
,,,,,,,,,,,,,,p,1,0.446565,space,0.125755,0,95,95,16,1,0_dist_red/trial17.png,,,1,0,redHorizontal,p,28,27,Female,2021-02-26_08h51.11.760,exp11,2020.2.6,Win32,60,IwAR1sxqq8ylL-bjnWBHQxz-VtA0gx9jqv9oV6bl75TRXq6ZcboA5B7sKuaNg,,,,,,,,,,,
,,,,,,,,,,,,,,a,1,0.51283,space,0.130165,0,96,96,145,1,0_targ_4_dist_red/trial21.png,,,0,4,redHorizontal,a,28,27,Female,2021-02-26_08h51.11.760,exp11,2020.2.6,Win32,60,IwAR1sxqq8ylL-bjnWBHQxz-VtA0gx9jqv9oV6bl75TRXq6ZcboA5B7sKuaNg,,,,,,,,,,,
,,,,,,,,,,,,,,p,1,0.61482,space,0.11061,0,97,97,19,1,0_dist_red/trial20.png,,,1,0,redHorizontal,p,28,27,Female,2021-02-26_08h51.11.760,exp11,2020.2.6,Win32,60,IwAR1sxqq8ylL-bjnWBHQxz-VtA0gx9jqv9oV6bl75TRXq6ZcboA5B7sKuaNg,,,,,,,,,,,
,,,,,,,,,,,,,,a,1,0.77135,space,0.11033,0,98,98,106,1,0_targ_1_dist_red/trial7.png,,,0,1,redHorizontal,a,28,27,Female,2021-02-26_08h51.11.760,exp11,2020.2.6,Win32,60,IwAR1sxqq8ylL-bjnWBHQxz-VtA0gx9jqv9oV6bl75TRXq6ZcboA5B7sKuaNg,,,,,,,,,,,
,,,,,,,,,,,,,,p,1,0.72666,space,0.03467,0,99,99,81,1,15_dist_red/trial7.png,,,1,15,redHorizontal,p,28,27,Female,2021-02-26_08h51.11.760,exp11,2020.2.6,Win32,60,IwAR1sxqq8ylL-bjnWBHQxz-VtA0gx9jqv9oV6bl75TRXq6ZcboA5B7sKuaNg,,,,,,,,,,,
,,,,,,,,,,,,,,a,1,0.877015,space,0.13835,0,100,100,156,1,0_targ_10_dist_red/trial7.png,,,0,10,redHorizontal,a,28,27,Female,2021-02-26_08h51.11.760,exp11,2020.2.6,Win32,60,IwAR1sxqq8ylL-bjnWBHQxz-VtA0gx9jqv9oV6bl75TRXq6ZcboA5B7sKuaNg,,,,,,,,,,,
,,,,,,,,,,,,,,a,1,1.17654,space,0.034085,0,101,101,186,1,0_targ_16_dist_red/trial12.png,,,0,16,redHorizontal,a,28,27,Female,2021-02-26_08h51.11.760,exp11,2020.2.6,Win32,60,IwAR1sxqq8ylL-bjnWBHQxz-VtA0gx9jqv9oV6bl75TRXq6ZcboA5B7sKuaNg,,,,,,,,,,,
,,,,,,,,,,,,,,p,1,0.602615,space,0.108275,0,102,102,61,1,9_dist_red/trial12.png,,,1,9,redHorizontal,p,28,27,Female,2021-02-26_08h51.11.760,exp11,2020.2.6,Win32,60,IwAR1sxqq8ylL-bjnWBHQxz-VtA0gx9jqv9oV6bl75TRXq6ZcboA5B7sKuaNg,,,,,,,,,,,
,,,,,,,,,,,,,,p,1,0.56688,space,0.14872,0,103,103,3,1,0_dist_red/trial4.png,,,1,0,redHorizontal,p,28,27,Female,2021-02-26_08h51.11.760,exp11,2020.2.6,Win32,60,IwAR1sxqq8ylL-bjnWBHQxz-VtA0gx9jqv9oV6bl75TRXq6ZcboA5B7sKuaNg,,,,,,,,,,,
,,,,,,,,,,,,,,a,1,0.571565,space,0.036265,0,104,104,153,1,0_targ_10_dist_red/trial4.png,,,0,10,redHorizontal,a,28,27,Female,2021-02-26_08h51.11.760,exp11,2020.2.6,Win32,60,IwAR1sxqq8ylL-bjnWBHQxz-VtA0gx9jqv9oV6bl75TRXq6ZcboA5B7sKuaNg,,,,,,,,,,,
,,,,,,,,,,,,,,a,1,1.210535,space,0.08498,0,105,105,182,1,0_targ_16_dist_red/trial8.png,,,0,16,redHorizontal,a,28,27,Female,2021-02-26_08h51.11.760,exp11,2020.2.6,Win32,60,IwAR1sxqq8ylL-bjnWBHQxz-VtA0gx9jqv9oV6bl75TRXq6ZcboA5B7sKuaNg,,,,,,,,,,,
,,,,,,,,,,,,,,a,1,0.708225,space,0.340125,0,106,106,137,1,0_targ_4_dist_red/trial13.png,,,0,4,redHorizontal,a,28,27,Female,2021-02-26_08h51.11.760,exp11,2020.2.6,Win32,60,IwAR1sxqq8ylL-bjnWBHQxz-VtA0gx9jqv9oV6bl75TRXq6ZcboA5B7sKuaNg,,,,,,,,,,,
,,,,,,,,,,,,,,p,1,0.55095,space,0.071025,0,107,107,38,1,3_dist_red/trial14.png,,,1,3,redHorizontal,p,28,27,Female,2021-02-26_08h51.11.760,exp11,2020.2.6,Win32,60,IwAR1sxqq8ylL-bjnWBHQxz-VtA0gx9jqv9oV6bl75TRXq6ZcboA5B7sKuaNg,,,,,,,,,,,
,,,,,,,,,,,,,,a,1,0.66049,space,0.08443,0,108,108,158,1,0_targ_10_dist_red/trial9.png,,,0,10,redHorizontal,a,28,27,Female,2021-02-26_08h51.11.760,exp11,2020.2.6,Win32,60,IwAR1sxqq8ylL-bjnWBHQxz-VtA0gx9jqv9oV6bl75TRXq6ZcboA5B7sKuaNg,,,,,,,,,,,
,,,,,,,,,,,,,,p,1,0.63476,space,0.117795,0,109,109,45,1,3_dist_red/trial21.png,,,1,3,redHorizontal,p,28,27,Female,2021-02-26_08h51.11.760,exp11,2020.2.6,Win32,60,IwAR1sxqq8ylL-bjnWBHQxz-VtA0gx9jqv9oV6bl75TRXq6ZcboA5B7sKuaNg,,,,,,,,,,,
,,,,,,,,,,,,,,a,0,0.638635,space,1.094345,0,110,110,91,1,15_dist_red/trial17.png,,,1,15,redHorizontal,p,28,27,Female,2021-02-26_08h51.11.760,exp11,2020.2.6,Win32,60,IwAR1sxqq8ylL-bjnWBHQxz-VtA0gx9jqv9oV6bl75TRXq6ZcboA5B7sKuaNg,,,,,,,,,,,
,,,,,,,,,,,,,,p,1,0.584395,space,0.086925,0,111,111,21,1,0_dist_red/trial22.png,,,1,0,redHorizontal,p,28,27,Female,2021-02-26_08h51.11.760,exp11,2020.2.6,Win32,60,IwAR1sxqq8ylL-bjnWBHQxz-VtA0gx9jqv9oV6bl75TRXq6ZcboA5B7sKuaNg,,,,,,,,,,,
,,,,,,,,,,,,,,p,1,0.81855,space,0.11925,0,112,112,99,1,15_dist_red/trial25.png,,,1,15,redHorizontal,p,28,27,Female,2021-02-26_08h51.11.760,exp11,2020.2.6,Win32,60,IwAR1sxqq8ylL-bjnWBHQxz-VtA0gx9jqv9oV6bl75TRXq6ZcboA5B7sKuaNg,,,,,,,,,,,
,,,,,,,,,,,,,,p,1,0.985035,space,0.07571,0,113,113,88,1,15_dist_red/trial14.png,,,1,15,redHorizontal,p,28,27,Female,2021-02-26_08h51.11.760,exp11,2020.2.6,Win32,60,IwAR1sxqq8ylL-bjnWBHQxz-VtA0gx9jqv9oV6bl75TRXq6ZcboA5B7sKuaNg,,,,,,,,,,,
,,,,,,,,,,,,,,p,1,0.57028,space,0.14104,0,114,114,20,1,0_dist_red/trial21.png,,,1,0,redHorizontal,p,28,27,Female,2021-02-26_08h51.11.760,exp11,2020.2.6,Win32,60,IwAR1sxqq8ylL-bjnWBHQxz-VtA0gx9jqv9oV6bl75TRXq6ZcboA5B7sKuaNg,,,,,,,,,,,
,,,,,,,,,,,,,,a,1,0.955995,space,0.070295,0,115,115,169,1,0_targ_10_dist_red/trial20.png,,,0,10,redHorizontal,a,28,27,Female,2021-02-26_08h51.11.760,exp11,2020.2.6,Win32,60,IwAR1sxqq8ylL-bjnWBHQxz-VtA0gx9jqv9oV6bl75TRXq6ZcboA5B7sKuaNg,,,,,,,,,,,
,,,,,,,,,,,,,,p,1,0.697455,space,0.125685,0,116,116,4,1,0_dist_red/trial5.png,,,1,0,redHorizontal,p,28,27,Female,2021-02-26_08h51.11.760,exp11,2020.2.6,Win32,60,IwAR1sxqq8ylL-bjnWBHQxz-VtA0gx9jqv9oV6bl75TRXq6ZcboA5B7sKuaNg,,,,,,,,,,,
,,,,,,,,,,,,,,p,1,0.451455,space,0.141845,0,117,117,7,1,0_dist_red/trial8.png,,,1,0,redHorizontal,p,28,27,Female,2021-02-26_08h51.11.760,exp11,2020.2.6,Win32,60,IwAR1sxqq8ylL-bjnWBHQxz-VtA0gx9jqv9oV6bl75TRXq6ZcboA5B7sKuaNg,,,,,,,,,,,
,,,,,,,,,,,,,,a,1,0.82922,space,0.05025,0,118,118,160,1,0_targ_10_dist_red/trial11.png,,,0,10,redHorizontal,a,28,27,Female,2021-02-26_08h51.11.760,exp11,2020.2.6,Win32,60,IwAR1sxqq8ylL-bjnWBHQxz-VtA0gx9jqv9oV6bl75TRXq6ZcboA5B7sKuaNg,,,,,,,,,,,
,,,,,,,,,,,,,,a,1,0.75427,space,0.29163,0,119,119,150,1,0_targ_10_dist_red/trial1.png,,,0,10,redHorizontal,a,28,27,Female,2021-02-26_08h51.11.760,exp11,2020.2.6,Win32,60,IwAR1sxqq8ylL-bjnWBHQxz-VtA0gx9jqv9oV6bl75TRXq6ZcboA5B7sKuaNg,,,,,,,,,,,
,,,,,,,,,,,,,,a,1,0.57225,space,0.09067,0,120,120,133,1,0_targ_4_dist_red/trial9.png,,,0,4,redHorizontal,a,28,27,Female,2021-02-26_08h51.11.760,exp11,2020.2.6,Win32,60,IwAR1sxqq8ylL-bjnWBHQxz-VtA0gx9jqv9oV6bl75TRXq6ZcboA5B7sKuaNg,,,,,,,,,,,
,,,,,,,,,,,,,,p,1,0.520615,space,0.10111,0,121,121,87,1,15_dist_red/trial13.png,,,1,15,redHorizontal,p,28,27,Female,2021-02-26_08h51.11.760,exp11,2020.2.6,Win32,60,IwAR1sxqq8ylL-bjnWBHQxz-VtA0gx9jqv9oV6bl75TRXq6ZcboA5B7sKuaNg,,,,,,,,,,,
,,,,,,,,,,,,,,p,1,0.64242,space,0.130025,0,122,122,10,1,0_dist_red/trial11.png,,,1,0,redHorizontal,p,28,27,Female,2021-02-26_08h51.11.760,exp11,2020.2.6,Win32,60,IwAR1sxqq8ylL-bjnWBHQxz-VtA0gx9jqv9oV6bl75TRXq6ZcboA5B7sKuaNg,,,,,,,,,,,
,,,,,,,,,,,,,,a,1,0.76297,space,0.156415,0,123,123,107,1,0_targ_1_dist_red/trial8.png,,,0,1,redHorizontal,a,28,27,Female,2021-02-26_08h51.11.760,exp11,2020.2.6,Win32,60,IwAR1sxqq8ylL-bjnWBHQxz-VtA0gx9jqv9oV6bl75TRXq6ZcboA5B7sKuaNg,,,,,,,,,,,
,,,,,,,,,,,,,,p,1,0.59497,space,0.01829,0,124,124,11,1,0_dist_red/trial12.png,,,1,0,redHorizontal,p,28,27,Female,2021-02-26_08h51.11.760,exp11,2020.2.6,Win32,60,IwAR1sxqq8ylL-bjnWBHQxz-VtA0gx9jqv9oV6bl75TRXq6ZcboA5B7sKuaNg,,,,,,,,,,,
,,,,,,,,,,,,,,p,1,0.94323,space,0.11761,0,125,125,2,1,0_dist_red/trial3.png,,,1,0,redHorizontal,p,28,27,Female,2021-02-26_08h51.11.760,exp11,2020.2.6,Win32,60,IwAR1sxqq8ylL-bjnWBHQxz-VtA0gx9jqv9oV6bl75TRXq6ZcboA5B7sKuaNg,,,,,,,,,,,
,,,,,,,,,,,,,,a,1,0.690915,space,0.0218,0,126,126,146,1,0_targ_4_dist_red/trial22.png,,,0,4,redHorizontal,a,28,27,Female,2021-02-26_08h51.11.760,exp11,2020.2.6,Win32,60,IwAR1sxqq8ylL-bjnWBHQxz-VtA0gx9jqv9oV6bl75TRXq6ZcboA5B7sKuaNg,,,,,,,,,,,
,,,,,,,,,,,,,,a,1,0.870365,space,0.076865,0,127,127,161,1,0_targ_10_dist_red/trial12.png,,,0,10,redHorizontal,a,28,27,Female,2021-02-26_08h51.11.760,exp11,2020.2.6,Win32,60,IwAR1sxqq8ylL-bjnWBHQxz-VtA0gx9jqv9oV6bl75TRXq6ZcboA5B7sKuaNg,,,,,,,,,,,
,,,,,,,,,,,,,,a,1,0.72997,space,0.065435,0,128,128,170,1,0_targ_10_dist_red/trial21.png,,,0,10,redHorizontal,a,28,27,Female,2021-02-26_08h51.11.760,exp11,2020.2.6,Win32,60,IwAR1sxqq8ylL-bjnWBHQxz-VtA0gx9jqv9oV6bl75TRXq6ZcboA5B7sKuaNg,,,,,,,,,,,
,,,,,,,,,,,,,,p,1,0.608475,space,0.0679,0,129,129,28,1,3_dist_red/trial4.png,,,1,3,redHorizontal,p,28,27,Female,2021-02-26_08h51.11.760,exp11,2020.2.6,Win32,60,IwAR1sxqq8ylL-bjnWBHQxz-VtA0gx9jqv9oV6bl75TRXq6ZcboA5B7sKuaNg,,,,,,,,,,,
,,,,,,,,,,,,,,a,1,0.73649,space,0.081235,0,130,130,190,1,0_targ_16_dist_red/trial16.png,,,0,16,redHorizontal,a,28,27,Female,2021-02-26_08h51.11.760,exp11,2020.2.6,Win32,60,IwAR1sxqq8ylL-bjnWBHQxz-VtA0gx9jqv9oV6bl75TRXq6ZcboA5B7sKuaNg,,,,,,,,,,,
,,,,,,,,,,,,,,a,1,0.7379,space,0.108105,0,131,131,144,1,0_targ_4_dist_red/trial20.png,,,0,4,redHorizontal,a,28,27,Female,2021-02-26_08h51.11.760,exp11,2020.2.6,Win32,60,IwAR1sxqq8ylL-bjnWBHQxz-VtA0gx9jqv9oV6bl75TRXq6ZcboA5B7sKuaNg,,,,,,,,,,,
,,,,,,,,,,,,,,a,1,0.70362,space,0.27192,0,132,132,168,1,0_targ_10_dist_red/trial19.png,,,0,10,redHorizontal,a,28,27,Female,2021-02-26_08h51.11.760,exp11,2020.2.6,Win32,60,IwAR1sxqq8ylL-bjnWBHQxz-VtA0gx9jqv9oV6bl75TRXq6ZcboA5B7sKuaNg,,,,,,,,,,,
,,,,,,,,,,,,,,a,1,0.503165,space,0.141015,0,133,133,120,1,0_targ_1_dist_red/trial21.png,,,0,1,redHorizontal,a,28,27,Female,2021-02-26_08h51.11.760,exp11,2020.2.6,Win32,60,IwAR1sxqq8ylL-bjnWBHQxz-VtA0gx9jqv9oV6bl75TRXq6ZcboA5B7sKuaNg,,,,,,,,,,,
,,,,,,,,,,,,,,a,1,0.645835,space,0.146525,0,134,134,134,1,0_targ_4_dist_red/trial10.png,,,0,4,redHorizontal,a,28,27,Female,2021-02-26_08h51.11.760,exp11,2020.2.6,Win32,60,IwAR1sxqq8ylL-bjnWBHQxz-VtA0gx9jqv9oV6bl75TRXq6ZcboA5B7sKuaNg,,,,,,,,,,,
,,,,,,,,,,,,,,p,1,0.54881,space,0.076405,0,135,135,72,1,9_dist_red/trial23.png,,,1,9,redHorizontal,p,28,27,Female,2021-02-26_08h51.11.760,exp11,2020.2.6,Win32,60,IwAR1sxqq8ylL-bjnWBHQxz-VtA0gx9jqv9oV6bl75TRXq6ZcboA5B7sKuaNg,,,,,,,,,,,
,,,,,,,,,,,,,,p,1,0.701975,space,0.05248,0,136,136,46,1,3_dist_red/trial22.png,,,1,3,redHorizontal,p,28,27,Female,2021-02-26_08h51.11.760,exp11,2020.2.6,Win32,60,IwAR1sxqq8ylL-bjnWBHQxz-VtA0gx9jqv9oV6bl75TRXq6ZcboA5B7sKuaNg,,,,,,,,,,,
,,,,,,,,,,,,,,p,1,0.586555,space,0.072775,0,137,137,36,1,3_dist_red/trial12.png,,,1,3,redHorizontal,p,28,27,Female,2021-02-26_08h51.11.760,exp11,2020.2.6,Win32,60,IwAR1sxqq8ylL-bjnWBHQxz-VtA0gx9jqv9oV6bl75TRXq6ZcboA5B7sKuaNg,,,,,,,,,,,
,,,,,,,,,,,,,,p,1,0.665285,space,0.107675,0,138,138,49,1,3_dist_red/trial25.png,,,1,3,redHorizontal,p,28,27,Female,2021-02-26_08h51.11.760,exp11,2020.2.6,Win32,60,IwAR1sxqq8ylL-bjnWBHQxz-VtA0gx9jqv9oV6bl75TRXq6ZcboA5B7sKuaNg,,,,,,,,,,,
,,,,,,,,,,,,,,a,1,0.84399,space,0.12303,0,139,139,187,1,0_targ_16_dist_red/trial13.png,,,0,16,redHorizontal,a,28,27,Female,2021-02-26_08h51.11.760,exp11,2020.2.6,Win32,60,IwAR1sxqq8ylL-bjnWBHQxz-VtA0gx9jqv9oV6bl75TRXq6ZcboA5B7sKuaNg,,,,,,,,,,,
,,,,,,,,,,,,,,a,1,0.85378,space,0.17979,0,140,140,166,1,0_targ_10_dist_red/trial17.png,,,0,10,redHorizontal,a,28,27,Female,2021-02-26_08h51.11.760,exp11,2020.2.6,Win32,60,IwAR1sxqq8ylL-bjnWBHQxz-VtA0gx9jqv9oV6bl75TRXq6ZcboA5B7sKuaNg,,,,,,,,,,,
,,,,,,,,,,,,,,p,1,1.223145,space,0.175705,0,141,141,90,1,15_dist_red/trial16.png,,,1,15,redHorizontal,p,28,27,Female,2021-02-26_08h51.11.760,exp11,2020.2.6,Win32,60,IwAR1sxqq8ylL-bjnWBHQxz-VtA0gx9jqv9oV6bl75TRXq6ZcboA5B7sKuaNg,,,,,,,,,,,
,,,,,,,,,,,,,,p,1,0.63117,space,0.109745,0,142,142,94,1,15_dist_red/trial20.png,,,1,15,redHorizontal,p,28,27,Female,2021-02-26_08h51.11.760,exp11,2020.2.6,Win32,60,IwAR1sxqq8ylL-bjnWBHQxz-VtA0gx9jqv9oV6bl75TRXq6ZcboA5B7sKuaNg,,,,,,,,,,,
,,,,,,,,,,,,,,p,1,0.569415,space,0.10679,0,143,143,24,1,0_dist_red/trial25.png,,,1,0,redHorizontal,p,28,27,Female,2021-02-26_08h51.11.760,exp11,2020.2.6,Win32,60,IwAR1sxqq8ylL-bjnWBHQxz-VtA0gx9jqv9oV6bl75TRXq6ZcboA5B7sKuaNg,,,,,,,,,,,
,,,,,,,,,,,,,,p,1,0.53741,space,0.03396,0,144,144,39,1,3_dist_red/trial15.png,,,1,3,redHorizontal,p,28,27,Female,2021-02-26_08h51.11.760,exp11,2020.2.6,Win32,60,IwAR1sxqq8ylL-bjnWBHQxz-VtA0gx9jqv9oV6bl75TRXq6ZcboA5B7sKuaNg,,,,,,,,,,,
,,,,,,,,,,,,,,a,1,0.878375,space,0.30082,0,145,145,125,1,0_targ_4_dist_red/trial1.png,,,0,4,redHorizontal,a,28,27,Female,2021-02-26_08h51.11.760,exp11,2020.2.6,Win32,60,IwAR1sxqq8ylL-bjnWBHQxz-VtA0gx9jqv9oV6bl75TRXq6ZcboA5B7sKuaNg,,,,,,,,,,,
,,,,,,,,,,,,,,p,1,0.691335,space,0.06703,0,146,146,76,1,15_dist_red/trial2.png,,,1,15,redHorizontal,p,28,27,Female,2021-02-26_08h51.11.760,exp11,2020.2.6,Win32,60,IwAR1sxqq8ylL-bjnWBHQxz-VtA0gx9jqv9oV6bl75TRXq6ZcboA5B7sKuaNg,,,,,,,,,,,
,,,,,,,,,,,,,,a,1,0.77999,space,0.12279,0,147,147,155,1,0_targ_10_dist_red/trial6.png,,,0,10,redHorizontal,a,28,27,Female,2021-02-26_08h51.11.760,exp11,2020.2.6,Win32,60,IwAR1sxqq8ylL-bjnWBHQxz-VtA0gx9jqv9oV6bl75TRXq6ZcboA5B7sKuaNg,,,,,,,,,,,
,,,,,,,,,,,,,,p,1,0.610505,space,0.00467,0,148,148,68,1,9_dist_red/trial19.png,,,1,9,redHorizontal,p,28,27,Female,2021-02-26_08h51.11.760,exp11,2020.2.6,Win32,60,IwAR1sxqq8ylL-bjnWBHQxz-VtA0gx9jqv9oV6bl75TRXq6ZcboA5B7sKuaNg,,,,,,,,,,,
,,,,,,,,,,,,,,p,1,0.74761,space,0.0885,0,149,149,73,1,9_dist_red/trial24.png,,,1,9,redHorizontal,p,28,27,Female,2021-02-26_08h51.11.760,exp11,2020.2.6,Win32,60,IwAR1sxqq8ylL-bjnWBHQxz-VtA0gx9jqv9oV6bl75TRXq6ZcboA5B7sKuaNg,,,,,,,,,,,
,,,,,,,,,,,,,,a,1,0.79428,space,0.00126,0,150,150,176,1,0_targ_16_dist_red/trial2.png,,,0,16,redHorizontal,a,28,27,Female,2021-02-26_08h51.11.760,exp11,2020.2.6,Win32,60,IwAR1sxqq8ylL-bjnWBHQxz-VtA0gx9jqv9oV6bl75TRXq6ZcboA5B7sKuaNg,,,,,,,,,,,
,,,,,,,,,,,,,,a,1,0.69283,space,0.121135,0,151,151,162,1,0_targ_10_dist_red/trial13.png,,,0,10,redHorizontal,a,28,27,Female,2021-02-26_08h51.11.760,exp11,2020.2.6,Win32,60,IwAR1sxqq8ylL-bjnWBHQxz-VtA0gx9jqv9oV6bl75TRXq6ZcboA5B7sKuaNg,,,,,,,,,,,
,,,,,,,,,,,,,,p,1,1.15344,space,0.075465,0,152,152,54,1,9_dist_red/trial5.png,,,1,9,redHorizontal,p,28,27,Female,2021-02-26_08h51.11.760,exp11,2020.2.6,Win32,60,IwAR1sxqq8ylL-bjnWBHQxz-VtA0gx9jqv9oV6bl75TRXq6ZcboA5B7sKuaNg,,,,,,,,,,,
,,,,,,,,,,,,,,p,1,0.680785,space,0.08417,0,153,153,27,1,3_dist_red/trial3.png,,,1,3,redHorizontal,p,28,27,Female,2021-02-26_08h51.11.760,exp11,2020.2.6,Win32,60,IwAR1sxqq8ylL-bjnWBHQxz-VtA0gx9jqv9oV6bl75TRXq6ZcboA5B7sKuaNg,,,,,,,,,,,
,,,,,,,,,,,,,,p,1,0.59763,space,0.661785,0,154,154,23,1,0_dist_red/trial24.png,,,1,0,redHorizontal,p,28,27,Female,2021-02-26_08h51.11.760,exp11,2020.2.6,Win32,60,IwAR1sxqq8ylL-bjnWBHQxz-VtA0gx9jqv9oV6bl75TRXq6ZcboA5B7sKuaNg,,,,,,,,,,,
,,,,,,,,,,,,,,p,1,0.487645,space,0.12226,0,155,155,92,1,15_dist_red/trial18.png,,,1,15,redHorizontal,p,28,27,Female,2021-02-26_08h51.11.760,exp11,2020.2.6,Win32,60,IwAR1sxqq8ylL-bjnWBHQxz-VtA0gx9jqv9oV6bl75TRXq6ZcboA5B7sKuaNg,,,,,,,,,,,
,,,,,,,,,,,,,,p,1,0.638765,space,0.074805,0,156,156,58,1,9_dist_red/trial9.png,,,1,9,redHorizontal,p,28,27,Female,2021-02-26_08h51.11.760,exp11,2020.2.6,Win32,60,IwAR1sxqq8ylL-bjnWBHQxz-VtA0gx9jqv9oV6bl75TRXq6ZcboA5B7sKuaNg,,,,,,,,,,,
,,,,,,,,,,,,,,a,1,0.64165,space,0.117635,0,157,157,121,1,0_targ_1_dist_red/trial22.png,,,0,1,redHorizontal,a,28,27,Female,2021-02-26_08h51.11.760,exp11,2020.2.6,Win32,60,IwAR1sxqq8ylL-bjnWBHQxz-VtA0gx9jqv9oV6bl75TRXq6ZcboA5B7sKuaNg,,,,,,,,,,,
,,,,,,,,,,,,,,p,1,0.61311,space,0.02575,0,158,158,64,1,9_dist_red/trial15.png,,,1,9,redHorizontal,p,28,27,Female,2021-02-26_08h51.11.760,exp11,2020.2.6,Win32,60,IwAR1sxqq8ylL-bjnWBHQxz-VtA0gx9jqv9oV6bl75TRXq6ZcboA5B7sKuaNg,,,,,,,,,,,
,,,,,,,,,,,,,,a,1,0.601545,space,0.090655,0,159,159,138,1,0_targ_4_dist_red/trial14.png,,,0,4,redHorizontal,a,28,27,Female,2021-02-26_08h51.11.760,exp11,2020.2.6,Win32,60,IwAR1sxqq8ylL-bjnWBHQxz-VtA0gx9jqv9oV6bl75TRXq6ZcboA5B7sKuaNg,,,,,,,,,,,
,,,,,,,,,,,,,,a,1,0.719275,space,0.112865,0,160,160,117,1,0_targ_1_dist_red/trial18.png,,,0,1,redHorizontal,a,28,27,Female,2021-02-26_08h51.11.760,exp11,2020.2.6,Win32,60,IwAR1sxqq8ylL-bjnWBHQxz-VtA0gx9jqv9oV6bl75TRXq6ZcboA5B7sKuaNg,,,,,,,,,,,
,,,,,,,,,,,,,,p,1,0.680705,space,0.00913,0,161,161,83,1,15_dist_red/trial9.png,,,1,15,redHorizontal,p,28,27,Female,2021-02-26_08h51.11.760,exp11,2020.2.6,Win32,60,IwAR1sxqq8ylL-bjnWBHQxz-VtA0gx9jqv9oV6bl75TRXq6ZcboA5B7sKuaNg,,,,,,,,,,,
,,,,,,,,,,,,,,a,1,1.02811,space,0.300335,0,162,162,184,1,0_targ_16_dist_red/trial10.png,,,0,16,redHorizontal,a,28,27,Female,2021-02-26_08h51.11.760,exp11,2020.2.6,Win32,60,IwAR1sxqq8ylL-bjnWBHQxz-VtA0gx9jqv9oV6bl75TRXq6ZcboA5B7sKuaNg,,,,,,,,,,,
,,,,,,,,,,,,,,p,1,0.835955,space,0.08908,0,163,163,78,1,15_dist_red/trial4.png,,,1,15,redHorizontal,p,28,27,Female,2021-02-26_08h51.11.760,exp11,2020.2.6,Win32,60,IwAR1sxqq8ylL-bjnWBHQxz-VtA0gx9jqv9oV6bl75TRXq6ZcboA5B7sKuaNg,,,,,,,,,,,
,,,,,,,,,,,,,,a,1,0.70327,space,0.036615,0,164,164,164,1,0_targ_10_dist_red/trial15.png,,,0,10,redHorizontal,a,28,27,Female,2021-02-26_08h51.11.760,exp11,2020.2.6,Win32,60,IwAR1sxqq8ylL-bjnWBHQxz-VtA0gx9jqv9oV6bl75TRXq6ZcboA5B7sKuaNg,,,,,,,,,,,
,,,,,,,,,,,,,,p,1,0.709885,space,0.148715,0,165,165,34,1,3_dist_red/trial10.png,,,1,3,redHorizontal,p,28,27,Female,2021-02-26_08h51.11.760,exp11,2020.2.6,Win32,60,IwAR1sxqq8ylL-bjnWBHQxz-VtA0gx9jqv9oV6bl75TRXq6ZcboA5B7sKuaNg,,,,,,,,,,,
,,,,,,,,,,,,,,a,1,0.85943,space,0.440645,0,166,166,163,1,0_targ_10_dist_red/trial14.png,,,0,10,redHorizontal,a,28,27,Female,2021-02-26_08h51.11.760,exp11,2020.2.6,Win32,60,IwAR1sxqq8ylL-bjnWBHQxz-VtA0gx9jqv9oV6bl75TRXq6ZcboA5B7sKuaNg,,,,,,,,,,,
,,,,,,,,,,,,,,p,1,0.53395,space,0.43386,0,167,167,86,1,15_dist_red/trial12.png,,,1,15,redHorizontal,p,28,27,Female,2021-02-26_08h51.11.760,exp11,2020.2.6,Win32,60,IwAR1sxqq8ylL-bjnWBHQxz-VtA0gx9jqv9oV6bl75TRXq6ZcboA5B7sKuaNg,,,,,,,,,,,
,,,,,,,,,,,,,,a,1,0.707485,space,0.6527,0,168,168,194,1,0_targ_16_dist_red/trial20.png,,,0,16,redHorizontal,a,28,27,Female,2021-02-26_08h51.11.760,exp11,2020.2.6,Win32,60,IwAR1sxqq8ylL-bjnWBHQxz-VtA0gx9jqv9oV6bl75TRXq6ZcboA5B7sKuaNg,,,,,,,,,,,
,,,,,,,,,,,,,,p,1,0.698825,space,0.177065,0,169,169,40,1,3_dist_red/trial16.png,,,1,3,redHorizontal,p,28,27,Female,2021-02-26_08h51.11.760,exp11,2020.2.6,Win32,60,IwAR1sxqq8ylL-bjnWBHQxz-VtA0gx9jqv9oV6bl75TRXq6ZcboA5B7sKuaNg,,,,,,,,,,,
,,,,,,,,,,,,,,p,1,0.668195,space,0.12565,0,170,170,31,1,3_dist_red/trial7.png,,,1,3,redHorizontal,p,28,27,Female,2021-02-26_08h51.11.760,exp11,2020.2.6,Win32,60,IwAR1sxqq8ylL-bjnWBHQxz-VtA0gx9jqv9oV6bl75TRXq6ZcboA5B7sKuaNg,,,,,,,,,,,
,,,,,,,,,,,,,,p,1,0.759525,space,0.159725,0,171,171,84,1,15_dist_red/trial10.png,,,1,15,redHorizontal,p,28,27,Female,2021-02-26_08h51.11.760,exp11,2020.2.6,Win32,60,IwAR1sxqq8ylL-bjnWBHQxz-VtA0gx9jqv9oV6bl75TRXq6ZcboA5B7sKuaNg,,,,,,,,,,,
,,,,,,,,,,,,,,a,1,0.67038,space,0.10348,0,172,172,123,1,0_targ_1_dist_red/trial24.png,,,0,1,redHorizontal,a,28,27,Female,2021-02-26_08h51.11.760,exp11,2020.2.6,Win32,60,IwAR1sxqq8ylL-bjnWBHQxz-VtA0gx9jqv9oV6bl75TRXq6ZcboA5B7sKuaNg,,,,,,,,,,,
,,,,,,,,,,,,,,a,1,0.457755,space,0.06255,0,173,173,124,1,0_targ_1_dist_red/trial25.png,,,0,1,redHorizontal,a,28,27,Female,2021-02-26_08h51.11.760,exp11,2020.2.6,Win32,60,IwAR1sxqq8ylL-bjnWBHQxz-VtA0gx9jqv9oV6bl75TRXq6ZcboA5B7sKuaNg,,,,,,,,,,,
,,,,,,,,,,,,,,a,1,0.618435,space,0.071385,0,174,174,149,1,0_targ_4_dist_red/trial25.png,,,0,4,redHorizontal,a,28,27,Female,2021-02-26_08h51.11.760,exp11,2020.2.6,Win32,60,IwAR1sxqq8ylL-bjnWBHQxz-VtA0gx9jqv9oV6bl75TRXq6ZcboA5B7sKuaNg,,,,,,,,,,,
,,,,,,,,,,,,,,p,1,0.54589,space,0.100715,0,175,175,17,1,0_dist_red/trial18.png,,,1,0,redHorizontal,p,28,27,Female,2021-02-26_08h51.11.760,exp11,2020.2.6,Win32,60,IwAR1sxqq8ylL-bjnWBHQxz-VtA0gx9jqv9oV6bl75TRXq6ZcboA5B7sKuaNg,,,,,,,,,,,
,,,,,,,,,,,,,,a,1,0.633505,space,0.08236,0,176,176,157,1,0_targ_10_dist_red/trial8.png,,,0,10,redHorizontal,a,28,27,Female,2021-02-26_08h51.11.760,exp11,2020.2.6,Win32,60,IwAR1sxqq8ylL-bjnWBHQxz-VtA0gx9jqv9oV6bl75TRXq6ZcboA5B7sKuaNg,,,,,,,,,,,
,,,,,,,,,,,,,,p,1,0.548635,space,0.078335,0,177,177,18,1,0_dist_red/trial19.png,,,1,0,redHorizontal,p,28,27,Female,2021-02-26_08h51.11.760,exp11,2020.2.6,Win32,60,IwAR1sxqq8ylL-bjnWBHQxz-VtA0gx9jqv9oV6bl75TRXq6ZcboA5B7sKuaNg,,,,,,,,,,,
,,,,,,,,,,,,,,a,1,0.552825,space,0.10059,0,178,178,173,1,0_targ_10_dist_red/trial24.png,,,0,10,redHorizontal,a,28,27,Female,2021-02-26_08h51.11.760,exp11,2020.2.6,Win32,60,IwAR1sxqq8ylL-bjnWBHQxz-VtA0gx9jqv9oV6bl75TRXq6ZcboA5B7sKuaNg,,,,,,,,,,,
,,,,,,,,,,,,,,p,1,0.905195,space,0.093345,0,179,179,59,1,9_dist_red/trial10.png,,,1,9,redHorizontal,p,28,27,Female,2021-02-26_08h51.11.760,exp11,2020.2.6,Win32,60,IwAR1sxqq8ylL-bjnWBHQxz-VtA0gx9jqv9oV6bl75TRXq6ZcboA5B7sKuaNg,,,,,,,,,,,
,,,,,,,,,,,,,,a,1,0.45353,space,0.10394,0,180,180,113,1,0_targ_1_dist_red/trial14.png,,,0,1,redHorizontal,a,28,27,Female,2021-02-26_08h51.11.760,exp11,2020.2.6,Win32,60,IwAR1sxqq8ylL-bjnWBHQxz-VtA0gx9jqv9oV6bl75TRXq6ZcboA5B7sKuaNg,,,,,,,,,,,
,,,,,,,,,,,,,,a,1,0.615025,space,0.1223,0,181,181,109,1,0_targ_1_dist_red/trial10.png,,,0,1,redHorizontal,a,28,27,Female,2021-02-26_08h51.11.760,exp11,2020.2.6,Win32,60,IwAR1sxqq8ylL-bjnWBHQxz-VtA0gx9jqv9oV6bl75TRXq6ZcboA5B7sKuaNg,,,,,,,,,,,
,,,,,,,,,,,,,,a,1,0.47232,space,0.109265,0,182,182,143,1,0_targ_4_dist_red/trial19.png,,,0,4,redHorizontal,a,28,27,Female,2021-02-26_08h51.11.760,exp11,2020.2.6,Win32,60,IwAR1sxqq8ylL-bjnWBHQxz-VtA0gx9jqv9oV6bl75TRXq6ZcboA5B7sKuaNg,,,,,,,,,,,
,,,,,,,,,,,,,,p,1,0.70838,space,0.56768,0,183,183,15,1,0_dist_red/trial16.png,,,1,0,redHorizontal,p,28,27,Female,2021-02-26_08h51.11.760,exp11,2020.2.6,Win32,60,IwAR1sxqq8ylL-bjnWBHQxz-VtA0gx9jqv9oV6bl75TRXq6ZcboA5B7sKuaNg,,,,,,,,,,,
,,,,,,,,,,,,,,a,1,0.611285,space,0.15419,0,184,184,110,1,0_targ_1_dist_red/trial11.png,,,0,1,redHorizontal,a,28,27,Female,2021-02-26_08h51.11.760,exp11,2020.2.6,Win32,60,IwAR1sxqq8ylL-bjnWBHQxz-VtA0gx9jqv9oV6bl75TRXq6ZcboA5B7sKuaNg,,,,,,,,,,,
,,,,,,,,,,,,,,p,1,0.484575,space,0.150405,0,185,185,32,1,3_dist_red/trial8.png,,,1,3,redHorizontal,p,28,27,Female,2021-02-26_08h51.11.760,exp11,2020.2.6,Win32,60,IwAR1sxqq8ylL-bjnWBHQxz-VtA0gx9jqv9oV6bl75TRXq6ZcboA5B7sKuaNg,,,,,,,,,,,
,,,,,,,,,,,,,,p,1,0.647345,space,0.16793,0,186,186,43,1,3_dist_red/trial19.png,,,1,3,redHorizontal,p,28,27,Female,2021-02-26_08h51.11.760,exp11,2020.2.6,Win32,60,IwAR1sxqq8ylL-bjnWBHQxz-VtA0gx9jqv9oV6bl75TRXq6ZcboA5B7sKuaNg,,,,,,,,,,,
,,,,,,,,,,,,,,a,1,0.598505,space,0.088925,0,187,187,159,1,0_targ_10_dist_red/trial10.png,,,0,10,redHorizontal,a,28,27,Female,2021-02-26_08h51.11.760,exp11,2020.2.6,Win32,60,IwAR1sxqq8ylL-bjnWBHQxz-VtA0gx9jqv9oV6bl75TRXq6ZcboA5B7sKuaNg,,,,,,,,,,,
,,,,,,,,,,,,,,p,1,0.579355,space,0.104455,0,188,188,71,1,9_dist_red/trial22.png,,,1,9,redHorizontal,p,28,27,Female,2021-02-26_08h51.11.760,exp11,2020.2.6,Win32,60,IwAR1sxqq8ylL-bjnWBHQxz-VtA0gx9jqv9oV6bl75TRXq6ZcboA5B7sKuaNg,,,,,,,,,,,
,,,,,,,,,,,,,,a,1,0.684005,space,0.07733,0,189,189,112,1,0_targ_1_dist_red/trial13.png,,,0,1,redHorizontal,a,28,27,Female,2021-02-26_08h51.11.760,exp11,2020.2.6,Win32,60,IwAR1sxqq8ylL-bjnWBHQxz-VtA0gx9jqv9oV6bl75TRXq6ZcboA5B7sKuaNg,,,,,,,,,,,
,,,,,,,,,,,,,,a,1,0.486365,space,0.05111,0,190,190,118,1,0_targ_1_dist_red/trial19.png,,,0,1,redHorizontal,a,28,27,Female,2021-02-26_08h51.11.760,exp11,2020.2.6,Win32,60,IwAR1sxqq8ylL-bjnWBHQxz-VtA0gx9jqv9oV6bl75TRXq6ZcboA5B7sKuaNg,,,,,,,,,,,
,,,,,,,,,,,,,,a,1,0.585275,space,0.06199,0,191,191,128,1,0_targ_4_dist_red/trial4.png,,,0,4,redHorizontal,a,28,27,Female,2021-02-26_08h51.11.760,exp11,2020.2.6,Win32,60,IwAR1sxqq8ylL-bjnWBHQxz-VtA0gx9jqv9oV6bl75TRXq6ZcboA5B7sKuaNg,,,,,,,,,,,
,,,,,,,,,,,,,,a,1,0.88121,space,0.073775,0,192,192,185,1,0_targ_16_dist_red/trial11.png,,,0,16,redHorizontal,a,28,27,Female,2021-02-26_08h51.11.760,exp11,2020.2.6,Win32,60,IwAR1sxqq8ylL-bjnWBHQxz-VtA0gx9jqv9oV6bl75TRXq6ZcboA5B7sKuaNg,,,,,,,,,,,
,,,,,,,,,,,,,,a,1,1.410215,space,0.06777,0,193,193,188,1,0_targ_16_dist_red/trial14.png,,,0,16,redHorizontal,a,28,27,Female,2021-02-26_08h51.11.760,exp11,2020.2.6,Win32,60,IwAR1sxqq8ylL-bjnWBHQxz-VtA0gx9jqv9oV6bl75TRXq6ZcboA5B7sKuaNg,,,,,,,,,,,
,,,,,,,,,,,,,,a,1,0.547325,space,0.04425,0,194,194,132,1,0_targ_4_dist_red/trial8.png,,,0,4,redHorizontal,a,28,27,Female,2021-02-26_08h51.11.760,exp11,2020.2.6,Win32,60,IwAR1sxqq8ylL-bjnWBHQxz-VtA0gx9jqv9oV6bl75TRXq6ZcboA5B7sKuaNg,,,,,,,,,,,
,,,,,,,,,,,,,,a,0,0.622145,space,0.50029,0,195,195,53,1,9_dist_red/trial4.png,,,1,9,redHorizontal,p,28,27,Female,2021-02-26_08h51.11.760,exp11,2020.2.6,Win32,60,IwAR1sxqq8ylL-bjnWBHQxz-VtA0gx9jqv9oV6bl75TRXq6ZcboA5B7sKuaNg,,,,,,,,,,,
,,,,,,,,,,,,,,a,1,0.79982,space,0.02239,0,196,196,129,1,0_targ_4_dist_red/trial5.png,,,0,4,redHorizontal,a,28,27,Female,2021-02-26_08h51.11.760,exp11,2020.2.6,Win32,60,IwAR1sxqq8ylL-bjnWBHQxz-VtA0gx9jqv9oV6bl75TRXq6ZcboA5B7sKuaNg,,,,,,,,,,,
,,,,,,,,,,,,,,p,1,0.56972,space,0.226235,0,197,197,66,1,9_dist_red/trial17.png,,,1,9,redHorizontal,p,28,27,Female,2021-02-26_08h51.11.760,exp11,2020.2.6,Win32,60,IwAR1sxqq8ylL-bjnWBHQxz-VtA0gx9jqv9oV6bl75TRXq6ZcboA5B7sKuaNg,,,,,,,,,,,
,,,,,,,,,,,,,,a,1,0.849405,space,0.138435,0,198,198,196,1,0_targ_16_dist_red/trial22.png,,,0,16,redHorizontal,a,28,27,Female,2021-02-26_08h51.11.760,exp11,2020.2.6,Win32,60,IwAR1sxqq8ylL-bjnWBHQxz-VtA0gx9jqv9oV6bl75TRXq6ZcboA5B7sKuaNg,,,,,,,,,,,
,,,,,,,,,,,,,,p,1,0.60248,space,0.115785,0,199,199,74,1,9_dist_red/trial25.png,,,1,9,redHorizontal,p,28,27,Female,2021-02-26_08h51.11.760,exp11,2020.2.6,Win32,60,IwAR1sxqq8ylL-bjnWBHQxz-VtA0gx9jqv9oV6bl75TRXq6ZcboA5B7sKuaNg,,,,,,,,,,,
,,,,,,,,,,,,,,,,,,,,,,,,,,,,,,,28,27,Female,2021-02-26_08h51.11.760,exp11,2020.2.6,Win32,60,IwAR1sxqq8ylL-bjnWBHQxz-VtA0gx9jqv9oV6bl75TRXq6ZcboA5B7sKuaNg,0,1,1,1,1,conRed.xlsx,red horizontal,Look for red horizontal bar (target) and indicate if it is present or absent in the array. If red horizontal target is present press 'p' and if absent press 'a'. Press SPACE to start.,,,
