key_resp_6.keys,key_resp_6.rt,key_resp_7.keys,key_resp_7.rt,key_resp_8.keys,key_resp_8.rt,key_resp_10.keys,key_resp_10.rt,key_resp_9.keys,key_resp_9.rt,key_resp_3.keys,key_resp_3.rt,key_resp_5.keys,key_resp_5.rt,key_resp.keys,key_resp.corr,key_resp.rt,key_resp_4.keys,key_resp_4.rt,trials.thisRepN,trials.thisTrialN,trials.thisN,trials.thisIndex,trials.ran,ImageFile,tarPos,tarSize,targPres,numDist,targetName,correctAns,participant,age,sex,date,expName,psychopyVersion,OS,frameRate,fbclid,trials_2.thisRepN,trials_2.thisTrialN,trials_2.thisN,trials_2.thisIndex,trials_2.ran,condsFile,targName,instructionText,colTarget,sizeTarg,posit
space,4.63499,space,8.678425,space,2.81716,space,9.648695,space,2.041695,space,16.2213,space,7.78927,p,1,1.925365,space,4.98299,0,0,0,91,1,15_dist_green/trial17.png,,,1,15,greenverival,p,37,20,female,2021-02-20_11h24.11.742,exp11,2020.2.6,Win32,60,IwAR1XQBr_n07uJWRfb0yQ1LTe9Tukl4ZwaSYpAUKHG9K4goJY8MUQ5uaV2ak,,,,,,,,,,,
,,,,,,,,,,,,,,a,1,2.58959,space,2.727985,0,1,1,199,1,0_targ_16_dist_green/trial25.png,,,0,16,greenverival,a,37,20,female,2021-02-20_11h24.11.742,exp11,2020.2.6,Win32,60,IwAR1XQBr_n07uJWRfb0yQ1LTe9Tukl4ZwaSYpAUKHG9K4goJY8MUQ5uaV2ak,,,,,,,,,,,
,,,,,,,,,,,,,,p,1,2.61049,space,2.337215,0,2,2,55,1,9_dist_green/trial6.png,,,1,9,greenverival,p,37,20,female,2021-02-20_11h24.11.742,exp11,2020.2.6,Win32,60,IwAR1XQBr_n07uJWRfb0yQ1LTe9Tukl4ZwaSYpAUKHG9K4goJY8MUQ5uaV2ak,,,,,,,,,,,
,,,,,,,,,,,,,,p,1,1.794185,space,1.869905,0,3,3,82,1,15_dist_green/trial8.png,,,1,15,greenverival,p,37,20,female,2021-02-20_11h24.11.742,exp11,2020.2.6,Win32,60,IwAR1XQBr_n07uJWRfb0yQ1LTe9Tukl4ZwaSYpAUKHG9K4goJY8MUQ5uaV2ak,,,,,,,,,,,
,,,,,,,,,,,,,,p,1,0.96679,space,1.30834,0,4,4,46,1,3_dist_green/trial22.png,,,1,3,greenverival,p,37,20,female,2021-02-20_11h24.11.742,exp11,2020.2.6,Win32,60,IwAR1XQBr_n07uJWRfb0yQ1LTe9Tukl4ZwaSYpAUKHG9K4goJY8MUQ5uaV2ak,,,,,,,,,,,
,,,,,,,,,,,,,,p,1,0.781495,space,0.951215,0,5,5,40,1,3_dist_green/trial16.png,,,1,3,greenverival,p,37,20,female,2021-02-20_11h24.11.742,exp11,2020.2.6,Win32,60,IwAR1XQBr_n07uJWRfb0yQ1LTe9Tukl4ZwaSYpAUKHG9K4goJY8MUQ5uaV2ak,,,,,,,,,,,
,,,,,,,,,,,,,,p,1,0.64648,space,0.69242,0,6,6,18,1,0_dist_green/trial19.png,,,1,0,greenverival,p,37,20,female,2021-02-20_11h24.11.742,exp11,2020.2.6,Win32,60,IwAR1XQBr_n07uJWRfb0yQ1LTe9Tukl4ZwaSYpAUKHG9K4goJY8MUQ5uaV2ak,,,,,,,,,,,
,,,,,,,,,,,,,,p,1,1.317745,space,0.67846,0,7,7,30,1,3_dist_green/trial6.png,,,1,3,greenverival,p,37,20,female,2021-02-20_11h24.11.742,exp11,2020.2.6,Win32,60,IwAR1XQBr_n07uJWRfb0yQ1LTe9Tukl4ZwaSYpAUKHG9K4goJY8MUQ5uaV2ak,,,,,,,,,,,
,,,,,,,,,,,,,,p,1,1.19964,space,0.653195,0,8,8,53,1,9_dist_green/trial4.png,,,1,9,greenverival,p,37,20,female,2021-02-20_11h24.11.742,exp11,2020.2.6,Win32,60,IwAR1XQBr_n07uJWRfb0yQ1LTe9Tukl4ZwaSYpAUKHG9K4goJY8MUQ5uaV2ak,,,,,,,,,,,
,,,,,,,,,,,,,,a,1,0.952635,space,0.743935,0,9,9,106,1,0_targ_1_dist_green/trial7.png,,,0,1,greenverival,a,37,20,female,2021-02-20_11h24.11.742,exp11,2020.2.6,Win32,60,IwAR1XQBr_n07uJWRfb0yQ1LTe9Tukl4ZwaSYpAUKHG9K4goJY8MUQ5uaV2ak,,,,,,,,,,,
,,,,,,,,,,,,,,a,1,0.77974,space,0.646245,0,10,10,110,1,0_targ_1_dist_green/trial11.png,,,0,1,greenverival,a,37,20,female,2021-02-20_11h24.11.742,exp11,2020.2.6,Win32,60,IwAR1XQBr_n07uJWRfb0yQ1LTe9Tukl4ZwaSYpAUKHG9K4goJY8MUQ5uaV2ak,,,,,,,,,,,
,,,,,,,,,,,,,,p,1,0.71772,space,0.6583,0,11,11,2,1,0_dist_green/trial3.png,,,1,0,greenverival,p,37,20,female,2021-02-20_11h24.11.742,exp11,2020.2.6,Win32,60,IwAR1XQBr_n07uJWRfb0yQ1LTe9Tukl4ZwaSYpAUKHG9K4goJY8MUQ5uaV2ak,,,,,,,,,,,
,,,,,,,,,,,,,,p,1,0.722125,space,0.602695,0,12,12,8,1,0_dist_green/trial9.png,,,1,0,greenverival,p,37,20,female,2021-02-20_11h24.11.742,exp11,2020.2.6,Win32,60,IwAR1XQBr_n07uJWRfb0yQ1LTe9Tukl4ZwaSYpAUKHG9K4goJY8MUQ5uaV2ak,,,,,,,,,,,
,,,,,,,,,,,,,,a,1,1.293235,space,0.645925,0,13,13,168,1,0_targ_10_dist_green/trial19.png,,,0,10,greenverival,a,37,20,female,2021-02-20_11h24.11.742,exp11,2020.2.6,Win32,60,IwAR1XQBr_n07uJWRfb0yQ1LTe9Tukl4ZwaSYpAUKHG9K4goJY8MUQ5uaV2ak,,,,,,,,,,,
,,,,,,,,,,,,,,p,1,1.866465,space,0.49072,0,14,14,99,1,15_dist_green/trial25.png,,,1,15,greenverival,p,37,20,female,2021-02-20_11h24.11.742,exp11,2020.2.6,Win32,60,IwAR1XQBr_n07uJWRfb0yQ1LTe9Tukl4ZwaSYpAUKHG9K4goJY8MUQ5uaV2ak,,,,,,,,,,,
,,,,,,,,,,,,,,p,1,0.600435,space,0.558055,0,15,15,24,1,0_dist_green/trial25.png,,,1,0,greenverival,p,37,20,female,2021-02-20_11h24.11.742,exp11,2020.2.6,Win32,60,IwAR1XQBr_n07uJWRfb0yQ1LTe9Tukl4ZwaSYpAUKHG9K4goJY8MUQ5uaV2ak,,,,,,,,,,,
,,,,,,,,,,,,,,p,1,0.51564,space,0.499155,0,16,16,14,1,0_dist_green/trial15.png,,,1,0,greenverival,p,37,20,female,2021-02-20_11h24.11.742,exp11,2020.2.6,Win32,60,IwAR1XQBr_n07uJWRfb0yQ1LTe9Tukl4ZwaSYpAUKHG9K4goJY8MUQ5uaV2ak,,,,,,,,,,,
,,,,,,,,,,,,,,p,1,0.683875,space,0.45222,0,17,17,73,1,9_dist_green/trial24.png,,,1,9,greenverival,p,37,20,female,2021-02-20_11h24.11.742,exp11,2020.2.6,Win32,60,IwAR1XQBr_n07uJWRfb0yQ1LTe9Tukl4ZwaSYpAUKHG9K4goJY8MUQ5uaV2ak,,,,,,,,,,,
,,,,,,,,,,,,,,a,1,0.9191,space,0.451415,0,18,18,160,1,0_targ_10_dist_green/trial11.png,,,0,10,greenverival,a,37,20,female,2021-02-20_11h24.11.742,exp11,2020.2.6,Win32,60,IwAR1XQBr_n07uJWRfb0yQ1LTe9Tukl4ZwaSYpAUKHG9K4goJY8MUQ5uaV2ak,,,,,,,,,,,
,,,,,,,,,,,,,,p,1,0.622115,space,0.438805,0,19,19,20,1,0_dist_green/trial21.png,,,1,0,greenverival,p,37,20,female,2021-02-20_11h24.11.742,exp11,2020.2.6,Win32,60,IwAR1XQBr_n07uJWRfb0yQ1LTe9Tukl4ZwaSYpAUKHG9K4goJY8MUQ5uaV2ak,,,,,,,,,,,
,,,,,,,,,,,,,,p,1,0.91514,space,0.40938,0,20,20,68,1,9_dist_green/trial19.png,,,1,9,greenverival,p,37,20,female,2021-02-20_11h24.11.742,exp11,2020.2.6,Win32,60,IwAR1XQBr_n07uJWRfb0yQ1LTe9Tukl4ZwaSYpAUKHG9K4goJY8MUQ5uaV2ak,,,,,,,,,,,
,,,,,,,,,,,,,,p,1,0.702335,space,0.45827,0,21,21,13,1,0_dist_green/trial14.png,,,1,0,greenverival,p,37,20,female,2021-02-20_11h24.11.742,exp11,2020.2.6,Win32,60,IwAR1XQBr_n07uJWRfb0yQ1LTe9Tukl4ZwaSYpAUKHG9K4goJY8MUQ5uaV2ak,,,,,,,,,,,
,,,,,,,,,,,,,,p,1,0.96369,space,0.40846,0,22,22,26,1,3_dist_green/trial2.png,,,1,3,greenverival,p,37,20,female,2021-02-20_11h24.11.742,exp11,2020.2.6,Win32,60,IwAR1XQBr_n07uJWRfb0yQ1LTe9Tukl4ZwaSYpAUKHG9K4goJY8MUQ5uaV2ak,,,,,,,,,,,
,,,,,,,,,,,,,,p,1,0.786025,space,0.3877,0,23,23,65,1,9_dist_green/trial16.png,,,1,9,greenverival,p,37,20,female,2021-02-20_11h24.11.742,exp11,2020.2.6,Win32,60,IwAR1XQBr_n07uJWRfb0yQ1LTe9Tukl4ZwaSYpAUKHG9K4goJY8MUQ5uaV2ak,,,,,,,,,,,
,,,,,,,,,,,,,,a,1,1.698415,space,0.591635,0,24,24,109,1,0_targ_1_dist_green/trial10.png,,,0,1,greenverival,a,37,20,female,2021-02-20_11h24.11.742,exp11,2020.2.6,Win32,60,IwAR1XQBr_n07uJWRfb0yQ1LTe9Tukl4ZwaSYpAUKHG9K4goJY8MUQ5uaV2ak,,,,,,,,,,,
,,,,,,,,,,,,,,a,1,1.04655,space,0.428165,0,25,25,151,1,0_targ_10_dist_green/trial2.png,,,0,10,greenverival,a,37,20,female,2021-02-20_11h24.11.742,exp11,2020.2.6,Win32,60,IwAR1XQBr_n07uJWRfb0yQ1LTe9Tukl4ZwaSYpAUKHG9K4goJY8MUQ5uaV2ak,,,,,,,,,,,
,,,,,,,,,,,,,,a,1,1.347255,space,0.384505,0,26,26,155,1,0_targ_10_dist_green/trial6.png,,,0,10,greenverival,a,37,20,female,2021-02-20_11h24.11.742,exp11,2020.2.6,Win32,60,IwAR1XQBr_n07uJWRfb0yQ1LTe9Tukl4ZwaSYpAUKHG9K4goJY8MUQ5uaV2ak,,,,,,,,,,,
,,,,,,,,,,,,,,p,1,0.76603,space,0.403025,0,27,27,45,1,3_dist_green/trial21.png,,,1,3,greenverival,p,37,20,female,2021-02-20_11h24.11.742,exp11,2020.2.6,Win32,60,IwAR1XQBr_n07uJWRfb0yQ1LTe9Tukl4ZwaSYpAUKHG9K4goJY8MUQ5uaV2ak,,,,,,,,,,,
,,,,,,,,,,,,,,a,1,1.121245,space,0.43464,0,28,28,112,1,0_targ_1_dist_green/trial13.png,,,0,1,greenverival,a,37,20,female,2021-02-20_11h24.11.742,exp11,2020.2.6,Win32,60,IwAR1XQBr_n07uJWRfb0yQ1LTe9Tukl4ZwaSYpAUKHG9K4goJY8MUQ5uaV2ak,,,,,,,,,,,
,,,,,,,,,,,,,,p,1,0.96647,space,0.384485,0,29,29,4,1,0_dist_green/trial5.png,,,1,0,greenverival,p,37,20,female,2021-02-20_11h24.11.742,exp11,2020.2.6,Win32,60,IwAR1XQBr_n07uJWRfb0yQ1LTe9Tukl4ZwaSYpAUKHG9K4goJY8MUQ5uaV2ak,,,,,,,,,,,
,,,,,,,,,,,,,,p,1,1.22749,space,0.78639,0,30,30,36,1,3_dist_green/trial12.png,,,1,3,greenverival,p,37,20,female,2021-02-20_11h24.11.742,exp11,2020.2.6,Win32,60,IwAR1XQBr_n07uJWRfb0yQ1LTe9Tukl4ZwaSYpAUKHG9K4goJY8MUQ5uaV2ak,,,,,,,,,,,
,,,,,,,,,,,,,,a,1,1.26324,space,0.735745,0,31,31,186,1,0_targ_16_dist_green/trial12.png,,,0,16,greenverival,a,37,20,female,2021-02-20_11h24.11.742,exp11,2020.2.6,Win32,60,IwAR1XQBr_n07uJWRfb0yQ1LTe9Tukl4ZwaSYpAUKHG9K4goJY8MUQ5uaV2ak,,,,,,,,,,,
,,,,,,,,,,,,,,p,1,1.418945,space,0.507255,0,32,32,80,1,15_dist_green/trial6.png,,,1,15,greenverival,p,37,20,female,2021-02-20_11h24.11.742,exp11,2020.2.6,Win32,60,IwAR1XQBr_n07uJWRfb0yQ1LTe9Tukl4ZwaSYpAUKHG9K4goJY8MUQ5uaV2ak,,,,,,,,,,,
,,,,,,,,,,,,,,p,1,0.72804,space,0.484955,0,33,33,15,1,0_dist_green/trial16.png,,,1,0,greenverival,p,37,20,female,2021-02-20_11h24.11.742,exp11,2020.2.6,Win32,60,IwAR1XQBr_n07uJWRfb0yQ1LTe9Tukl4ZwaSYpAUKHG9K4goJY8MUQ5uaV2ak,,,,,,,,,,,
,,,,,,,,,,,,,,p,1,0.602585,space,0.51864,0,34,34,12,1,0_dist_green/trial13.png,,,1,0,greenverival,p,37,20,female,2021-02-20_11h24.11.742,exp11,2020.2.6,Win32,60,IwAR1XQBr_n07uJWRfb0yQ1LTe9Tukl4ZwaSYpAUKHG9K4goJY8MUQ5uaV2ak,,,,,,,,,,,
,,,,,,,,,,,,,,p,1,0.995055,space,0.41792,0,35,35,83,1,15_dist_green/trial9.png,,,1,15,greenverival,p,37,20,female,2021-02-20_11h24.11.742,exp11,2020.2.6,Win32,60,IwAR1XQBr_n07uJWRfb0yQ1LTe9Tukl4ZwaSYpAUKHG9K4goJY8MUQ5uaV2ak,,,,,,,,,,,
,,,,,,,,,,,,,,p,1,0.704645,space,0.42445,0,36,36,3,1,0_dist_green/trial4.png,,,1,0,greenverival,p,37,20,female,2021-02-20_11h24.11.742,exp11,2020.2.6,Win32,60,IwAR1XQBr_n07uJWRfb0yQ1LTe9Tukl4ZwaSYpAUKHG9K4goJY8MUQ5uaV2ak,,,,,,,,,,,
,,,,,,,,,,,,,,a,1,1.85532,space,0.48381,0,37,37,121,1,0_targ_1_dist_green/trial22.png,,,0,1,greenverival,a,37,20,female,2021-02-20_11h24.11.742,exp11,2020.2.6,Win32,60,IwAR1XQBr_n07uJWRfb0yQ1LTe9Tukl4ZwaSYpAUKHG9K4goJY8MUQ5uaV2ak,,,,,,,,,,,
,,,,,,,,,,,,,,a,1,2.631305,space,0.372895,0,38,38,184,1,0_targ_16_dist_green/trial10.png,,,0,16,greenverival,a,37,20,female,2021-02-20_11h24.11.742,exp11,2020.2.6,Win32,60,IwAR1XQBr_n07uJWRfb0yQ1LTe9Tukl4ZwaSYpAUKHG9K4goJY8MUQ5uaV2ak,,,,,,,,,,,
,,,,,,,,,,,,,,p,0,1.93542,space,2.60721,0,39,39,116,1,0_targ_1_dist_green/trial17.png,,,0,1,greenverival,a,37,20,female,2021-02-20_11h24.11.742,exp11,2020.2.6,Win32,60,IwAR1XQBr_n07uJWRfb0yQ1LTe9Tukl4ZwaSYpAUKHG9K4goJY8MUQ5uaV2ak,,,,,,,,,,,
,,,,,,,,,,,,,,p,1,3.20369,space,0.57737,0,40,40,87,1,15_dist_green/trial13.png,,,1,15,greenverival,p,37,20,female,2021-02-20_11h24.11.742,exp11,2020.2.6,Win32,60,IwAR1XQBr_n07uJWRfb0yQ1LTe9Tukl4ZwaSYpAUKHG9K4goJY8MUQ5uaV2ak,,,,,,,,,,,
,,,,,,,,,,,,,,p,1,0.66732,space,0.905825,0,41,41,41,1,3_dist_green/trial17.png,,,1,3,greenverival,p,37,20,female,2021-02-20_11h24.11.742,exp11,2020.2.6,Win32,60,IwAR1XQBr_n07uJWRfb0yQ1LTe9Tukl4ZwaSYpAUKHG9K4goJY8MUQ5uaV2ak,,,,,,,,,,,
,,,,,,,,,,,,,,a,1,1.125095,space,0.98711,0,42,42,167,1,0_targ_10_dist_green/trial18.png,,,0,10,greenverival,a,37,20,female,2021-02-20_11h24.11.742,exp11,2020.2.6,Win32,60,IwAR1XQBr_n07uJWRfb0yQ1LTe9Tukl4ZwaSYpAUKHG9K4goJY8MUQ5uaV2ak,,,,,,,,,,,
,,,,,,,,,,,,,,a,0,1.826935,space,0.112265,0,43,43,35,1,3_dist_green/trial11.png,,,1,3,greenverival,p,37,20,female,2021-02-20_11h24.11.742,exp11,2020.2.6,Win32,60,IwAR1XQBr_n07uJWRfb0yQ1LTe9Tukl4ZwaSYpAUKHG9K4goJY8MUQ5uaV2ak,,,,,,,,,,,
,,,,,,,,,,,,,,p,1,1.734975,space,2.383195,0,44,44,29,1,3_dist_green/trial5.png,,,1,3,greenverival,p,37,20,female,2021-02-20_11h24.11.742,exp11,2020.2.6,Win32,60,IwAR1XQBr_n07uJWRfb0yQ1LTe9Tukl4ZwaSYpAUKHG9K4goJY8MUQ5uaV2ak,,,,,,,,,,,
,,,,,,,,,,,,,,a,1,2.443975,space,0.751865,0,45,45,144,1,0_targ_4_dist_green/trial20.png,,,0,4,greenverival,a,37,20,female,2021-02-20_11h24.11.742,exp11,2020.2.6,Win32,60,IwAR1XQBr_n07uJWRfb0yQ1LTe9Tukl4ZwaSYpAUKHG9K4goJY8MUQ5uaV2ak,,,,,,,,,,,
,,,,,,,,,,,,,,a,1,1.01796,space,0.73607,0,46,46,158,1,0_targ_10_dist_green/trial9.png,,,0,10,greenverival,a,37,20,female,2021-02-20_11h24.11.742,exp11,2020.2.6,Win32,60,IwAR1XQBr_n07uJWRfb0yQ1LTe9Tukl4ZwaSYpAUKHG9K4goJY8MUQ5uaV2ak,,,,,,,,,,,
,,,,,,,,,,,,,,p,1,0.83037,space,0.777345,0,47,47,39,1,3_dist_green/trial15.png,,,1,3,greenverival,p,37,20,female,2021-02-20_11h24.11.742,exp11,2020.2.6,Win32,60,IwAR1XQBr_n07uJWRfb0yQ1LTe9Tukl4ZwaSYpAUKHG9K4goJY8MUQ5uaV2ak,,,,,,,,,,,
,,,,,,,,,,,,,,a,1,0.869025,space,0.70188,0,48,48,145,1,0_targ_4_dist_green/trial21.png,,,0,4,greenverival,a,37,20,female,2021-02-20_11h24.11.742,exp11,2020.2.6,Win32,60,IwAR1XQBr_n07uJWRfb0yQ1LTe9Tukl4ZwaSYpAUKHG9K4goJY8MUQ5uaV2ak,,,,,,,,,,,
,,,,,,,,,,,,,,a,1,0.877495,space,0.515945,0,49,49,114,1,0_targ_1_dist_green/trial15.png,,,0,1,greenverival,a,37,20,female,2021-02-20_11h24.11.742,exp11,2020.2.6,Win32,60,IwAR1XQBr_n07uJWRfb0yQ1LTe9Tukl4ZwaSYpAUKHG9K4goJY8MUQ5uaV2ak,,,,,,,,,,,
,,,,,,,,,,,,,,a,1,0.87239,space,0.57136,0,50,50,133,1,0_targ_4_dist_green/trial9.png,,,0,4,greenverival,a,37,20,female,2021-02-20_11h24.11.742,exp11,2020.2.6,Win32,60,IwAR1XQBr_n07uJWRfb0yQ1LTe9Tukl4ZwaSYpAUKHG9K4goJY8MUQ5uaV2ak,,,,,,,,,,,
,,,,,,,,,,,,,,p,1,1.23852,space,0.58242,0,51,51,61,1,9_dist_green/trial12.png,,,1,9,greenverival,p,37,20,female,2021-02-20_11h24.11.742,exp11,2020.2.6,Win32,60,IwAR1XQBr_n07uJWRfb0yQ1LTe9Tukl4ZwaSYpAUKHG9K4goJY8MUQ5uaV2ak,,,,,,,,,,,
,,,,,,,,,,,,,,p,1,0.764815,space,0.518445,0,52,52,17,1,0_dist_green/trial18.png,,,1,0,greenverival,p,37,20,female,2021-02-20_11h24.11.742,exp11,2020.2.6,Win32,60,IwAR1XQBr_n07uJWRfb0yQ1LTe9Tukl4ZwaSYpAUKHG9K4goJY8MUQ5uaV2ak,,,,,,,,,,,
,,,,,,,,,,,,,,p,1,0.83349,space,0.62263,0,53,53,86,1,15_dist_green/trial12.png,,,1,15,greenverival,p,37,20,female,2021-02-20_11h24.11.742,exp11,2020.2.6,Win32,60,IwAR1XQBr_n07uJWRfb0yQ1LTe9Tukl4ZwaSYpAUKHG9K4goJY8MUQ5uaV2ak,,,,,,,,,,,
,,,,,,,,,,,,,,p,1,0.72472,space,0.62741,0,54,54,23,1,0_dist_green/trial24.png,,,1,0,greenverival,p,37,20,female,2021-02-20_11h24.11.742,exp11,2020.2.6,Win32,60,IwAR1XQBr_n07uJWRfb0yQ1LTe9Tukl4ZwaSYpAUKHG9K4goJY8MUQ5uaV2ak,,,,,,,,,,,
,,,,,,,,,,,,,,p,1,1.11563,space,0.601985,0,55,55,77,1,15_dist_green/trial3.png,,,1,15,greenverival,p,37,20,female,2021-02-20_11h24.11.742,exp11,2020.2.6,Win32,60,IwAR1XQBr_n07uJWRfb0yQ1LTe9Tukl4ZwaSYpAUKHG9K4goJY8MUQ5uaV2ak,,,,,,,,,,,
,,,,,,,,,,,,,,a,1,0.80126,space,0.587265,0,56,56,140,1,0_targ_4_dist_green/trial6.png,,,0,4,greenverival,a,37,20,female,2021-02-20_11h24.11.742,exp11,2020.2.6,Win32,60,IwAR1XQBr_n07uJWRfb0yQ1LTe9Tukl4ZwaSYpAUKHG9K4goJY8MUQ5uaV2ak,,,,,,,,,,,
,,,,,,,,,,,,,,p,1,0.77438,space,0.596185,0,57,57,44,1,3_dist_green/trial20.png,,,1,3,greenverival,p,37,20,female,2021-02-20_11h24.11.742,exp11,2020.2.6,Win32,60,IwAR1XQBr_n07uJWRfb0yQ1LTe9Tukl4ZwaSYpAUKHG9K4goJY8MUQ5uaV2ak,,,,,,,,,,,
,,,,,,,,,,,,,,p,1,2.518205,space,0.43579,0,58,58,98,1,15_dist_green/trial24.png,,,1,15,greenverival,p,37,20,female,2021-02-20_11h24.11.742,exp11,2020.2.6,Win32,60,IwAR1XQBr_n07uJWRfb0yQ1LTe9Tukl4ZwaSYpAUKHG9K4goJY8MUQ5uaV2ak,,,,,,,,,,,
,,,,,,,,,,,,,,a,1,1.0912,space,0.741745,0,59,59,194,1,0_targ_16_dist_green/trial20.png,,,0,16,greenverival,a,37,20,female,2021-02-20_11h24.11.742,exp11,2020.2.6,Win32,60,IwAR1XQBr_n07uJWRfb0yQ1LTe9Tukl4ZwaSYpAUKHG9K4goJY8MUQ5uaV2ak,,,,,,,,,,,
,,,,,,,,,,,,,,a,1,1.40202,space,0.510795,0,60,60,182,1,0_targ_16_dist_green/trial8.png,,,0,16,greenverival,a,37,20,female,2021-02-20_11h24.11.742,exp11,2020.2.6,Win32,60,IwAR1XQBr_n07uJWRfb0yQ1LTe9Tukl4ZwaSYpAUKHG9K4goJY8MUQ5uaV2ak,,,,,,,,,,,
,,,,,,,,,,,,,,a,1,1.25805,space,0.58967,0,61,61,126,1,0_targ_4_dist_green/trial2.png,,,0,4,greenverival,a,37,20,female,2021-02-20_11h24.11.742,exp11,2020.2.6,Win32,60,IwAR1XQBr_n07uJWRfb0yQ1LTe9Tukl4ZwaSYpAUKHG9K4goJY8MUQ5uaV2ak,,,,,,,,,,,
,,,,,,,,,,,,,,p,1,0.91447,space,0.75913,0,62,62,37,1,3_dist_green/trial13.png,,,1,3,greenverival,p,37,20,female,2021-02-20_11h24.11.742,exp11,2020.2.6,Win32,60,IwAR1XQBr_n07uJWRfb0yQ1LTe9Tukl4ZwaSYpAUKHG9K4goJY8MUQ5uaV2ak,,,,,,,,,,,
,,,,,,,,,,,,,,a,1,2.201075,space,0.574665,0,63,63,138,1,0_targ_4_dist_green/trial14.png,,,0,4,greenverival,a,37,20,female,2021-02-20_11h24.11.742,exp11,2020.2.6,Win32,60,IwAR1XQBr_n07uJWRfb0yQ1LTe9Tukl4ZwaSYpAUKHG9K4goJY8MUQ5uaV2ak,,,,,,,,,,,
,,,,,,,,,,,,,,p,1,1.737765,space,0.522935,0,64,64,90,1,15_dist_green/trial16.png,,,1,15,greenverival,p,37,20,female,2021-02-20_11h24.11.742,exp11,2020.2.6,Win32,60,IwAR1XQBr_n07uJWRfb0yQ1LTe9Tukl4ZwaSYpAUKHG9K4goJY8MUQ5uaV2ak,,,,,,,,,,,
,,,,,,,,,,,,,,p,1,0.73422,space,0.701225,0,65,65,31,1,3_dist_green/trial7.png,,,1,3,greenverival,p,37,20,female,2021-02-20_11h24.11.742,exp11,2020.2.6,Win32,60,IwAR1XQBr_n07uJWRfb0yQ1LTe9Tukl4ZwaSYpAUKHG9K4goJY8MUQ5uaV2ak,,,,,,,,,,,
,,,,,,,,,,,,,,a,1,0.78826,space,1.110535,0,66,66,117,1,0_targ_1_dist_green/trial18.png,,,0,1,greenverival,a,37,20,female,2021-02-20_11h24.11.742,exp11,2020.2.6,Win32,60,IwAR1XQBr_n07uJWRfb0yQ1LTe9Tukl4ZwaSYpAUKHG9K4goJY8MUQ5uaV2ak,,,,,,,,,,,
,,,,,,,,,,,,,,a,1,1.91525,space,0.859205,0,67,67,196,1,0_targ_16_dist_green/trial22.png,,,0,16,greenverival,a,37,20,female,2021-02-20_11h24.11.742,exp11,2020.2.6,Win32,60,IwAR1XQBr_n07uJWRfb0yQ1LTe9Tukl4ZwaSYpAUKHG9K4goJY8MUQ5uaV2ak,,,,,,,,,,,
,,,,,,,,,,,,,,a,1,1.505055,space,0.66868,0,68,68,159,1,0_targ_10_dist_green/trial10.png,,,0,10,greenverival,a,37,20,female,2021-02-20_11h24.11.742,exp11,2020.2.6,Win32,60,IwAR1XQBr_n07uJWRfb0yQ1LTe9Tukl4ZwaSYpAUKHG9K4goJY8MUQ5uaV2ak,,,,,,,,,,,
,,,,,,,,,,,,,,a,1,1.209675,space,0.626075,0,69,69,190,1,0_targ_16_dist_green/trial16.png,,,0,16,greenverival,a,37,20,female,2021-02-20_11h24.11.742,exp11,2020.2.6,Win32,60,IwAR1XQBr_n07uJWRfb0yQ1LTe9Tukl4ZwaSYpAUKHG9K4goJY8MUQ5uaV2ak,,,,,,,,,,,
,,,,,,,,,,,,,,a,1,1.18048,space,0.53874,0,70,70,169,1,0_targ_10_dist_green/trial20.png,,,0,10,greenverival,a,37,20,female,2021-02-20_11h24.11.742,exp11,2020.2.6,Win32,60,IwAR1XQBr_n07uJWRfb0yQ1LTe9Tukl4ZwaSYpAUKHG9K4goJY8MUQ5uaV2ak,,,,,,,,,,,
,,,,,,,,,,,,,,a,1,1.065005,space,0.40552,0,71,71,148,1,0_targ_4_dist_green/trial24.png,,,0,4,greenverival,a,37,20,female,2021-02-20_11h24.11.742,exp11,2020.2.6,Win32,60,IwAR1XQBr_n07uJWRfb0yQ1LTe9Tukl4ZwaSYpAUKHG9K4goJY8MUQ5uaV2ak,,,,,,,,,,,
,,,,,,,,,,,,,,a,1,1.52386,space,0.605145,0,72,72,150,1,0_targ_10_dist_green/trial1.png,,,0,10,greenverival,a,37,20,female,2021-02-20_11h24.11.742,exp11,2020.2.6,Win32,60,IwAR1XQBr_n07uJWRfb0yQ1LTe9Tukl4ZwaSYpAUKHG9K4goJY8MUQ5uaV2ak,,,,,,,,,,,
,,,,,,,,,,,,,,a,1,0.8363,space,0.55851,0,73,73,101,1,0_targ_1_dist_green/trial2.png,,,0,1,greenverival,a,37,20,female,2021-02-20_11h24.11.742,exp11,2020.2.6,Win32,60,IwAR1XQBr_n07uJWRfb0yQ1LTe9Tukl4ZwaSYpAUKHG9K4goJY8MUQ5uaV2ak,,,,,,,,,,,
,,,,,,,,,,,,,,p,1,0.94144,space,0.543435,0,74,74,59,1,9_dist_green/trial10.png,,,1,9,greenverival,p,37,20,female,2021-02-20_11h24.11.742,exp11,2020.2.6,Win32,60,IwAR1XQBr_n07uJWRfb0yQ1LTe9Tukl4ZwaSYpAUKHG9K4goJY8MUQ5uaV2ak,,,,,,,,,,,
,,,,,,,,,,,,,,a,1,1.215545,space,0.71758,0,75,75,162,1,0_targ_10_dist_green/trial13.png,,,0,10,greenverival,a,37,20,female,2021-02-20_11h24.11.742,exp11,2020.2.6,Win32,60,IwAR1XQBr_n07uJWRfb0yQ1LTe9Tukl4ZwaSYpAUKHG9K4goJY8MUQ5uaV2ak,,,,,,,,,,,
,,,,,,,,,,,,,,p,1,0.98762,space,0.59443,0,76,76,72,1,9_dist_green/trial23.png,,,1,9,greenverival,p,37,20,female,2021-02-20_11h24.11.742,exp11,2020.2.6,Win32,60,IwAR1XQBr_n07uJWRfb0yQ1LTe9Tukl4ZwaSYpAUKHG9K4goJY8MUQ5uaV2ak,,,,,,,,,,,
,,,,,,,,,,,,,,p,0,1.03338,space,1.110135,0,77,77,157,1,0_targ_10_dist_green/trial8.png,,,0,10,greenverival,a,37,20,female,2021-02-20_11h24.11.742,exp11,2020.2.6,Win32,60,IwAR1XQBr_n07uJWRfb0yQ1LTe9Tukl4ZwaSYpAUKHG9K4goJY8MUQ5uaV2ak,,,,,,,,,,,
,,,,,,,,,,,,,,a,1,1.86942,space,0.360405,0,78,78,165,1,0_targ_10_dist_green/trial16.png,,,0,10,greenverival,a,37,20,female,2021-02-20_11h24.11.742,exp11,2020.2.6,Win32,60,IwAR1XQBr_n07uJWRfb0yQ1LTe9Tukl4ZwaSYpAUKHG9K4goJY8MUQ5uaV2ak,,,,,,,,,,,
,,,,,,,,,,,,,,a,1,1.1832,space,0.519065,0,79,79,173,1,0_targ_10_dist_green/trial24.png,,,0,10,greenverival,a,37,20,female,2021-02-20_11h24.11.742,exp11,2020.2.6,Win32,60,IwAR1XQBr_n07uJWRfb0yQ1LTe9Tukl4ZwaSYpAUKHG9K4goJY8MUQ5uaV2ak,,,,,,,,,,,
,,,,,,,,,,,,,,a,1,0.882745,space,0.670115,0,80,80,175,1,0_targ_16_dist_green/trial1.png,,,0,16,greenverival,a,37,20,female,2021-02-20_11h24.11.742,exp11,2020.2.6,Win32,60,IwAR1XQBr_n07uJWRfb0yQ1LTe9Tukl4ZwaSYpAUKHG9K4goJY8MUQ5uaV2ak,,,,,,,,,,,
,,,,,,,,,,,,,,p,1,1.806645,space,0.589095,0,81,81,49,1,3_dist_green/trial25.png,,,1,3,greenverival,p,37,20,female,2021-02-20_11h24.11.742,exp11,2020.2.6,Win32,60,IwAR1XQBr_n07uJWRfb0yQ1LTe9Tukl4ZwaSYpAUKHG9K4goJY8MUQ5uaV2ak,,,,,,,,,,,
,,,,,,,,,,,,,,p,1,1.299375,space,0.654965,0,82,82,9,1,0_dist_green/trial10.png,,,1,0,greenverival,p,37,20,female,2021-02-20_11h24.11.742,exp11,2020.2.6,Win32,60,IwAR1XQBr_n07uJWRfb0yQ1LTe9Tukl4ZwaSYpAUKHG9K4goJY8MUQ5uaV2ak,,,,,,,,,,,
,,,,,,,,,,,,,,p,1,0.605655,space,0.709485,0,83,83,21,1,0_dist_green/trial22.png,,,1,0,greenverival,p,37,20,female,2021-02-20_11h24.11.742,exp11,2020.2.6,Win32,60,IwAR1XQBr_n07uJWRfb0yQ1LTe9Tukl4ZwaSYpAUKHG9K4goJY8MUQ5uaV2ak,,,,,,,,,,,
,,,,,,,,,,,,,,p,1,0.80409,space,0.69847,0,84,84,70,1,9_dist_green/trial21.png,,,1,9,greenverival,p,37,20,female,2021-02-20_11h24.11.742,exp11,2020.2.6,Win32,60,IwAR1XQBr_n07uJWRfb0yQ1LTe9Tukl4ZwaSYpAUKHG9K4goJY8MUQ5uaV2ak,,,,,,,,,,,
,,,,,,,,,,,,,,p,1,0.82255,space,0.763545,0,85,85,32,1,3_dist_green/trial8.png,,,1,3,greenverival,p,37,20,female,2021-02-20_11h24.11.742,exp11,2020.2.6,Win32,60,IwAR1XQBr_n07uJWRfb0yQ1LTe9Tukl4ZwaSYpAUKHG9K4goJY8MUQ5uaV2ak,,,,,,,,,,,
,,,,,,,,,,,,,,a,1,0.85317,space,0.692075,0,86,86,178,1,0_targ_16_dist_green/trial4.png,,,0,16,greenverival,a,37,20,female,2021-02-20_11h24.11.742,exp11,2020.2.6,Win32,60,IwAR1XQBr_n07uJWRfb0yQ1LTe9Tukl4ZwaSYpAUKHG9K4goJY8MUQ5uaV2ak,,,,,,,,,,,
,,,,,,,,,,,,,,a,1,2.37743,space,0.537235,0,87,87,156,1,0_targ_10_dist_green/trial7.png,,,0,10,greenverival,a,37,20,female,2021-02-20_11h24.11.742,exp11,2020.2.6,Win32,60,IwAR1XQBr_n07uJWRfb0yQ1LTe9Tukl4ZwaSYpAUKHG9K4goJY8MUQ5uaV2ak,,,,,,,,,,,
,,,,,,,,,,,,,,a,1,1.23777,space,0.577155,0,88,88,147,1,0_targ_4_dist_green/trial23.png,,,0,4,greenverival,a,37,20,female,2021-02-20_11h24.11.742,exp11,2020.2.6,Win32,60,IwAR1XQBr_n07uJWRfb0yQ1LTe9Tukl4ZwaSYpAUKHG9K4goJY8MUQ5uaV2ak,,,,,,,,,,,
,,,,,,,,,,,,,,a,1,1.3577,space,0.588815,0,89,89,161,1,0_targ_10_dist_green/trial12.png,,,0,10,greenverival,a,37,20,female,2021-02-20_11h24.11.742,exp11,2020.2.6,Win32,60,IwAR1XQBr_n07uJWRfb0yQ1LTe9Tukl4ZwaSYpAUKHG9K4goJY8MUQ5uaV2ak,,,,,,,,,,,
,,,,,,,,,,,,,,p,1,0.817625,space,0.67186,0,90,90,85,1,15_dist_green/trial11.png,,,1,15,greenverival,p,37,20,female,2021-02-20_11h24.11.742,exp11,2020.2.6,Win32,60,IwAR1XQBr_n07uJWRfb0yQ1LTe9Tukl4ZwaSYpAUKHG9K4goJY8MUQ5uaV2ak,,,,,,,,,,,
,,,,,,,,,,,,,,p,1,0.869645,space,0.707565,0,91,91,88,1,15_dist_green/trial14.png,,,1,15,greenverival,p,37,20,female,2021-02-20_11h24.11.742,exp11,2020.2.6,Win32,60,IwAR1XQBr_n07uJWRfb0yQ1LTe9Tukl4ZwaSYpAUKHG9K4goJY8MUQ5uaV2ak,,,,,,,,,,,
,,,,,,,,,,,,,,p,1,1.33121,space,0.773945,0,92,92,51,1,9_dist_green/trial2.png,,,1,9,greenverival,p,37,20,female,2021-02-20_11h24.11.742,exp11,2020.2.6,Win32,60,IwAR1XQBr_n07uJWRfb0yQ1LTe9Tukl4ZwaSYpAUKHG9K4goJY8MUQ5uaV2ak,,,,,,,,,,,
,,,,,,,,,,,,,,p,1,0.69589,space,0.704905,0,93,93,19,1,0_dist_green/trial20.png,,,1,0,greenverival,p,37,20,female,2021-02-20_11h24.11.742,exp11,2020.2.6,Win32,60,IwAR1XQBr_n07uJWRfb0yQ1LTe9Tukl4ZwaSYpAUKHG9K4goJY8MUQ5uaV2ak,,,,,,,,,,,
,,,,,,,,,,,,,,a,1,1.029105,space,0.73732,0,94,94,104,1,0_targ_1_dist_green/trial5.png,,,0,1,greenverival,a,37,20,female,2021-02-20_11h24.11.742,exp11,2020.2.6,Win32,60,IwAR1XQBr_n07uJWRfb0yQ1LTe9Tukl4ZwaSYpAUKHG9K4goJY8MUQ5uaV2ak,,,,,,,,,,,
,,,,,,,,,,,,,,a,1,1.21965,space,0.69474,0,95,95,198,1,0_targ_16_dist_green/trial24.png,,,0,16,greenverival,a,37,20,female,2021-02-20_11h24.11.742,exp11,2020.2.6,Win32,60,IwAR1XQBr_n07uJWRfb0yQ1LTe9Tukl4ZwaSYpAUKHG9K4goJY8MUQ5uaV2ak,,,,,,,,,,,
,,,,,,,,,,,,,,p,1,0.855755,space,0.80074,0,96,96,47,1,3_dist_green/trial23.png,,,1,3,greenverival,p,37,20,female,2021-02-20_11h24.11.742,exp11,2020.2.6,Win32,60,IwAR1XQBr_n07uJWRfb0yQ1LTe9Tukl4ZwaSYpAUKHG9K4goJY8MUQ5uaV2ak,,,,,,,,,,,
,,,,,,,,,,,,,,a,1,2.766335,space,0.42368,0,97,97,149,1,0_targ_4_dist_green/trial25.png,,,0,4,greenverival,a,37,20,female,2021-02-20_11h24.11.742,exp11,2020.2.6,Win32,60,IwAR1XQBr_n07uJWRfb0yQ1LTe9Tukl4ZwaSYpAUKHG9K4goJY8MUQ5uaV2ak,,,,,,,,,,,
,,,,,,,,,,,,,,p,1,0.988275,space,0.602225,0,98,98,64,1,9_dist_green/trial15.png,,,1,9,greenverival,p,37,20,female,2021-02-20_11h24.11.742,exp11,2020.2.6,Win32,60,IwAR1XQBr_n07uJWRfb0yQ1LTe9Tukl4ZwaSYpAUKHG9K4goJY8MUQ5uaV2ak,,,,,,,,,,,
,,,,,,,,,,,,,,p,1,1.37346,space,0.524375,0,99,99,79,1,15_dist_green/trial5.png,,,1,15,greenverival,p,37,20,female,2021-02-20_11h24.11.742,exp11,2020.2.6,Win32,60,IwAR1XQBr_n07uJWRfb0yQ1LTe9Tukl4ZwaSYpAUKHG9K4goJY8MUQ5uaV2ak,,,,,,,,,,,
,,,,,,,,,,,,,,p,1,0.72435,space,0.52858,0,100,100,27,1,3_dist_green/trial3.png,,,1,3,greenverival,p,37,20,female,2021-02-20_11h24.11.742,exp11,2020.2.6,Win32,60,IwAR1XQBr_n07uJWRfb0yQ1LTe9Tukl4ZwaSYpAUKHG9K4goJY8MUQ5uaV2ak,,,,,,,,,,,
,,,,,,,,,,,,,,a,1,0.962785,space,0.759285,0,101,101,152,1,0_targ_10_dist_green/trial3.png,,,0,10,greenverival,a,37,20,female,2021-02-20_11h24.11.742,exp11,2020.2.6,Win32,60,IwAR1XQBr_n07uJWRfb0yQ1LTe9Tukl4ZwaSYpAUKHG9K4goJY8MUQ5uaV2ak,,,,,,,,,,,
,,,,,,,,,,,,,,p,1,0.83228,space,0.671785,0,102,102,60,1,9_dist_green/trial11.png,,,1,9,greenverival,p,37,20,female,2021-02-20_11h24.11.742,exp11,2020.2.6,Win32,60,IwAR1XQBr_n07uJWRfb0yQ1LTe9Tukl4ZwaSYpAUKHG9K4goJY8MUQ5uaV2ak,,,,,,,,,,,
,,,,,,,,,,,,,,p,1,0.896875,space,0.55148,0,103,103,43,1,3_dist_green/trial19.png,,,1,3,greenverival,p,37,20,female,2021-02-20_11h24.11.742,exp11,2020.2.6,Win32,60,IwAR1XQBr_n07uJWRfb0yQ1LTe9Tukl4ZwaSYpAUKHG9K4goJY8MUQ5uaV2ak,,,,,,,,,,,
,,,,,,,,,,,,,,a,1,1.428785,space,0.600665,0,104,104,123,1,0_targ_1_dist_green/trial24.png,,,0,1,greenverival,a,37,20,female,2021-02-20_11h24.11.742,exp11,2020.2.6,Win32,60,IwAR1XQBr_n07uJWRfb0yQ1LTe9Tukl4ZwaSYpAUKHG9K4goJY8MUQ5uaV2ak,,,,,,,,,,,
,,,,,,,,,,,,,,p,0,3.47053,space,5.08671,0,105,105,185,1,0_targ_16_dist_green/trial11.png,,,0,16,greenverival,a,37,20,female,2021-02-20_11h24.11.742,exp11,2020.2.6,Win32,60,IwAR1XQBr_n07uJWRfb0yQ1LTe9Tukl4ZwaSYpAUKHG9K4goJY8MUQ5uaV2ak,,,,,,,,,,,
,,,,,,,,,,,,,,a,1,1.35824,space,0.594695,0,106,106,176,1,0_targ_16_dist_green/trial2.png,,,0,16,greenverival,a,37,20,female,2021-02-20_11h24.11.742,exp11,2020.2.6,Win32,60,IwAR1XQBr_n07uJWRfb0yQ1LTe9Tukl4ZwaSYpAUKHG9K4goJY8MUQ5uaV2ak,,,,,,,,,,,
,,,,,,,,,,,,,,a,1,1.224275,space,0.50531,0,107,107,177,1,0_targ_16_dist_green/trial3.png,,,0,16,greenverival,a,37,20,female,2021-02-20_11h24.11.742,exp11,2020.2.6,Win32,60,IwAR1XQBr_n07uJWRfb0yQ1LTe9Tukl4ZwaSYpAUKHG9K4goJY8MUQ5uaV2ak,,,,,,,,,,,
,,,,,,,,,,,,,,p,1,0.79549,space,0.600315,0,108,108,28,1,3_dist_green/trial4.png,,,1,3,greenverival,p,37,20,female,2021-02-20_11h24.11.742,exp11,2020.2.6,Win32,60,IwAR1XQBr_n07uJWRfb0yQ1LTe9Tukl4ZwaSYpAUKHG9K4goJY8MUQ5uaV2ak,,,,,,,,,,,
,,,,,,,,,,,,,,a,1,1.379725,space,0.59162,0,109,109,146,1,0_targ_4_dist_green/trial22.png,,,0,4,greenverival,a,37,20,female,2021-02-20_11h24.11.742,exp11,2020.2.6,Win32,60,IwAR1XQBr_n07uJWRfb0yQ1LTe9Tukl4ZwaSYpAUKHG9K4goJY8MUQ5uaV2ak,,,,,,,,,,,
,,,,,,,,,,,,,,p,1,1.07596,space,0.758305,0,110,110,76,1,15_dist_green/trial2.png,,,1,15,greenverival,p,37,20,female,2021-02-20_11h24.11.742,exp11,2020.2.6,Win32,60,IwAR1XQBr_n07uJWRfb0yQ1LTe9Tukl4ZwaSYpAUKHG9K4goJY8MUQ5uaV2ak,,,,,,,,,,,
,,,,,,,,,,,,,,p,1,0.76207,space,0.635235,0,111,111,78,1,15_dist_green/trial4.png,,,1,15,greenverival,p,37,20,female,2021-02-20_11h24.11.742,exp11,2020.2.6,Win32,60,IwAR1XQBr_n07uJWRfb0yQ1LTe9Tukl4ZwaSYpAUKHG9K4goJY8MUQ5uaV2ak,,,,,,,,,,,
,,,,,,,,,,,,,,a,1,1.028635,space,0.65401,0,112,112,163,1,0_targ_10_dist_green/trial14.png,,,0,10,greenverival,a,37,20,female,2021-02-20_11h24.11.742,exp11,2020.2.6,Win32,60,IwAR1XQBr_n07uJWRfb0yQ1LTe9Tukl4ZwaSYpAUKHG9K4goJY8MUQ5uaV2ak,,,,,,,,,,,
,,,,,,,,,,,,,,p,1,3.31442,space,0.54238,0,113,113,57,1,9_dist_green/trial8.png,,,1,9,greenverival,p,37,20,female,2021-02-20_11h24.11.742,exp11,2020.2.6,Win32,60,IwAR1XQBr_n07uJWRfb0yQ1LTe9Tukl4ZwaSYpAUKHG9K4goJY8MUQ5uaV2ak,,,,,,,,,,,
,,,,,,,,,,,,,,a,1,0.982155,space,0.68348,0,114,114,187,1,0_targ_16_dist_green/trial13.png,,,0,16,greenverival,a,37,20,female,2021-02-20_11h24.11.742,exp11,2020.2.6,Win32,60,IwAR1XQBr_n07uJWRfb0yQ1LTe9Tukl4ZwaSYpAUKHG9K4goJY8MUQ5uaV2ak,,,,,,,,,,,
,,,,,,,,,,,,,,a,1,1.564555,space,0.55121,0,115,115,129,1,0_targ_4_dist_green/trial5.png,,,0,4,greenverival,a,37,20,female,2021-02-20_11h24.11.742,exp11,2020.2.6,Win32,60,IwAR1XQBr_n07uJWRfb0yQ1LTe9Tukl4ZwaSYpAUKHG9K4goJY8MUQ5uaV2ak,,,,,,,,,,,
,,,,,,,,,,,,,,a,1,1.06363,space,0.667855,0,116,116,141,1,0_targ_4_dist_green/trial17.png,,,0,4,greenverival,a,37,20,female,2021-02-20_11h24.11.742,exp11,2020.2.6,Win32,60,IwAR1XQBr_n07uJWRfb0yQ1LTe9Tukl4ZwaSYpAUKHG9K4goJY8MUQ5uaV2ak,,,,,,,,,,,
,,,,,,,,,,,,,,p,1,0.99449,space,0.752135,0,117,117,89,1,15_dist_green/trial15.png,,,1,15,greenverival,p,37,20,female,2021-02-20_11h24.11.742,exp11,2020.2.6,Win32,60,IwAR1XQBr_n07uJWRfb0yQ1LTe9Tukl4ZwaSYpAUKHG9K4goJY8MUQ5uaV2ak,,,,,,,,,,,
,,,,,,,,,,,,,,a,1,1.230825,space,0.5709,0,118,118,142,1,0_targ_4_dist_green/trial18.png,,,0,4,greenverival,a,37,20,female,2021-02-20_11h24.11.742,exp11,2020.2.6,Win32,60,IwAR1XQBr_n07uJWRfb0yQ1LTe9Tukl4ZwaSYpAUKHG9K4goJY8MUQ5uaV2ak,,,,,,,,,,,
,,,,,,,,,,,,,,a,1,0.81207,space,0.668275,0,119,119,103,1,0_targ_1_dist_green/trial4.png,,,0,1,greenverival,a,37,20,female,2021-02-20_11h24.11.742,exp11,2020.2.6,Win32,60,IwAR1XQBr_n07uJWRfb0yQ1LTe9Tukl4ZwaSYpAUKHG9K4goJY8MUQ5uaV2ak,,,,,,,,,,,
,,,,,,,,,,,,,,p,1,0.873805,space,0.70299,0,120,120,6,1,0_dist_green/trial7.png,,,1,0,greenverival,p,37,20,female,2021-02-20_11h24.11.742,exp11,2020.2.6,Win32,60,IwAR1XQBr_n07uJWRfb0yQ1LTe9Tukl4ZwaSYpAUKHG9K4goJY8MUQ5uaV2ak,,,,,,,,,,,
,,,,,,,,,,,,,,p,1,2.86741,space,0.561205,0,121,121,56,1,9_dist_green/trial7.png,,,1,9,greenverival,p,37,20,female,2021-02-20_11h24.11.742,exp11,2020.2.6,Win32,60,IwAR1XQBr_n07uJWRfb0yQ1LTe9Tukl4ZwaSYpAUKHG9K4goJY8MUQ5uaV2ak,,,,,,,,,,,
,,,,,,,,,,,,,,p,1,0.841665,space,0.45325,0,122,122,48,1,3_dist_green/trial24.png,,,1,3,greenverival,p,37,20,female,2021-02-20_11h24.11.742,exp11,2020.2.6,Win32,60,IwAR1XQBr_n07uJWRfb0yQ1LTe9Tukl4ZwaSYpAUKHG9K4goJY8MUQ5uaV2ak,,,,,,,,,,,
,,,,,,,,,,,,,,p,1,1.046725,space,0.704265,0,123,123,66,1,9_dist_green/trial17.png,,,1,9,greenverival,p,37,20,female,2021-02-20_11h24.11.742,exp11,2020.2.6,Win32,60,IwAR1XQBr_n07uJWRfb0yQ1LTe9Tukl4ZwaSYpAUKHG9K4goJY8MUQ5uaV2ak,,,,,,,,,,,
,,,,,,,,,,,,,,a,1,0.94133,space,0.84118,0,124,124,132,1,0_targ_4_dist_green/trial8.png,,,0,4,greenverival,a,37,20,female,2021-02-20_11h24.11.742,exp11,2020.2.6,Win32,60,IwAR1XQBr_n07uJWRfb0yQ1LTe9Tukl4ZwaSYpAUKHG9K4goJY8MUQ5uaV2ak,,,,,,,,,,,
,,,,,,,,,,,,,,a,1,2.20204,space,0.60716,0,125,125,179,1,0_targ_16_dist_green/trial5.png,,,0,16,greenverival,a,37,20,female,2021-02-20_11h24.11.742,exp11,2020.2.6,Win32,60,IwAR1XQBr_n07uJWRfb0yQ1LTe9Tukl4ZwaSYpAUKHG9K4goJY8MUQ5uaV2ak,,,,,,,,,,,
,,,,,,,,,,,,,,a,1,1.221275,space,0.53514,0,126,126,118,1,0_targ_1_dist_green/trial19.png,,,0,1,greenverival,a,37,20,female,2021-02-20_11h24.11.742,exp11,2020.2.6,Win32,60,IwAR1XQBr_n07uJWRfb0yQ1LTe9Tukl4ZwaSYpAUKHG9K4goJY8MUQ5uaV2ak,,,,,,,,,,,
,,,,,,,,,,,,,,a,1,0.845805,space,0.54279,0,127,127,174,1,0_targ_10_dist_green/trial25.png,,,0,10,greenverival,a,37,20,female,2021-02-20_11h24.11.742,exp11,2020.2.6,Win32,60,IwAR1XQBr_n07uJWRfb0yQ1LTe9Tukl4ZwaSYpAUKHG9K4goJY8MUQ5uaV2ak,,,,,,,,,,,
,,,,,,,,,,,,,,a,1,1.02104,space,0.654005,0,128,128,171,1,0_targ_10_dist_green/trial22.png,,,0,10,greenverival,a,37,20,female,2021-02-20_11h24.11.742,exp11,2020.2.6,Win32,60,IwAR1XQBr_n07uJWRfb0yQ1LTe9Tukl4ZwaSYpAUKHG9K4goJY8MUQ5uaV2ak,,,,,,,,,,,
,,,,,,,,,,,,,,p,1,0.80975,space,0.659485,0,129,129,95,1,15_dist_green/trial21.png,,,1,15,greenverival,p,37,20,female,2021-02-20_11h24.11.742,exp11,2020.2.6,Win32,60,IwAR1XQBr_n07uJWRfb0yQ1LTe9Tukl4ZwaSYpAUKHG9K4goJY8MUQ5uaV2ak,,,,,,,,,,,
,,,,,,,,,,,,,,a,1,0.71635,space,0.706215,0,130,130,105,1,0_targ_1_dist_green/trial6.png,,,0,1,greenverival,a,37,20,female,2021-02-20_11h24.11.742,exp11,2020.2.6,Win32,60,IwAR1XQBr_n07uJWRfb0yQ1LTe9Tukl4ZwaSYpAUKHG9K4goJY8MUQ5uaV2ak,,,,,,,,,,,
,,,,,,,,,,,,,,a,1,1.582235,space,0.469625,0,131,131,191,1,0_targ_16_dist_green/trial17.png,,,0,16,greenverival,a,37,20,female,2021-02-20_11h24.11.742,exp11,2020.2.6,Win32,60,IwAR1XQBr_n07uJWRfb0yQ1LTe9Tukl4ZwaSYpAUKHG9K4goJY8MUQ5uaV2ak,,,,,,,,,,,
,,,,,,,,,,,,,,p,1,0.686535,space,1.0185,0,132,132,92,1,15_dist_green/trial18.png,,,1,15,greenverival,p,37,20,female,2021-02-20_11h24.11.742,exp11,2020.2.6,Win32,60,IwAR1XQBr_n07uJWRfb0yQ1LTe9Tukl4ZwaSYpAUKHG9K4goJY8MUQ5uaV2ak,,,,,,,,,,,
,,,,,,,,,,,,,,a,1,1.009855,space,0.75309,0,133,133,131,1,0_targ_4_dist_green/trial7.png,,,0,4,greenverival,a,37,20,female,2021-02-20_11h24.11.742,exp11,2020.2.6,Win32,60,IwAR1XQBr_n07uJWRfb0yQ1LTe9Tukl4ZwaSYpAUKHG9K4goJY8MUQ5uaV2ak,,,,,,,,,,,
,,,,,,,,,,,,,,p,1,0.948465,space,1.009545,0,134,134,34,1,3_dist_green/trial10.png,,,1,3,greenverival,p,37,20,female,2021-02-20_11h24.11.742,exp11,2020.2.6,Win32,60,IwAR1XQBr_n07uJWRfb0yQ1LTe9Tukl4ZwaSYpAUKHG9K4goJY8MUQ5uaV2ak,,,,,,,,,,,
,,,,,,,,,,,,,,a,1,2.584165,space,0.50138,0,135,135,192,1,0_targ_16_dist_green/trial18.png,,,0,16,greenverival,a,37,20,female,2021-02-20_11h24.11.742,exp11,2020.2.6,Win32,60,IwAR1XQBr_n07uJWRfb0yQ1LTe9Tukl4ZwaSYpAUKHG9K4goJY8MUQ5uaV2ak,,,,,,,,,,,
,,,,,,,,,,,,,,a,1,0.660445,space,0.46784,0,136,136,100,1,0_targ_1_dist_green/trial1.png,,,0,1,greenverival,a,37,20,female,2021-02-20_11h24.11.742,exp11,2020.2.6,Win32,60,IwAR1XQBr_n07uJWRfb0yQ1LTe9Tukl4ZwaSYpAUKHG9K4goJY8MUQ5uaV2ak,,,,,,,,,,,
,,,,,,,,,,,,,,a,1,0.911745,space,0.479375,0,137,137,127,1,0_targ_4_dist_green/trial3.png,,,0,4,greenverival,a,37,20,female,2021-02-20_11h24.11.742,exp11,2020.2.6,Win32,60,IwAR1XQBr_n07uJWRfb0yQ1LTe9Tukl4ZwaSYpAUKHG9K4goJY8MUQ5uaV2ak,,,,,,,,,,,
,,,,,,,,,,,,,,a,1,0.941305,space,0.41338,0,138,138,137,1,0_targ_4_dist_green/trial13.png,,,0,4,greenverival,a,37,20,female,2021-02-20_11h24.11.742,exp11,2020.2.6,Win32,60,IwAR1XQBr_n07uJWRfb0yQ1LTe9Tukl4ZwaSYpAUKHG9K4goJY8MUQ5uaV2ak,,,,,,,,,,,
,,,,,,,,,,,,,,p,1,0.8067,space,0.435445,0,139,139,11,1,0_dist_green/trial12.png,,,1,0,greenverival,p,37,20,female,2021-02-20_11h24.11.742,exp11,2020.2.6,Win32,60,IwAR1XQBr_n07uJWRfb0yQ1LTe9Tukl4ZwaSYpAUKHG9K4goJY8MUQ5uaV2ak,,,,,,,,,,,
,,,,,,,,,,,,,,a,1,0.6628,space,0.68132,0,140,140,136,1,0_targ_4_dist_green/trial12.png,,,0,4,greenverival,a,37,20,female,2021-02-20_11h24.11.742,exp11,2020.2.6,Win32,60,IwAR1XQBr_n07uJWRfb0yQ1LTe9Tukl4ZwaSYpAUKHG9K4goJY8MUQ5uaV2ak,,,,,,,,,,,
,,,,,,,,,,,,,,p,1,0.962535,space,0.72005,0,141,141,75,1,15_dist_green/trial1.png,,,1,15,greenverival,p,37,20,female,2021-02-20_11h24.11.742,exp11,2020.2.6,Win32,60,IwAR1XQBr_n07uJWRfb0yQ1LTe9Tukl4ZwaSYpAUKHG9K4goJY8MUQ5uaV2ak,,,,,,,,,,,
,,,,,,,,,,,,,,a,1,1.07952,space,0.50873,0,142,142,188,1,0_targ_16_dist_green/trial14.png,,,0,16,greenverival,a,37,20,female,2021-02-20_11h24.11.742,exp11,2020.2.6,Win32,60,IwAR1XQBr_n07uJWRfb0yQ1LTe9Tukl4ZwaSYpAUKHG9K4goJY8MUQ5uaV2ak,,,,,,,,,,,
,,,,,,,,,,,,,,p,1,3.59569,space,0.550665,0,143,143,71,1,9_dist_green/trial22.png,,,1,9,greenverival,p,37,20,female,2021-02-20_11h24.11.742,exp11,2020.2.6,Win32,60,IwAR1XQBr_n07uJWRfb0yQ1LTe9Tukl4ZwaSYpAUKHG9K4goJY8MUQ5uaV2ak,,,,,,,,,,,
,,,,,,,,,,,,,,p,1,0.70913,space,0.45172,0,144,144,42,1,3_dist_green/trial18.png,,,1,3,greenverival,p,37,20,female,2021-02-20_11h24.11.742,exp11,2020.2.6,Win32,60,IwAR1XQBr_n07uJWRfb0yQ1LTe9Tukl4ZwaSYpAUKHG9K4goJY8MUQ5uaV2ak,,,,,,,,,,,
,,,,,,,,,,,,,,p,1,1.06381,space,0.518615,0,145,145,54,1,9_dist_green/trial5.png,,,1,9,greenverival,p,37,20,female,2021-02-20_11h24.11.742,exp11,2020.2.6,Win32,60,IwAR1XQBr_n07uJWRfb0yQ1LTe9Tukl4ZwaSYpAUKHG9K4goJY8MUQ5uaV2ak,,,,,,,,,,,
,,,,,,,,,,,,,,p,1,0.78214,space,0.50643,0,146,146,0,1,0_dist_green/trial1.png,,,1,0,greenverival,p,37,20,female,2021-02-20_11h24.11.742,exp11,2020.2.6,Win32,60,IwAR1XQBr_n07uJWRfb0yQ1LTe9Tukl4ZwaSYpAUKHG9K4goJY8MUQ5uaV2ak,,,,,,,,,,,
,,,,,,,,,,,,,,p,1,0.931565,space,0.87917,0,147,147,97,1,15_dist_green/trial23.png,,,1,15,greenverival,p,37,20,female,2021-02-20_11h24.11.742,exp11,2020.2.6,Win32,60,IwAR1XQBr_n07uJWRfb0yQ1LTe9Tukl4ZwaSYpAUKHG9K4goJY8MUQ5uaV2ak,,,,,,,,,,,
,,,,,,,,,,,,,,a,1,0.77844,space,0.667015,0,148,148,107,1,0_targ_1_dist_green/trial8.png,,,0,1,greenverival,a,37,20,female,2021-02-20_11h24.11.742,exp11,2020.2.6,Win32,60,IwAR1XQBr_n07uJWRfb0yQ1LTe9Tukl4ZwaSYpAUKHG9K4goJY8MUQ5uaV2ak,,,,,,,,,,,
,,,,,,,,,,,,,,a,1,1.849705,space,0.38921,0,149,149,139,1,0_targ_4_dist_green/trial15.png,,,0,4,greenverival,a,37,20,female,2021-02-20_11h24.11.742,exp11,2020.2.6,Win32,60,IwAR1XQBr_n07uJWRfb0yQ1LTe9Tukl4ZwaSYpAUKHG9K4goJY8MUQ5uaV2ak,,,,,,,,,,,
,,,,,,,,,,,,,,p,1,3.229915,space,0.51909,0,150,150,16,1,0_dist_green/trial17.png,,,1,0,greenverival,p,37,20,female,2021-02-20_11h24.11.742,exp11,2020.2.6,Win32,60,IwAR1XQBr_n07uJWRfb0yQ1LTe9Tukl4ZwaSYpAUKHG9K4goJY8MUQ5uaV2ak,,,,,,,,,,,
,,,,,,,,,,,,,,p,1,0.749265,space,0.38268,0,151,151,69,1,9_dist_green/trial20.png,,,1,9,greenverival,p,37,20,female,2021-02-20_11h24.11.742,exp11,2020.2.6,Win32,60,IwAR1XQBr_n07uJWRfb0yQ1LTe9Tukl4ZwaSYpAUKHG9K4goJY8MUQ5uaV2ak,,,,,,,,,,,
,,,,,,,,,,,,,,p,1,1.01961,space,0.536915,0,152,152,94,1,15_dist_green/trial20.png,,,1,15,greenverival,p,37,20,female,2021-02-20_11h24.11.742,exp11,2020.2.6,Win32,60,IwAR1XQBr_n07uJWRfb0yQ1LTe9Tukl4ZwaSYpAUKHG9K4goJY8MUQ5uaV2ak,,,,,,,,,,,
,,,,,,,,,,,,,,p,1,0.82909,space,0.46709,0,153,153,63,1,9_dist_green/trial14.png,,,1,9,greenverival,p,37,20,female,2021-02-20_11h24.11.742,exp11,2020.2.6,Win32,60,IwAR1XQBr_n07uJWRfb0yQ1LTe9Tukl4ZwaSYpAUKHG9K4goJY8MUQ5uaV2ak,,,,,,,,,,,
,,,,,,,,,,,,,,p,1,0.72804,space,0.55156,0,154,154,10,1,0_dist_green/trial11.png,,,1,0,greenverival,p,37,20,female,2021-02-20_11h24.11.742,exp11,2020.2.6,Win32,60,IwAR1XQBr_n07uJWRfb0yQ1LTe9Tukl4ZwaSYpAUKHG9K4goJY8MUQ5uaV2ak,,,,,,,,,,,
,,,,,,,,,,,,,,a,1,0.81779,space,0.672715,0,155,155,195,1,0_targ_16_dist_green/trial21.png,,,0,16,greenverival,a,37,20,female,2021-02-20_11h24.11.742,exp11,2020.2.6,Win32,60,IwAR1XQBr_n07uJWRfb0yQ1LTe9Tukl4ZwaSYpAUKHG9K4goJY8MUQ5uaV2ak,,,,,,,,,,,
,,,,,,,,,,,,,,a,1,1.597045,space,0.45157,0,156,156,135,1,0_targ_4_dist_green/trial11.png,,,0,4,greenverival,a,37,20,female,2021-02-20_11h24.11.742,exp11,2020.2.6,Win32,60,IwAR1XQBr_n07uJWRfb0yQ1LTe9Tukl4ZwaSYpAUKHG9K4goJY8MUQ5uaV2ak,,,,,,,,,,,
,,,,,,,,,,,,,,p,1,0.865335,space,0.520365,0,157,157,50,1,9_dist_green/trial1.png,,,1,9,greenverival,p,37,20,female,2021-02-20_11h24.11.742,exp11,2020.2.6,Win32,60,IwAR1XQBr_n07uJWRfb0yQ1LTe9Tukl4ZwaSYpAUKHG9K4goJY8MUQ5uaV2ak,,,,,,,,,,,
,,,,,,,,,,,,,,a,1,0.964505,space,0.50955,0,158,158,170,1,0_targ_10_dist_green/trial21.png,,,0,10,greenverival,a,37,20,female,2021-02-20_11h24.11.742,exp11,2020.2.6,Win32,60,IwAR1XQBr_n07uJWRfb0yQ1LTe9Tukl4ZwaSYpAUKHG9K4goJY8MUQ5uaV2ak,,,,,,,,,,,
,,,,,,,,,,,,,,a,1,1.69882,space,0.450205,0,159,159,115,1,0_targ_1_dist_green/trial6.png,,,0,1,greenverival,a,37,20,female,2021-02-20_11h24.11.742,exp11,2020.2.6,Win32,60,IwAR1XQBr_n07uJWRfb0yQ1LTe9Tukl4ZwaSYpAUKHG9K4goJY8MUQ5uaV2ak,,,,,,,,,,,
,,,,,,,,,,,,,,a,1,0.94135,space,0.42504,0,160,160,154,1,0_targ_10_dist_green/trial5.png,,,0,10,greenverival,a,37,20,female,2021-02-20_11h24.11.742,exp11,2020.2.6,Win32,60,IwAR1XQBr_n07uJWRfb0yQ1LTe9Tukl4ZwaSYpAUKHG9K4goJY8MUQ5uaV2ak,,,,,,,,,,,
,,,,,,,,,,,,,,p,1,1.627075,space,0.411005,0,161,161,25,1,3_dist_green/trial1.png,,,1,3,greenverival,p,37,20,female,2021-02-20_11h24.11.742,exp11,2020.2.6,Win32,60,IwAR1XQBr_n07uJWRfb0yQ1LTe9Tukl4ZwaSYpAUKHG9K4goJY8MUQ5uaV2ak,,,,,,,,,,,
,,,,,,,,,,,,,,a,1,0.71624,space,0.443075,0,162,162,166,1,0_targ_10_dist_green/trial17.png,,,0,10,greenverival,a,37,20,female,2021-02-20_11h24.11.742,exp11,2020.2.6,Win32,60,IwAR1XQBr_n07uJWRfb0yQ1LTe9Tukl4ZwaSYpAUKHG9K4goJY8MUQ5uaV2ak,,,,,,,,,,,
,,,,,,,,,,,,,,p,1,0.73951,space,0.51098,0,163,163,5,1,0_dist_green/trial6.png,,,1,0,greenverival,p,37,20,female,2021-02-20_11h24.11.742,exp11,2020.2.6,Win32,60,IwAR1XQBr_n07uJWRfb0yQ1LTe9Tukl4ZwaSYpAUKHG9K4goJY8MUQ5uaV2ak,,,,,,,,,,,
,,,,,,,,,,,,,,p,1,1.073965,space,0.59778,0,164,164,96,1,15_dist_green/trial22.png,,,1,15,greenverival,p,37,20,female,2021-02-20_11h24.11.742,exp11,2020.2.6,Win32,60,IwAR1XQBr_n07uJWRfb0yQ1LTe9Tukl4ZwaSYpAUKHG9K4goJY8MUQ5uaV2ak,,,,,,,,,,,
,,,,,,,,,,,,,,p,1,0.8795,space,0.51987,0,165,165,58,1,9_dist_green/trial9.png,,,1,9,greenverival,p,37,20,female,2021-02-20_11h24.11.742,exp11,2020.2.6,Win32,60,IwAR1XQBr_n07uJWRfb0yQ1LTe9Tukl4ZwaSYpAUKHG9K4goJY8MUQ5uaV2ak,,,,,,,,,,,
,,,,,,,,,,,,,,a,1,1.11252,space,0.520595,0,166,166,124,1,0_targ_1_dist_green/trial25.png,,,0,1,greenverival,a,37,20,female,2021-02-20_11h24.11.742,exp11,2020.2.6,Win32,60,IwAR1XQBr_n07uJWRfb0yQ1LTe9Tukl4ZwaSYpAUKHG9K4goJY8MUQ5uaV2ak,,,,,,,,,,,
,,,,,,,,,,,,,,a,1,1.244625,space,0.502495,0,167,167,153,1,0_targ_10_dist_green/trial4.png,,,0,10,greenverival,a,37,20,female,2021-02-20_11h24.11.742,exp11,2020.2.6,Win32,60,IwAR1XQBr_n07uJWRfb0yQ1LTe9Tukl4ZwaSYpAUKHG9K4goJY8MUQ5uaV2ak,,,,,,,,,,,
,,,,,,,,,,,,,,p,1,1.821555,space,0.46808,0,168,168,52,1,9_dist_green/trial3.png,,,1,9,greenverival,p,37,20,female,2021-02-20_11h24.11.742,exp11,2020.2.6,Win32,60,IwAR1XQBr_n07uJWRfb0yQ1LTe9Tukl4ZwaSYpAUKHG9K4goJY8MUQ5uaV2ak,,,,,,,,,,,
,,,,,,,,,,,,,,a,1,0.824635,space,0.445765,0,169,169,172,1,0_targ_10_dist_green/trial23.png,,,0,10,greenverival,a,37,20,female,2021-02-20_11h24.11.742,exp11,2020.2.6,Win32,60,IwAR1XQBr_n07uJWRfb0yQ1LTe9Tukl4ZwaSYpAUKHG9K4goJY8MUQ5uaV2ak,,,,,,,,,,,
,,,,,,,,,,,,,,p,1,1.98837,space,0.36054,0,170,170,1,1,0_dist_green/trial2.png,,,1,0,greenverival,p,37,20,female,2021-02-20_11h24.11.742,exp11,2020.2.6,Win32,60,IwAR1XQBr_n07uJWRfb0yQ1LTe9Tukl4ZwaSYpAUKHG9K4goJY8MUQ5uaV2ak,,,,,,,,,,,
,,,,,,,,,,,,,,a,1,0.71808,space,0.444145,0,171,171,128,1,0_targ_4_dist_green/trial4.png,,,0,4,greenverival,a,37,20,female,2021-02-20_11h24.11.742,exp11,2020.2.6,Win32,60,IwAR1XQBr_n07uJWRfb0yQ1LTe9Tukl4ZwaSYpAUKHG9K4goJY8MUQ5uaV2ak,,,,,,,,,,,
,,,,,,,,,,,,,,p,1,2.248305,space,0.411285,0,172,172,93,1,15_dist_green/trial19.png,,,1,15,greenverival,p,37,20,female,2021-02-20_11h24.11.742,exp11,2020.2.6,Win32,60,IwAR1XQBr_n07uJWRfb0yQ1LTe9Tukl4ZwaSYpAUKHG9K4goJY8MUQ5uaV2ak,,,,,,,,,,,
,,,,,,,,,,,,,,a,1,2.111405,space,0.536705,0,173,173,130,1,0_targ_4_dist_green/trial6.png,,,0,4,greenverival,a,37,20,female,2021-02-20_11h24.11.742,exp11,2020.2.6,Win32,60,IwAR1XQBr_n07uJWRfb0yQ1LTe9Tukl4ZwaSYpAUKHG9K4goJY8MUQ5uaV2ak,,,,,,,,,,,
,,,,,,,,,,,,,,a,1,1.19073,space,0.45421,0,174,174,181,1,0_targ_16_dist_green/trial7.png,,,0,16,greenverival,a,37,20,female,2021-02-20_11h24.11.742,exp11,2020.2.6,Win32,60,IwAR1XQBr_n07uJWRfb0yQ1LTe9Tukl4ZwaSYpAUKHG9K4goJY8MUQ5uaV2ak,,,,,,,,,,,
,,,,,,,,,,,,,,a,1,1.87369,space,0.453125,0,175,175,120,1,0_targ_1_dist_green/trial21.png,,,0,1,greenverival,a,37,20,female,2021-02-20_11h24.11.742,exp11,2020.2.6,Win32,60,IwAR1XQBr_n07uJWRfb0yQ1LTe9Tukl4ZwaSYpAUKHG9K4goJY8MUQ5uaV2ak,,,,,,,,,,,
,,,,,,,,,,,,,,p,1,0.79261,space,0.46747,0,176,176,62,1,9_dist_green/trial13.png,,,1,9,greenverival,p,37,20,female,2021-02-20_11h24.11.742,exp11,2020.2.6,Win32,60,IwAR1XQBr_n07uJWRfb0yQ1LTe9Tukl4ZwaSYpAUKHG9K4goJY8MUQ5uaV2ak,,,,,,,,,,,
,,,,,,,,,,,,,,a,1,2.10085,space,0.47422,0,177,177,111,1,0_targ_1_dist_green/trial12.png,,,0,1,greenverival,a,37,20,female,2021-02-20_11h24.11.742,exp11,2020.2.6,Win32,60,IwAR1XQBr_n07uJWRfb0yQ1LTe9Tukl4ZwaSYpAUKHG9K4goJY8MUQ5uaV2ak,,,,,,,,,,,
,,,,,,,,,,,,,,p,1,0.76937,space,0.484685,0,178,178,84,1,15_dist_green/trial10.png,,,1,15,greenverival,p,37,20,female,2021-02-20_11h24.11.742,exp11,2020.2.6,Win32,60,IwAR1XQBr_n07uJWRfb0yQ1LTe9Tukl4ZwaSYpAUKHG9K4goJY8MUQ5uaV2ak,,,,,,,,,,,
,,,,,,,,,,,,,,a,1,0.86082,space,0.41765,0,179,179,197,1,0_targ_16_dist_green/trial23.png,,,0,16,greenverival,a,37,20,female,2021-02-20_11h24.11.742,exp11,2020.2.6,Win32,60,IwAR1XQBr_n07uJWRfb0yQ1LTe9Tukl4ZwaSYpAUKHG9K4goJY8MUQ5uaV2ak,,,,,,,,,,,
,,,,,,,,,,,,,,a,1,0.94977,space,0.42031,0,180,180,193,1,0_targ_16_dist_green/trial19.png,,,0,16,greenverival,a,37,20,female,2021-02-20_11h24.11.742,exp11,2020.2.6,Win32,60,IwAR1XQBr_n07uJWRfb0yQ1LTe9Tukl4ZwaSYpAUKHG9K4goJY8MUQ5uaV2ak,,,,,,,,,,,
,,,,,,,,,,,,,,a,1,1.400705,space,0.503615,0,181,181,134,1,0_targ_4_dist_green/trial10.png,,,0,4,greenverival,a,37,20,female,2021-02-20_11h24.11.742,exp11,2020.2.6,Win32,60,IwAR1XQBr_n07uJWRfb0yQ1LTe9Tukl4ZwaSYpAUKHG9K4goJY8MUQ5uaV2ak,,,,,,,,,,,
,,,,,,,,,,,,,,a,1,1.21399,space,0.373475,0,182,182,180,1,0_targ_16_dist_green/trial6.png,,,0,16,greenverival,a,37,20,female,2021-02-20_11h24.11.742,exp11,2020.2.6,Win32,60,IwAR1XQBr_n07uJWRfb0yQ1LTe9Tukl4ZwaSYpAUKHG9K4goJY8MUQ5uaV2ak,,,,,,,,,,,
,,,,,,,,,,,,,,a,1,1.494065,space,0.40501,0,183,183,113,1,0_targ_1_dist_green/trial14.png,,,0,1,greenverival,a,37,20,female,2021-02-20_11h24.11.742,exp11,2020.2.6,Win32,60,IwAR1XQBr_n07uJWRfb0yQ1LTe9Tukl4ZwaSYpAUKHG9K4goJY8MUQ5uaV2ak,,,,,,,,,,,
,,,,,,,,,,,,,,p,1,0.75143,space,0.375605,0,184,184,22,1,0_dist_green/trial23.png,,,1,0,greenverival,p,37,20,female,2021-02-20_11h24.11.742,exp11,2020.2.6,Win32,60,IwAR1XQBr_n07uJWRfb0yQ1LTe9Tukl4ZwaSYpAUKHG9K4goJY8MUQ5uaV2ak,,,,,,,,,,,
,,,,,,,,,,,,,,p,1,0.783555,space,0.45339,0,185,185,74,1,9_dist_green/trial25.png,,,1,9,greenverival,p,37,20,female,2021-02-20_11h24.11.742,exp11,2020.2.6,Win32,60,IwAR1XQBr_n07uJWRfb0yQ1LTe9Tukl4ZwaSYpAUKHG9K4goJY8MUQ5uaV2ak,,,,,,,,,,,
,,,,,,,,,,,,,,p,1,0.745765,space,0.43163,0,186,186,67,1,9_dist_green/trial18.png,,,1,9,greenverival,p,37,20,female,2021-02-20_11h24.11.742,exp11,2020.2.6,Win32,60,IwAR1XQBr_n07uJWRfb0yQ1LTe9Tukl4ZwaSYpAUKHG9K4goJY8MUQ5uaV2ak,,,,,,,,,,,
,,,,,,,,,,,,,,a,1,0.93416,space,0.504385,0,187,187,189,1,0_targ_16_dist_green/trial15.png,,,0,16,greenverival,a,37,20,female,2021-02-20_11h24.11.742,exp11,2020.2.6,Win32,60,IwAR1XQBr_n07uJWRfb0yQ1LTe9Tukl4ZwaSYpAUKHG9K4goJY8MUQ5uaV2ak,,,,,,,,,,,
,,,,,,,,,,,,,,a,1,0.963235,space,0.539865,0,188,188,183,1,0_targ_16_dist_green/trial9.png,,,0,16,greenverival,a,37,20,female,2021-02-20_11h24.11.742,exp11,2020.2.6,Win32,60,IwAR1XQBr_n07uJWRfb0yQ1LTe9Tukl4ZwaSYpAUKHG9K4goJY8MUQ5uaV2ak,,,,,,,,,,,
,,,,,,,,,,,,,,a,1,1.02958,space,0.460055,0,189,189,143,1,0_targ_4_dist_green/trial19.png,,,0,4,greenverival,a,37,20,female,2021-02-20_11h24.11.742,exp11,2020.2.6,Win32,60,IwAR1XQBr_n07uJWRfb0yQ1LTe9Tukl4ZwaSYpAUKHG9K4goJY8MUQ5uaV2ak,,,,,,,,,,,
,,,,,,,,,,,,,,p,1,0.862405,space,0.51869,0,190,190,81,1,15_dist_green/trial7.png,,,1,15,greenverival,p,37,20,female,2021-02-20_11h24.11.742,exp11,2020.2.6,Win32,60,IwAR1XQBr_n07uJWRfb0yQ1LTe9Tukl4ZwaSYpAUKHG9K4goJY8MUQ5uaV2ak,,,,,,,,,,,
,,,,,,,,,,,,,,a,1,1.36162,space,0.43892,0,191,191,102,1,0_targ_1_dist_green/trial3.png,,,0,1,greenverival,a,37,20,female,2021-02-20_11h24.11.742,exp11,2020.2.6,Win32,60,IwAR1XQBr_n07uJWRfb0yQ1LTe9Tukl4ZwaSYpAUKHG9K4goJY8MUQ5uaV2ak,,,,,,,,,,,
,,,,,,,,,,,,,,a,1,0.70645,space,0.54266,0,192,192,125,1,0_targ_4_dist_green/trial1.png,,,0,4,greenverival,a,37,20,female,2021-02-20_11h24.11.742,exp11,2020.2.6,Win32,60,IwAR1XQBr_n07uJWRfb0yQ1LTe9Tukl4ZwaSYpAUKHG9K4goJY8MUQ5uaV2ak,,,,,,,,,,,
,,,,,,,,,,,,,,p,1,1.13457,space,0.46566,0,193,193,38,1,3_dist_green/trial14.png,,,1,3,greenverival,p,37,20,female,2021-02-20_11h24.11.742,exp11,2020.2.6,Win32,60,IwAR1XQBr_n07uJWRfb0yQ1LTe9Tukl4ZwaSYpAUKHG9K4goJY8MUQ5uaV2ak,,,,,,,,,,,
,,,,,,,,,,,,,,a,1,0.78127,space,1.019105,0,194,194,119,1,0_targ_1_dist_green/trial20.png,,,0,1,greenverival,a,37,20,female,2021-02-20_11h24.11.742,exp11,2020.2.6,Win32,60,IwAR1XQBr_n07uJWRfb0yQ1LTe9Tukl4ZwaSYpAUKHG9K4goJY8MUQ5uaV2ak,,,,,,,,,,,
,,,,,,,,,,,,,,p,1,0.91982,space,0.65345,0,195,195,33,1,3_dist_green/trial9.png,,,1,3,greenverival,p,37,20,female,2021-02-20_11h24.11.742,exp11,2020.2.6,Win32,60,IwAR1XQBr_n07uJWRfb0yQ1LTe9Tukl4ZwaSYpAUKHG9K4goJY8MUQ5uaV2ak,,,,,,,,,,,
,,,,,,,,,,,,,,p,1,1.21218,space,0.45201,0,196,196,7,1,0_dist_green/trial8.png,,,1,0,greenverival,p,37,20,female,2021-02-20_11h24.11.742,exp11,2020.2.6,Win32,60,IwAR1XQBr_n07uJWRfb0yQ1LTe9Tukl4ZwaSYpAUKHG9K4goJY8MUQ5uaV2ak,,,,,,,,,,,
,,,,,,,,,,,,,,a,1,0.7092,space,0.5166,0,197,197,108,1,0_targ_1_dist_green/trial9.png,,,0,1,greenverival,a,37,20,female,2021-02-20_11h24.11.742,exp11,2020.2.6,Win32,60,IwAR1XQBr_n07uJWRfb0yQ1LTe9Tukl4ZwaSYpAUKHG9K4goJY8MUQ5uaV2ak,,,,,,,,,,,
,,,,,,,,,,,,,,a,1,0.704575,space,0.4538,0,198,198,122,1,0_targ_1_dist_green/trial23.png,,,0,1,greenverival,a,37,20,female,2021-02-20_11h24.11.742,exp11,2020.2.6,Win32,60,IwAR1XQBr_n07uJWRfb0yQ1LTe9Tukl4ZwaSYpAUKHG9K4goJY8MUQ5uaV2ak,,,,,,,,,,,
,,,,,,,,,,,,,,a,1,1.39599,space,0.435575,0,199,199,164,1,0_targ_10_dist_green/trial15.png,,,0,10,greenverival,a,37,20,female,2021-02-20_11h24.11.742,exp11,2020.2.6,Win32,60,IwAR1XQBr_n07uJWRfb0yQ1LTe9Tukl4ZwaSYpAUKHG9K4goJY8MUQ5uaV2ak,,,,,,,,,,,
,,,,,,,,,,,,,,,,,,,,,,,,,,,,,,,37,20,female,2021-02-20_11h24.11.742,exp11,2020.2.6,Win32,60,IwAR1XQBr_n07uJWRfb0yQ1LTe9Tukl4ZwaSYpAUKHG9K4goJY8MUQ5uaV2ak,0,0,0,0,1,conGreen.xlsx,green vertical,Look for green vertical bar (target) and indicate if it is present or absent in the array. If green vertical target is present press 'p' and if absent press 'a'. Press SPACE to start.,,,
,,,,,,,,,,space,11.810075,space,2.637455,p,1,1.492895,space,0.42616,0,0,0,76,1,15_dist_red/trial2.png,,,1,15,redHorizontal,p,37,20,female,2021-02-20_11h24.11.742,exp11,2020.2.6,Win32,60,IwAR1XQBr_n07uJWRfb0yQ1LTe9Tukl4ZwaSYpAUKHG9K4goJY8MUQ5uaV2ak,,,,,,,,,,,
,,,,,,,,,,,,,,p,1,0.650885,space,0.45769,0,1,1,2,1,0_dist_red/trial3.png,,,1,0,redHorizontal,p,37,20,female,2021-02-20_11h24.11.742,exp11,2020.2.6,Win32,60,IwAR1XQBr_n07uJWRfb0yQ1LTe9Tukl4ZwaSYpAUKHG9K4goJY8MUQ5uaV2ak,,,,,,,,,,,
,,,,,,,,,,,,,,a,1,0.86355,space,0.46754,0,2,2,127,1,0_targ_4_dist_red/trial3.png,,,0,4,redHorizontal,a,37,20,female,2021-02-20_11h24.11.742,exp11,2020.2.6,Win32,60,IwAR1XQBr_n07uJWRfb0yQ1LTe9Tukl4ZwaSYpAUKHG9K4goJY8MUQ5uaV2ak,,,,,,,,,,,
,,,,,,,,,,,,,,p,1,1.491005,space,0.41325,0,3,3,57,1,9_dist_red/trial8.png,,,1,9,redHorizontal,p,37,20,female,2021-02-20_11h24.11.742,exp11,2020.2.6,Win32,60,IwAR1XQBr_n07uJWRfb0yQ1LTe9Tukl4ZwaSYpAUKHG9K4goJY8MUQ5uaV2ak,,,,,,,,,,,
,,,,,,,,,,,,,,a,1,1.972185,space,0.4257,0,4,4,192,1,0_targ_16_dist_red/trial18.png,,,0,16,redHorizontal,a,37,20,female,2021-02-20_11h24.11.742,exp11,2020.2.6,Win32,60,IwAR1XQBr_n07uJWRfb0yQ1LTe9Tukl4ZwaSYpAUKHG9K4goJY8MUQ5uaV2ak,,,,,,,,,,,
,,,,,,,,,,,,,,a,1,0.77966,space,0.41942,0,5,5,166,1,0_targ_10_dist_red/trial17.png,,,0,10,redHorizontal,a,37,20,female,2021-02-20_11h24.11.742,exp11,2020.2.6,Win32,60,IwAR1XQBr_n07uJWRfb0yQ1LTe9Tukl4ZwaSYpAUKHG9K4goJY8MUQ5uaV2ak,,,,,,,,,,,
,,,,,,,,,,,,,,p,1,0.723135,space,0.46784,0,6,6,71,1,9_dist_red/trial22.png,,,1,9,redHorizontal,p,37,20,female,2021-02-20_11h24.11.742,exp11,2020.2.6,Win32,60,IwAR1XQBr_n07uJWRfb0yQ1LTe9Tukl4ZwaSYpAUKHG9K4goJY8MUQ5uaV2ak,,,,,,,,,,,
,,,,,,,,,,,,,,p,1,0.607965,space,0.457575,0,7,7,18,1,0_dist_red/trial19.png,,,1,0,redHorizontal,p,37,20,female,2021-02-20_11h24.11.742,exp11,2020.2.6,Win32,60,IwAR1XQBr_n07uJWRfb0yQ1LTe9Tukl4ZwaSYpAUKHG9K4goJY8MUQ5uaV2ak,,,,,,,,,,,
,,,,,,,,,,,,,,a,1,0.70989,space,0.486245,0,8,8,107,1,0_targ_1_dist_red/trial8.png,,,0,1,redHorizontal,a,37,20,female,2021-02-20_11h24.11.742,exp11,2020.2.6,Win32,60,IwAR1XQBr_n07uJWRfb0yQ1LTe9Tukl4ZwaSYpAUKHG9K4goJY8MUQ5uaV2ak,,,,,,,,,,,
,,,,,,,,,,,,,,a,1,0.65331,space,0.432305,0,9,9,139,1,0_targ_4_dist_red/trial15.png,,,0,4,redHorizontal,a,37,20,female,2021-02-20_11h24.11.742,exp11,2020.2.6,Win32,60,IwAR1XQBr_n07uJWRfb0yQ1LTe9Tukl4ZwaSYpAUKHG9K4goJY8MUQ5uaV2ak,,,,,,,,,,,
,,,,,,,,,,,,,,a,1,0.77013,space,0.43086,0,10,10,137,1,0_targ_4_dist_red/trial13.png,,,0,4,redHorizontal,a,37,20,female,2021-02-20_11h24.11.742,exp11,2020.2.6,Win32,60,IwAR1XQBr_n07uJWRfb0yQ1LTe9Tukl4ZwaSYpAUKHG9K4goJY8MUQ5uaV2ak,,,,,,,,,,,
,,,,,,,,,,,,,,p,1,0.58813,space,0.43491,0,11,11,67,1,9_dist_red/trial18.png,,,1,9,redHorizontal,p,37,20,female,2021-02-20_11h24.11.742,exp11,2020.2.6,Win32,60,IwAR1XQBr_n07uJWRfb0yQ1LTe9Tukl4ZwaSYpAUKHG9K4goJY8MUQ5uaV2ak,,,,,,,,,,,
,,,,,,,,,,,,,,p,1,0.632955,space,0.418145,0,12,12,14,1,0_dist_red/trial15.png,,,1,0,redHorizontal,p,37,20,female,2021-02-20_11h24.11.742,exp11,2020.2.6,Win32,60,IwAR1XQBr_n07uJWRfb0yQ1LTe9Tukl4ZwaSYpAUKHG9K4goJY8MUQ5uaV2ak,,,,,,,,,,,
,,,,,,,,,,,,,,p,1,0.895965,space,0.45407,0,13,13,26,1,3_dist_red/trial2.png,,,1,3,redHorizontal,p,37,20,female,2021-02-20_11h24.11.742,exp11,2020.2.6,Win32,60,IwAR1XQBr_n07uJWRfb0yQ1LTe9Tukl4ZwaSYpAUKHG9K4goJY8MUQ5uaV2ak,,,,,,,,,,,
,,,,,,,,,,,,,,p,1,0.65237,space,0.39308,0,14,14,92,1,15_dist_red/trial18.png,,,1,15,redHorizontal,p,37,20,female,2021-02-20_11h24.11.742,exp11,2020.2.6,Win32,60,IwAR1XQBr_n07uJWRfb0yQ1LTe9Tukl4ZwaSYpAUKHG9K4goJY8MUQ5uaV2ak,,,,,,,,,,,
,,,,,,,,,,,,,,a,1,1.0808,space,0.45003,0,15,15,150,1,0_targ_10_dist_red/trial1.png,,,0,10,redHorizontal,a,37,20,female,2021-02-20_11h24.11.742,exp11,2020.2.6,Win32,60,IwAR1XQBr_n07uJWRfb0yQ1LTe9Tukl4ZwaSYpAUKHG9K4goJY8MUQ5uaV2ak,,,,,,,,,,,
,,,,,,,,,,,,,,p,1,1.059865,space,0.40707,0,16,16,49,1,3_dist_red/trial25.png,,,1,3,redHorizontal,p,37,20,female,2021-02-20_11h24.11.742,exp11,2020.2.6,Win32,60,IwAR1XQBr_n07uJWRfb0yQ1LTe9Tukl4ZwaSYpAUKHG9K4goJY8MUQ5uaV2ak,,,,,,,,,,,
,,,,,,,,,,,,,,a,1,0.75763,space,0.42702,0,17,17,116,1,0_targ_1_dist_red/trial17.png,,,0,1,redHorizontal,a,37,20,female,2021-02-20_11h24.11.742,exp11,2020.2.6,Win32,60,IwAR1XQBr_n07uJWRfb0yQ1LTe9Tukl4ZwaSYpAUKHG9K4goJY8MUQ5uaV2ak,,,,,,,,,,,
,,,,,,,,,,,,,,p,1,1.296125,space,0.4129,0,18,18,89,1,15_dist_red/trial15.png,,,1,15,redHorizontal,p,37,20,female,2021-02-20_11h24.11.742,exp11,2020.2.6,Win32,60,IwAR1XQBr_n07uJWRfb0yQ1LTe9Tukl4ZwaSYpAUKHG9K4goJY8MUQ5uaV2ak,,,,,,,,,,,
,,,,,,,,,,,,,,p,1,0.70524,space,0.67155,0,19,19,16,1,0_dist_red/trial17.png,,,1,0,redHorizontal,p,37,20,female,2021-02-20_11h24.11.742,exp11,2020.2.6,Win32,60,IwAR1XQBr_n07uJWRfb0yQ1LTe9Tukl4ZwaSYpAUKHG9K4goJY8MUQ5uaV2ak,,,,,,,,,,,
,,,,,,,,,,,,,,a,1,1.14616,space,0.425545,0,20,20,159,1,0_targ_10_dist_red/trial10.png,,,0,10,redHorizontal,a,37,20,female,2021-02-20_11h24.11.742,exp11,2020.2.6,Win32,60,IwAR1XQBr_n07uJWRfb0yQ1LTe9Tukl4ZwaSYpAUKHG9K4goJY8MUQ5uaV2ak,,,,,,,,,,,
,,,,,,,,,,,,,,p,1,0.579835,space,0.423445,0,21,21,72,1,9_dist_red/trial23.png,,,1,9,redHorizontal,p,37,20,female,2021-02-20_11h24.11.742,exp11,2020.2.6,Win32,60,IwAR1XQBr_n07uJWRfb0yQ1LTe9Tukl4ZwaSYpAUKHG9K4goJY8MUQ5uaV2ak,,,,,,,,,,,
,,,,,,,,,,,,,,p,1,0.643985,space,0.402685,0,22,22,24,1,0_dist_red/trial25.png,,,1,0,redHorizontal,p,37,20,female,2021-02-20_11h24.11.742,exp11,2020.2.6,Win32,60,IwAR1XQBr_n07uJWRfb0yQ1LTe9Tukl4ZwaSYpAUKHG9K4goJY8MUQ5uaV2ak,,,,,,,,,,,
,,,,,,,,,,,,,,a,0,0.808445,space,0.544635,0,23,23,47,1,3_dist_red/trial23.png,,,1,3,redHorizontal,p,37,20,female,2021-02-20_11h24.11.742,exp11,2020.2.6,Win32,60,IwAR1XQBr_n07uJWRfb0yQ1LTe9Tukl4ZwaSYpAUKHG9K4goJY8MUQ5uaV2ak,,,,,,,,,,,
,,,,,,,,,,,,,,a,1,1.431535,space,0.503225,0,24,24,146,1,0_targ_4_dist_red/trial22.png,,,0,4,redHorizontal,a,37,20,female,2021-02-20_11h24.11.742,exp11,2020.2.6,Win32,60,IwAR1XQBr_n07uJWRfb0yQ1LTe9Tukl4ZwaSYpAUKHG9K4goJY8MUQ5uaV2ak,,,,,,,,,,,
,,,,,,,,,,,,,,p,1,0.68589,space,0.37071,0,25,25,83,1,15_dist_red/trial9.png,,,1,15,redHorizontal,p,37,20,female,2021-02-20_11h24.11.742,exp11,2020.2.6,Win32,60,IwAR1XQBr_n07uJWRfb0yQ1LTe9Tukl4ZwaSYpAUKHG9K4goJY8MUQ5uaV2ak,,,,,,,,,,,
,,,,,,,,,,,,,,p,1,0.82015,space,0.32113,0,26,26,54,1,9_dist_red/trial5.png,,,1,9,redHorizontal,p,37,20,female,2021-02-20_11h24.11.742,exp11,2020.2.6,Win32,60,IwAR1XQBr_n07uJWRfb0yQ1LTe9Tukl4ZwaSYpAUKHG9K4goJY8MUQ5uaV2ak,,,,,,,,,,,
,,,,,,,,,,,,,,a,1,0.92946,space,0.274745,0,27,27,174,1,0_targ_10_dist_red/trial25.png,,,0,10,redHorizontal,a,37,20,female,2021-02-20_11h24.11.742,exp11,2020.2.6,Win32,60,IwAR1XQBr_n07uJWRfb0yQ1LTe9Tukl4ZwaSYpAUKHG9K4goJY8MUQ5uaV2ak,,,,,,,,,,,
,,,,,,,,,,,,,,a,1,0.89351,space,0.367545,0,28,28,110,1,0_targ_1_dist_red/trial11.png,,,0,1,redHorizontal,a,37,20,female,2021-02-20_11h24.11.742,exp11,2020.2.6,Win32,60,IwAR1XQBr_n07uJWRfb0yQ1LTe9Tukl4ZwaSYpAUKHG9K4goJY8MUQ5uaV2ak,,,,,,,,,,,
,,,,,,,,,,,,,,a,1,0.80681,space,0.30226,0,29,29,190,1,0_targ_16_dist_red/trial16.png,,,0,16,redHorizontal,a,37,20,female,2021-02-20_11h24.11.742,exp11,2020.2.6,Win32,60,IwAR1XQBr_n07uJWRfb0yQ1LTe9Tukl4ZwaSYpAUKHG9K4goJY8MUQ5uaV2ak,,,,,,,,,,,
,,,,,,,,,,,,,,a,1,0.7021,space,0.425635,0,30,30,131,1,0_targ_4_dist_red/trial7.png,,,0,4,redHorizontal,a,37,20,female,2021-02-20_11h24.11.742,exp11,2020.2.6,Win32,60,IwAR1XQBr_n07uJWRfb0yQ1LTe9Tukl4ZwaSYpAUKHG9K4goJY8MUQ5uaV2ak,,,,,,,,,,,
,,,,,,,,,,,,,,p,1,0.735985,space,0.42722,0,31,31,29,1,3_dist_red/trial5.png,,,1,3,redHorizontal,p,37,20,female,2021-02-20_11h24.11.742,exp11,2020.2.6,Win32,60,IwAR1XQBr_n07uJWRfb0yQ1LTe9Tukl4ZwaSYpAUKHG9K4goJY8MUQ5uaV2ak,,,,,,,,,,,
,,,,,,,,,,,,,,p,1,0.803495,space,0.418065,0,32,32,6,1,0_dist_red/trial7.png,,,1,0,redHorizontal,p,37,20,female,2021-02-20_11h24.11.742,exp11,2020.2.6,Win32,60,IwAR1XQBr_n07uJWRfb0yQ1LTe9Tukl4ZwaSYpAUKHG9K4goJY8MUQ5uaV2ak,,,,,,,,,,,
,,,,,,,,,,,,,,p,1,0.764455,space,0.40243,0,33,33,91,1,15_dist_red/trial17.png,,,1,15,redHorizontal,p,37,20,female,2021-02-20_11h24.11.742,exp11,2020.2.6,Win32,60,IwAR1XQBr_n07uJWRfb0yQ1LTe9Tukl4ZwaSYpAUKHG9K4goJY8MUQ5uaV2ak,,,,,,,,,,,
,,,,,,,,,,,,,,a,1,0.847255,space,0.439975,0,34,34,165,1,0_targ_10_dist_red/trial16.png,,,0,10,redHorizontal,a,37,20,female,2021-02-20_11h24.11.742,exp11,2020.2.6,Win32,60,IwAR1XQBr_n07uJWRfb0yQ1LTe9Tukl4ZwaSYpAUKHG9K4goJY8MUQ5uaV2ak,,,,,,,,,,,
,,,,,,,,,,,,,,p,1,0.58897,space,0.5367,0,35,35,20,1,0_dist_red/trial21.png,,,1,0,redHorizontal,p,37,20,female,2021-02-20_11h24.11.742,exp11,2020.2.6,Win32,60,IwAR1XQBr_n07uJWRfb0yQ1LTe9Tukl4ZwaSYpAUKHG9K4goJY8MUQ5uaV2ak,,,,,,,,,,,
,,,,,,,,,,,,,,a,1,0.73491,space,0.469555,0,36,36,144,1,0_targ_4_dist_red/trial20.png,,,0,4,redHorizontal,a,37,20,female,2021-02-20_11h24.11.742,exp11,2020.2.6,Win32,60,IwAR1XQBr_n07uJWRfb0yQ1LTe9Tukl4ZwaSYpAUKHG9K4goJY8MUQ5uaV2ak,,,,,,,,,,,
,,,,,,,,,,,,,,a,1,1.26594,space,0.486965,0,37,37,160,1,0_targ_10_dist_red/trial11.png,,,0,10,redHorizontal,a,37,20,female,2021-02-20_11h24.11.742,exp11,2020.2.6,Win32,60,IwAR1XQBr_n07uJWRfb0yQ1LTe9Tukl4ZwaSYpAUKHG9K4goJY8MUQ5uaV2ak,,,,,,,,,,,
,,,,,,,,,,,,,,p,1,0.71399,space,0.524135,0,38,38,17,1,0_dist_red/trial18.png,,,1,0,redHorizontal,p,37,20,female,2021-02-20_11h24.11.742,exp11,2020.2.6,Win32,60,IwAR1XQBr_n07uJWRfb0yQ1LTe9Tukl4ZwaSYpAUKHG9K4goJY8MUQ5uaV2ak,,,,,,,,,,,
,,,,,,,,,,,,,,p,1,1.157415,space,0.49447,0,39,39,78,1,15_dist_red/trial4.png,,,1,15,redHorizontal,p,37,20,female,2021-02-20_11h24.11.742,exp11,2020.2.6,Win32,60,IwAR1XQBr_n07uJWRfb0yQ1LTe9Tukl4ZwaSYpAUKHG9K4goJY8MUQ5uaV2ak,,,,,,,,,,,
,,,,,,,,,,,,,,p,1,0.85621,space,0.52367,0,40,40,97,1,15_dist_red/trial23.png,,,1,15,redHorizontal,p,37,20,female,2021-02-20_11h24.11.742,exp11,2020.2.6,Win32,60,IwAR1XQBr_n07uJWRfb0yQ1LTe9Tukl4ZwaSYpAUKHG9K4goJY8MUQ5uaV2ak,,,,,,,,,,,
,,,,,,,,,,,,,,p,1,1.08248,space,0.43576,0,41,41,63,1,9_dist_red/trial14.png,,,1,9,redHorizontal,p,37,20,female,2021-02-20_11h24.11.742,exp11,2020.2.6,Win32,60,IwAR1XQBr_n07uJWRfb0yQ1LTe9Tukl4ZwaSYpAUKHG9K4goJY8MUQ5uaV2ak,,,,,,,,,,,
,,,,,,,,,,,,,,a,1,0.888585,space,0.47613,0,42,42,183,1,0_targ_16_dist_red/trial9.png,,,0,16,redHorizontal,a,37,20,female,2021-02-20_11h24.11.742,exp11,2020.2.6,Win32,60,IwAR1XQBr_n07uJWRfb0yQ1LTe9Tukl4ZwaSYpAUKHG9K4goJY8MUQ5uaV2ak,,,,,,,,,,,
,,,,,,,,,,,,,,a,1,1.698625,space,0.436225,0,43,43,148,1,0_targ_4_dist_red/trial24.png,,,0,4,redHorizontal,a,37,20,female,2021-02-20_11h24.11.742,exp11,2020.2.6,Win32,60,IwAR1XQBr_n07uJWRfb0yQ1LTe9Tukl4ZwaSYpAUKHG9K4goJY8MUQ5uaV2ak,,,,,,,,,,,
,,,,,,,,,,,,,,a,1,0.83299,space,0.35904,0,44,44,189,1,0_targ_16_dist_red/trial15.png,,,0,16,redHorizontal,a,37,20,female,2021-02-20_11h24.11.742,exp11,2020.2.6,Win32,60,IwAR1XQBr_n07uJWRfb0yQ1LTe9Tukl4ZwaSYpAUKHG9K4goJY8MUQ5uaV2ak,,,,,,,,,,,
,,,,,,,,,,,,,,p,1,0.77309,space,0.38961,0,45,45,7,1,0_dist_red/trial8.png,,,1,0,redHorizontal,p,37,20,female,2021-02-20_11h24.11.742,exp11,2020.2.6,Win32,60,IwAR1XQBr_n07uJWRfb0yQ1LTe9Tukl4ZwaSYpAUKHG9K4goJY8MUQ5uaV2ak,,,,,,,,,,,
,,,,,,,,,,,,,,a,1,1.00542,space,0.402405,0,46,46,181,1,0_targ_16_dist_red/trial7.png,,,0,16,redHorizontal,a,37,20,female,2021-02-20_11h24.11.742,exp11,2020.2.6,Win32,60,IwAR1XQBr_n07uJWRfb0yQ1LTe9Tukl4ZwaSYpAUKHG9K4goJY8MUQ5uaV2ak,,,,,,,,,,,
,,,,,,,,,,,,,,p,1,0.922705,space,0.33455,0,47,47,12,1,0_dist_red/trial13.png,,,1,0,redHorizontal,p,37,20,female,2021-02-20_11h24.11.742,exp11,2020.2.6,Win32,60,IwAR1XQBr_n07uJWRfb0yQ1LTe9Tukl4ZwaSYpAUKHG9K4goJY8MUQ5uaV2ak,,,,,,,,,,,
,,,,,,,,,,,,,,p,1,0.709955,space,0.43858,0,48,48,32,1,3_dist_red/trial8.png,,,1,3,redHorizontal,p,37,20,female,2021-02-20_11h24.11.742,exp11,2020.2.6,Win32,60,IwAR1XQBr_n07uJWRfb0yQ1LTe9Tukl4ZwaSYpAUKHG9K4goJY8MUQ5uaV2ak,,,,,,,,,,,
,,,,,,,,,,,,,,p,1,0.795515,space,0.37105,0,49,49,73,1,9_dist_red/trial24.png,,,1,9,redHorizontal,p,37,20,female,2021-02-20_11h24.11.742,exp11,2020.2.6,Win32,60,IwAR1XQBr_n07uJWRfb0yQ1LTe9Tukl4ZwaSYpAUKHG9K4goJY8MUQ5uaV2ak,,,,,,,,,,,
,,,,,,,,,,,,,,a,0,1.061075,space,0.09803,0,50,50,55,1,9_dist_red/trial6.png,,,1,9,redHorizontal,p,37,20,female,2021-02-20_11h24.11.742,exp11,2020.2.6,Win32,60,IwAR1XQBr_n07uJWRfb0yQ1LTe9Tukl4ZwaSYpAUKHG9K4goJY8MUQ5uaV2ak,,,,,,,,,,,
,,,,,,,,,,,,,,a,1,3.82271,space,0.367325,0,51,51,180,1,0_targ_16_dist_red/trial6.png,,,0,16,redHorizontal,a,37,20,female,2021-02-20_11h24.11.742,exp11,2020.2.6,Win32,60,IwAR1XQBr_n07uJWRfb0yQ1LTe9Tukl4ZwaSYpAUKHG9K4goJY8MUQ5uaV2ak,,,,,,,,,,,
,,,,,,,,,,,,,,a,1,0.88011,space,0.359185,0,52,52,197,1,0_targ_16_dist_red/trial23.png,,,0,16,redHorizontal,a,37,20,female,2021-02-20_11h24.11.742,exp11,2020.2.6,Win32,60,IwAR1XQBr_n07uJWRfb0yQ1LTe9Tukl4ZwaSYpAUKHG9K4goJY8MUQ5uaV2ak,,,,,,,,,,,
,,,,,,,,,,,,,,a,1,0.866885,space,0.38716,0,53,53,196,1,0_targ_16_dist_red/trial22.png,,,0,16,redHorizontal,a,37,20,female,2021-02-20_11h24.11.742,exp11,2020.2.6,Win32,60,IwAR1XQBr_n07uJWRfb0yQ1LTe9Tukl4ZwaSYpAUKHG9K4goJY8MUQ5uaV2ak,,,,,,,,,,,
,,,,,,,,,,,,,,p,1,0.76646,space,0.37746,0,54,54,51,1,9_dist_red/trial2.png,,,1,9,redHorizontal,p,37,20,female,2021-02-20_11h24.11.742,exp11,2020.2.6,Win32,60,IwAR1XQBr_n07uJWRfb0yQ1LTe9Tukl4ZwaSYpAUKHG9K4goJY8MUQ5uaV2ak,,,,,,,,,,,
,,,,,,,,,,,,,,p,1,0.6963,space,0.405485,0,55,55,87,1,15_dist_red/trial13.png,,,1,15,redHorizontal,p,37,20,female,2021-02-20_11h24.11.742,exp11,2020.2.6,Win32,60,IwAR1XQBr_n07uJWRfb0yQ1LTe9Tukl4ZwaSYpAUKHG9K4goJY8MUQ5uaV2ak,,,,,,,,,,,
,,,,,,,,,,,,,,p,1,0.698485,space,0.385375,0,56,56,8,1,0_dist_red/trial9.png,,,1,0,redHorizontal,p,37,20,female,2021-02-20_11h24.11.742,exp11,2020.2.6,Win32,60,IwAR1XQBr_n07uJWRfb0yQ1LTe9Tukl4ZwaSYpAUKHG9K4goJY8MUQ5uaV2ak,,,,,,,,,,,
,,,,,,,,,,,,,,p,1,0.974715,space,0.392815,0,57,57,21,1,0_dist_red/trial22.png,,,1,0,redHorizontal,p,37,20,female,2021-02-20_11h24.11.742,exp11,2020.2.6,Win32,60,IwAR1XQBr_n07uJWRfb0yQ1LTe9Tukl4ZwaSYpAUKHG9K4goJY8MUQ5uaV2ak,,,,,,,,,,,
,,,,,,,,,,,,,,a,1,0.71665,space,0.401535,0,58,58,152,1,0_targ_10_dist_red/trial3.png,,,0,10,redHorizontal,a,37,20,female,2021-02-20_11h24.11.742,exp11,2020.2.6,Win32,60,IwAR1XQBr_n07uJWRfb0yQ1LTe9Tukl4ZwaSYpAUKHG9K4goJY8MUQ5uaV2ak,,,,,,,,,,,
,,,,,,,,,,,,,,a,1,0.95151,space,0.43242,0,59,59,187,1,0_targ_16_dist_red/trial13.png,,,0,16,redHorizontal,a,37,20,female,2021-02-20_11h24.11.742,exp11,2020.2.6,Win32,60,IwAR1XQBr_n07uJWRfb0yQ1LTe9Tukl4ZwaSYpAUKHG9K4goJY8MUQ5uaV2ak,,,,,,,,,,,
,,,,,,,,,,,,,,a,1,0.69618,space,0.37397,0,60,60,140,1,0_targ_4_dist_red/trial6.png,,,0,4,redHorizontal,a,37,20,female,2021-02-20_11h24.11.742,exp11,2020.2.6,Win32,60,IwAR1XQBr_n07uJWRfb0yQ1LTe9Tukl4ZwaSYpAUKHG9K4goJY8MUQ5uaV2ak,,,,,,,,,,,
,,,,,,,,,,,,,,p,1,0.613905,space,0.402965,0,61,61,68,1,9_dist_red/trial19.png,,,1,9,redHorizontal,p,37,20,female,2021-02-20_11h24.11.742,exp11,2020.2.6,Win32,60,IwAR1XQBr_n07uJWRfb0yQ1LTe9Tukl4ZwaSYpAUKHG9K4goJY8MUQ5uaV2ak,,,,,,,,,,,
,,,,,,,,,,,,,,a,1,0.892335,space,0.368915,0,62,62,126,1,0_targ_4_dist_red/trial2.png,,,0,4,redHorizontal,a,37,20,female,2021-02-20_11h24.11.742,exp11,2020.2.6,Win32,60,IwAR1XQBr_n07uJWRfb0yQ1LTe9Tukl4ZwaSYpAUKHG9K4goJY8MUQ5uaV2ak,,,,,,,,,,,
,,,,,,,,,,,,,,p,1,0.72118,space,0.327235,0,63,63,64,1,9_dist_red/trial15.png,,,1,9,redHorizontal,p,37,20,female,2021-02-20_11h24.11.742,exp11,2020.2.6,Win32,60,IwAR1XQBr_n07uJWRfb0yQ1LTe9Tukl4ZwaSYpAUKHG9K4goJY8MUQ5uaV2ak,,,,,,,,,,,
,,,,,,,,,,,,,,a,1,0.759215,space,0.378315,0,64,64,102,1,0_targ_1_dist_red/trial3.png,,,0,1,redHorizontal,a,37,20,female,2021-02-20_11h24.11.742,exp11,2020.2.6,Win32,60,IwAR1XQBr_n07uJWRfb0yQ1LTe9Tukl4ZwaSYpAUKHG9K4goJY8MUQ5uaV2ak,,,,,,,,,,,
,,,,,,,,,,,,,,p,1,1.064905,space,0.30716,0,65,65,36,1,3_dist_red/trial12.png,,,1,3,redHorizontal,p,37,20,female,2021-02-20_11h24.11.742,exp11,2020.2.6,Win32,60,IwAR1XQBr_n07uJWRfb0yQ1LTe9Tukl4ZwaSYpAUKHG9K4goJY8MUQ5uaV2ak,,,,,,,,,,,
,,,,,,,,,,,,,,p,1,0.653215,space,0.438185,0,66,66,44,1,3_dist_red/trial20.png,,,1,3,redHorizontal,p,37,20,female,2021-02-20_11h24.11.742,exp11,2020.2.6,Win32,60,IwAR1XQBr_n07uJWRfb0yQ1LTe9Tukl4ZwaSYpAUKHG9K4goJY8MUQ5uaV2ak,,,,,,,,,,,
,,,,,,,,,,,,,,p,1,0.83693,space,0.457185,0,67,67,90,1,15_dist_red/trial16.png,,,1,15,redHorizontal,p,37,20,female,2021-02-20_11h24.11.742,exp11,2020.2.6,Win32,60,IwAR1XQBr_n07uJWRfb0yQ1LTe9Tukl4ZwaSYpAUKHG9K4goJY8MUQ5uaV2ak,,,,,,,,,,,
,,,,,,,,,,,,,,a,1,0.753185,space,0.37307,0,68,68,105,1,0_targ_1_dist_red/trial6.png,,,0,1,redHorizontal,a,37,20,female,2021-02-20_11h24.11.742,exp11,2020.2.6,Win32,60,IwAR1XQBr_n07uJWRfb0yQ1LTe9Tukl4ZwaSYpAUKHG9K4goJY8MUQ5uaV2ak,,,,,,,,,,,
,,,,,,,,,,,,,,a,1,0.89781,space,0.477585,0,69,69,176,1,0_targ_16_dist_red/trial2.png,,,0,16,redHorizontal,a,37,20,female,2021-02-20_11h24.11.742,exp11,2020.2.6,Win32,60,IwAR1XQBr_n07uJWRfb0yQ1LTe9Tukl4ZwaSYpAUKHG9K4goJY8MUQ5uaV2ak,,,,,,,,,,,
,,,,,,,,,,,,,,a,1,0.798755,space,0.33549,0,70,70,154,1,0_targ_10_dist_red/trial5.png,,,0,10,redHorizontal,a,37,20,female,2021-02-20_11h24.11.742,exp11,2020.2.6,Win32,60,IwAR1XQBr_n07uJWRfb0yQ1LTe9Tukl4ZwaSYpAUKHG9K4goJY8MUQ5uaV2ak,,,,,,,,,,,
,,,,,,,,,,,,,,a,1,0.686225,space,0.37818,0,71,71,115,1,0_targ_1_dist_red/trial6.png,,,0,1,redHorizontal,a,37,20,female,2021-02-20_11h24.11.742,exp11,2020.2.6,Win32,60,IwAR1XQBr_n07uJWRfb0yQ1LTe9Tukl4ZwaSYpAUKHG9K4goJY8MUQ5uaV2ak,,,,,,,,,,,
,,,,,,,,,,,,,,a,1,0.77742,space,0.32286,0,72,72,171,1,0_targ_10_dist_red/trial22.png,,,0,10,redHorizontal,a,37,20,female,2021-02-20_11h24.11.742,exp11,2020.2.6,Win32,60,IwAR1XQBr_n07uJWRfb0yQ1LTe9Tukl4ZwaSYpAUKHG9K4goJY8MUQ5uaV2ak,,,,,,,,,,,
,,,,,,,,,,,,,,p,1,0.84685,space,0.36646,0,73,73,79,1,15_dist_red/trial5.png,,,1,15,redHorizontal,p,37,20,female,2021-02-20_11h24.11.742,exp11,2020.2.6,Win32,60,IwAR1XQBr_n07uJWRfb0yQ1LTe9Tukl4ZwaSYpAUKHG9K4goJY8MUQ5uaV2ak,,,,,,,,,,,
,,,,,,,,,,,,,,p,1,0.73288,space,0.31993,0,74,74,66,1,9_dist_red/trial17.png,,,1,9,redHorizontal,p,37,20,female,2021-02-20_11h24.11.742,exp11,2020.2.6,Win32,60,IwAR1XQBr_n07uJWRfb0yQ1LTe9Tukl4ZwaSYpAUKHG9K4goJY8MUQ5uaV2ak,,,,,,,,,,,
,,,,,,,,,,,,,,a,1,0.669885,space,0.386485,0,75,75,101,1,0_targ_1_dist_red/trial2.png,,,0,1,redHorizontal,a,37,20,female,2021-02-20_11h24.11.742,exp11,2020.2.6,Win32,60,IwAR1XQBr_n07uJWRfb0yQ1LTe9Tukl4ZwaSYpAUKHG9K4goJY8MUQ5uaV2ak,,,,,,,,,,,
,,,,,,,,,,,,,,a,1,0.77204,space,0.35742,0,76,76,164,1,0_targ_10_dist_red/trial15.png,,,0,10,redHorizontal,a,37,20,female,2021-02-20_11h24.11.742,exp11,2020.2.6,Win32,60,IwAR1XQBr_n07uJWRfb0yQ1LTe9Tukl4ZwaSYpAUKHG9K4goJY8MUQ5uaV2ak,,,,,,,,,,,
,,,,,,,,,,,,,,a,1,0.886615,space,0.377735,0,77,77,162,1,0_targ_10_dist_red/trial13.png,,,0,10,redHorizontal,a,37,20,female,2021-02-20_11h24.11.742,exp11,2020.2.6,Win32,60,IwAR1XQBr_n07uJWRfb0yQ1LTe9Tukl4ZwaSYpAUKHG9K4goJY8MUQ5uaV2ak,,,,,,,,,,,
,,,,,,,,,,,,,,a,1,1.2857,space,0.382685,0,78,78,124,1,0_targ_1_dist_red/trial25.png,,,0,1,redHorizontal,a,37,20,female,2021-02-20_11h24.11.742,exp11,2020.2.6,Win32,60,IwAR1XQBr_n07uJWRfb0yQ1LTe9Tukl4ZwaSYpAUKHG9K4goJY8MUQ5uaV2ak,,,,,,,,,,,
,,,,,,,,,,,,,,a,1,1.67975,space,0.242255,0,79,79,185,1,0_targ_16_dist_red/trial11.png,,,0,16,redHorizontal,a,37,20,female,2021-02-20_11h24.11.742,exp11,2020.2.6,Win32,60,IwAR1XQBr_n07uJWRfb0yQ1LTe9Tukl4ZwaSYpAUKHG9K4goJY8MUQ5uaV2ak,,,,,,,,,,,
,,,,,,,,,,,,,,a,1,0.89057,space,0.30205,0,80,80,186,1,0_targ_16_dist_red/trial12.png,,,0,16,redHorizontal,a,37,20,female,2021-02-20_11h24.11.742,exp11,2020.2.6,Win32,60,IwAR1XQBr_n07uJWRfb0yQ1LTe9Tukl4ZwaSYpAUKHG9K4goJY8MUQ5uaV2ak,,,,,,,,,,,
,,,,,,,,,,,,,,p,1,0.660555,space,0.34367,0,81,81,81,1,15_dist_red/trial7.png,,,1,15,redHorizontal,p,37,20,female,2021-02-20_11h24.11.742,exp11,2020.2.6,Win32,60,IwAR1XQBr_n07uJWRfb0yQ1LTe9Tukl4ZwaSYpAUKHG9K4goJY8MUQ5uaV2ak,,,,,,,,,,,
,,,,,,,,,,,,,,a,1,0.67126,space,0.25817,0,82,82,198,1,0_targ_16_dist_red/trial24.png,,,0,16,redHorizontal,a,37,20,female,2021-02-20_11h24.11.742,exp11,2020.2.6,Win32,60,IwAR1XQBr_n07uJWRfb0yQ1LTe9Tukl4ZwaSYpAUKHG9K4goJY8MUQ5uaV2ak,,,,,,,,,,,
,,,,,,,,,,,,,,p,1,0.83392,space,0.2161,0,83,83,74,1,9_dist_red/trial25.png,,,1,9,redHorizontal,p,37,20,female,2021-02-20_11h24.11.742,exp11,2020.2.6,Win32,60,IwAR1XQBr_n07uJWRfb0yQ1LTe9Tukl4ZwaSYpAUKHG9K4goJY8MUQ5uaV2ak,,,,,,,,,,,
,,,,,,,,,,,,,,a,1,0.617565,space,0.423365,0,84,84,149,1,0_targ_4_dist_red/trial25.png,,,0,4,redHorizontal,a,37,20,female,2021-02-20_11h24.11.742,exp11,2020.2.6,Win32,60,IwAR1XQBr_n07uJWRfb0yQ1LTe9Tukl4ZwaSYpAUKHG9K4goJY8MUQ5uaV2ak,,,,,,,,,,,
,,,,,,,,,,,,,,a,1,0.801895,space,0.31945,0,85,85,147,1,0_targ_4_dist_red/trial23.png,,,0,4,redHorizontal,a,37,20,female,2021-02-20_11h24.11.742,exp11,2020.2.6,Win32,60,IwAR1XQBr_n07uJWRfb0yQ1LTe9Tukl4ZwaSYpAUKHG9K4goJY8MUQ5uaV2ak,,,,,,,,,,,
,,,,,,,,,,,,,,a,1,0.840255,space,0.31346,0,86,86,179,1,0_targ_16_dist_red/trial5.png,,,0,16,redHorizontal,a,37,20,female,2021-02-20_11h24.11.742,exp11,2020.2.6,Win32,60,IwAR1XQBr_n07uJWRfb0yQ1LTe9Tukl4ZwaSYpAUKHG9K4goJY8MUQ5uaV2ak,,,,,,,,,,,
,,,,,,,,,,,,,,a,1,0.609305,space,0.4096,0,87,87,173,1,0_targ_10_dist_red/trial24.png,,,0,10,redHorizontal,a,37,20,female,2021-02-20_11h24.11.742,exp11,2020.2.6,Win32,60,IwAR1XQBr_n07uJWRfb0yQ1LTe9Tukl4ZwaSYpAUKHG9K4goJY8MUQ5uaV2ak,,,,,,,,,,,
,,,,,,,,,,,,,,p,1,0.62292,space,0.35089,0,88,88,42,1,3_dist_red/trial18.png,,,1,3,redHorizontal,p,37,20,female,2021-02-20_11h24.11.742,exp11,2020.2.6,Win32,60,IwAR1XQBr_n07uJWRfb0yQ1LTe9Tukl4ZwaSYpAUKHG9K4goJY8MUQ5uaV2ak,,,,,,,,,,,
,,,,,,,,,,,,,,p,1,0.66471,space,0.388285,0,89,89,11,1,0_dist_red/trial12.png,,,1,0,redHorizontal,p,37,20,female,2021-02-20_11h24.11.742,exp11,2020.2.6,Win32,60,IwAR1XQBr_n07uJWRfb0yQ1LTe9Tukl4ZwaSYpAUKHG9K4goJY8MUQ5uaV2ak,,,,,,,,,,,
,,,,,,,,,,,,,,p,1,0.812765,space,0.397235,0,90,90,15,1,0_dist_red/trial16.png,,,1,0,redHorizontal,p,37,20,female,2021-02-20_11h24.11.742,exp11,2020.2.6,Win32,60,IwAR1XQBr_n07uJWRfb0yQ1LTe9Tukl4ZwaSYpAUKHG9K4goJY8MUQ5uaV2ak,,,,,,,,,,,
,,,,,,,,,,,,,,a,1,0.677095,space,0.29615,0,91,91,123,1,0_targ_1_dist_red/trial24.png,,,0,1,redHorizontal,a,37,20,female,2021-02-20_11h24.11.742,exp11,2020.2.6,Win32,60,IwAR1XQBr_n07uJWRfb0yQ1LTe9Tukl4ZwaSYpAUKHG9K4goJY8MUQ5uaV2ak,,,,,,,,,,,
,,,,,,,,,,,,,,p,1,0.65486,space,0.26012,0,92,92,28,1,3_dist_red/trial4.png,,,1,3,redHorizontal,p,37,20,female,2021-02-20_11h24.11.742,exp11,2020.2.6,Win32,60,IwAR1XQBr_n07uJWRfb0yQ1LTe9Tukl4ZwaSYpAUKHG9K4goJY8MUQ5uaV2ak,,,,,,,,,,,
,,,,,,,,,,,,,,p,1,0.618555,space,0.325615,0,93,93,99,1,15_dist_red/trial25.png,,,1,15,redHorizontal,p,37,20,female,2021-02-20_11h24.11.742,exp11,2020.2.6,Win32,60,IwAR1XQBr_n07uJWRfb0yQ1LTe9Tukl4ZwaSYpAUKHG9K4goJY8MUQ5uaV2ak,,,,,,,,,,,
,,,,,,,,,,,,,,p,1,0.58424,space,0.33707,0,94,94,62,1,9_dist_red/trial13.png,,,1,9,redHorizontal,p,37,20,female,2021-02-20_11h24.11.742,exp11,2020.2.6,Win32,60,IwAR1XQBr_n07uJWRfb0yQ1LTe9Tukl4ZwaSYpAUKHG9K4goJY8MUQ5uaV2ak,,,,,,,,,,,
,,,,,,,,,,,,,,a,1,0.655495,space,0.32342,0,95,95,106,1,0_targ_1_dist_red/trial7.png,,,0,1,redHorizontal,a,37,20,female,2021-02-20_11h24.11.742,exp11,2020.2.6,Win32,60,IwAR1XQBr_n07uJWRfb0yQ1LTe9Tukl4ZwaSYpAUKHG9K4goJY8MUQ5uaV2ak,,,,,,,,,,,
,,,,,,,,,,,,,,a,1,0.81357,space,0.342155,0,96,96,193,1,0_targ_16_dist_red/trial19.png,,,0,16,redHorizontal,a,37,20,female,2021-02-20_11h24.11.742,exp11,2020.2.6,Win32,60,IwAR1XQBr_n07uJWRfb0yQ1LTe9Tukl4ZwaSYpAUKHG9K4goJY8MUQ5uaV2ak,,,,,,,,,,,
,,,,,,,,,,,,,,p,1,1.368835,space,0.207065,0,97,97,69,1,9_dist_red/trial20.png,,,1,9,redHorizontal,p,37,20,female,2021-02-20_11h24.11.742,exp11,2020.2.6,Win32,60,IwAR1XQBr_n07uJWRfb0yQ1LTe9Tukl4ZwaSYpAUKHG9K4goJY8MUQ5uaV2ak,,,,,,,,,,,
,,,,,,,,,,,,,,a,0,0.66011,space,0.63518,0,98,98,80,1,15_dist_red/trial6.png,,,1,15,redHorizontal,p,37,20,female,2021-02-20_11h24.11.742,exp11,2020.2.6,Win32,60,IwAR1XQBr_n07uJWRfb0yQ1LTe9Tukl4ZwaSYpAUKHG9K4goJY8MUQ5uaV2ak,,,,,,,,,,,
,,,,,,,,,,,,,,p,1,1.69928,space,0.089115,0,99,99,85,1,15_dist_red/trial11.png,,,1,15,redHorizontal,p,37,20,female,2021-02-20_11h24.11.742,exp11,2020.2.6,Win32,60,IwAR1XQBr_n07uJWRfb0yQ1LTe9Tukl4ZwaSYpAUKHG9K4goJY8MUQ5uaV2ak,,,,,,,,,,,
,,,,,,,,,,,,,,a,1,2.484005,space,0.305305,0,100,100,175,1,0_targ_16_dist_red/trial1.png,,,0,16,redHorizontal,a,37,20,female,2021-02-20_11h24.11.742,exp11,2020.2.6,Win32,60,IwAR1XQBr_n07uJWRfb0yQ1LTe9Tukl4ZwaSYpAUKHG9K4goJY8MUQ5uaV2ak,,,,,,,,,,,
,,,,,,,,,,,,,,a,0,0.789115,space,0.01889,0,101,101,59,1,9_dist_red/trial10.png,,,1,9,redHorizontal,p,37,20,female,2021-02-20_11h24.11.742,exp11,2020.2.6,Win32,60,IwAR1XQBr_n07uJWRfb0yQ1LTe9Tukl4ZwaSYpAUKHG9K4goJY8MUQ5uaV2ak,,,,,,,,,,,
,,,,,,,,,,,,,,a,1,1.569505,space,0.178145,0,102,102,120,1,0_targ_1_dist_red/trial21.png,,,0,1,redHorizontal,a,37,20,female,2021-02-20_11h24.11.742,exp11,2020.2.6,Win32,60,IwAR1XQBr_n07uJWRfb0yQ1LTe9Tukl4ZwaSYpAUKHG9K4goJY8MUQ5uaV2ak,,,,,,,,,,,
,,,,,,,,,,,,,,a,1,1.71082,space,0.42082,0,103,103,161,1,0_targ_10_dist_red/trial12.png,,,0,10,redHorizontal,a,37,20,female,2021-02-20_11h24.11.742,exp11,2020.2.6,Win32,60,IwAR1XQBr_n07uJWRfb0yQ1LTe9Tukl4ZwaSYpAUKHG9K4goJY8MUQ5uaV2ak,,,,,,,,,,,
,,,,,,,,,,,,,,p,1,0.788975,space,0.405,0,104,104,30,1,3_dist_red/trial6.png,,,1,3,redHorizontal,p,37,20,female,2021-02-20_11h24.11.742,exp11,2020.2.6,Win32,60,IwAR1XQBr_n07uJWRfb0yQ1LTe9Tukl4ZwaSYpAUKHG9K4goJY8MUQ5uaV2ak,,,,,,,,,,,
,,,,,,,,,,,,,,p,1,0.683725,space,0.428275,0,105,105,35,1,3_dist_red/trial11.png,,,1,3,redHorizontal,p,37,20,female,2021-02-20_11h24.11.742,exp11,2020.2.6,Win32,60,IwAR1XQBr_n07uJWRfb0yQ1LTe9Tukl4ZwaSYpAUKHG9K4goJY8MUQ5uaV2ak,,,,,,,,,,,
,,,,,,,,,,,,,,a,1,0.683785,space,0.443145,0,106,106,103,1,0_targ_1_dist_red/trial4.png,,,0,1,redHorizontal,a,37,20,female,2021-02-20_11h24.11.742,exp11,2020.2.6,Win32,60,IwAR1XQBr_n07uJWRfb0yQ1LTe9Tukl4ZwaSYpAUKHG9K4goJY8MUQ5uaV2ak,,,,,,,,,,,
,,,,,,,,,,,,,,p,1,0.656485,space,0.555375,0,107,107,96,1,15_dist_red/trial22.png,,,1,15,redHorizontal,p,37,20,female,2021-02-20_11h24.11.742,exp11,2020.2.6,Win32,60,IwAR1XQBr_n07uJWRfb0yQ1LTe9Tukl4ZwaSYpAUKHG9K4goJY8MUQ5uaV2ak,,,,,,,,,,,
,,,,,,,,,,,,,,a,1,0.89186,space,0.42533,0,108,108,184,1,0_targ_16_dist_red/trial10.png,,,0,16,redHorizontal,a,37,20,female,2021-02-20_11h24.11.742,exp11,2020.2.6,Win32,60,IwAR1XQBr_n07uJWRfb0yQ1LTe9Tukl4ZwaSYpAUKHG9K4goJY8MUQ5uaV2ak,,,,,,,,,,,
,,,,,,,,,,,,,,p,1,1.23274,space,0.367195,0,109,109,93,1,15_dist_red/trial19.png,,,1,15,redHorizontal,p,37,20,female,2021-02-20_11h24.11.742,exp11,2020.2.6,Win32,60,IwAR1XQBr_n07uJWRfb0yQ1LTe9Tukl4ZwaSYpAUKHG9K4goJY8MUQ5uaV2ak,,,,,,,,,,,
,,,,,,,,,,,,,,p,1,0.80793,space,0.41947,0,110,110,25,1,3_dist_red/trial1.png,,,1,3,redHorizontal,p,37,20,female,2021-02-20_11h24.11.742,exp11,2020.2.6,Win32,60,IwAR1XQBr_n07uJWRfb0yQ1LTe9Tukl4ZwaSYpAUKHG9K4goJY8MUQ5uaV2ak,,,,,,,,,,,
,,,,,,,,,,,,,,p,1,0.75981,space,0.474715,0,111,111,3,1,0_dist_red/trial4.png,,,1,0,redHorizontal,p,37,20,female,2021-02-20_11h24.11.742,exp11,2020.2.6,Win32,60,IwAR1XQBr_n07uJWRfb0yQ1LTe9Tukl4ZwaSYpAUKHG9K4goJY8MUQ5uaV2ak,,,,,,,,,,,
,,,,,,,,,,,,,,p,1,0.872605,space,0.4423,0,112,112,84,1,15_dist_red/trial10.png,,,1,15,redHorizontal,p,37,20,female,2021-02-20_11h24.11.742,exp11,2020.2.6,Win32,60,IwAR1XQBr_n07uJWRfb0yQ1LTe9Tukl4ZwaSYpAUKHG9K4goJY8MUQ5uaV2ak,,,,,,,,,,,
,,,,,,,,,,,,,,p,1,0.783945,space,0.435295,0,113,113,58,1,9_dist_red/trial9.png,,,1,9,redHorizontal,p,37,20,female,2021-02-20_11h24.11.742,exp11,2020.2.6,Win32,60,IwAR1XQBr_n07uJWRfb0yQ1LTe9Tukl4ZwaSYpAUKHG9K4goJY8MUQ5uaV2ak,,,,,,,,,,,
,,,,,,,,,,,,,,p,1,0.889625,space,0.401275,0,114,114,60,1,9_dist_red/trial11.png,,,1,9,redHorizontal,p,37,20,female,2021-02-20_11h24.11.742,exp11,2020.2.6,Win32,60,IwAR1XQBr_n07uJWRfb0yQ1LTe9Tukl4ZwaSYpAUKHG9K4goJY8MUQ5uaV2ak,,,,,,,,,,,
,,,,,,,,,,,,,,p,1,0.781205,space,0.341315,0,115,115,94,1,15_dist_red/trial20.png,,,1,15,redHorizontal,p,37,20,female,2021-02-20_11h24.11.742,exp11,2020.2.6,Win32,60,IwAR1XQBr_n07uJWRfb0yQ1LTe9Tukl4ZwaSYpAUKHG9K4goJY8MUQ5uaV2ak,,,,,,,,,,,
,,,,,,,,,,,,,,p,1,0.761965,space,0.37437,0,116,116,53,1,9_dist_red/trial4.png,,,1,9,redHorizontal,p,37,20,female,2021-02-20_11h24.11.742,exp11,2020.2.6,Win32,60,IwAR1XQBr_n07uJWRfb0yQ1LTe9Tukl4ZwaSYpAUKHG9K4goJY8MUQ5uaV2ak,,,,,,,,,,,
,,,,,,,,,,,,,,p,1,0.90008,space,0.328275,0,117,117,75,1,15_dist_red/trial1.png,,,1,15,redHorizontal,p,37,20,female,2021-02-20_11h24.11.742,exp11,2020.2.6,Win32,60,IwAR1XQBr_n07uJWRfb0yQ1LTe9Tukl4ZwaSYpAUKHG9K4goJY8MUQ5uaV2ak,,,,,,,,,,,
,,,,,,,,,,,,,,p,1,0.727645,space,0.288915,0,118,118,13,1,0_dist_red/trial14.png,,,1,0,redHorizontal,p,37,20,female,2021-02-20_11h24.11.742,exp11,2020.2.6,Win32,60,IwAR1XQBr_n07uJWRfb0yQ1LTe9Tukl4ZwaSYpAUKHG9K4goJY8MUQ5uaV2ak,,,,,,,,,,,
,,,,,,,,,,,,,,p,1,0.72173,space,0.24131,0,119,119,52,1,9_dist_red/trial3.png,,,1,9,redHorizontal,p,37,20,female,2021-02-20_11h24.11.742,exp11,2020.2.6,Win32,60,IwAR1XQBr_n07uJWRfb0yQ1LTe9Tukl4ZwaSYpAUKHG9K4goJY8MUQ5uaV2ak,,,,,,,,,,,
,,,,,,,,,,,,,,a,1,0.73053,space,0.447615,0,120,120,109,1,0_targ_1_dist_red/trial10.png,,,0,1,redHorizontal,a,37,20,female,2021-02-20_11h24.11.742,exp11,2020.2.6,Win32,60,IwAR1XQBr_n07uJWRfb0yQ1LTe9Tukl4ZwaSYpAUKHG9K4goJY8MUQ5uaV2ak,,,,,,,,,,,
,,,,,,,,,,,,,,a,1,1.44657,space,0.30195,0,121,121,119,1,0_targ_1_dist_red/trial20.png,,,0,1,redHorizontal,a,37,20,female,2021-02-20_11h24.11.742,exp11,2020.2.6,Win32,60,IwAR1XQBr_n07uJWRfb0yQ1LTe9Tukl4ZwaSYpAUKHG9K4goJY8MUQ5uaV2ak,,,,,,,,,,,
,,,,,,,,,,,,,,a,1,0.887915,space,0.286555,0,122,122,142,1,0_targ_4_dist_red/trial18.png,,,0,4,redHorizontal,a,37,20,female,2021-02-20_11h24.11.742,exp11,2020.2.6,Win32,60,IwAR1XQBr_n07uJWRfb0yQ1LTe9Tukl4ZwaSYpAUKHG9K4goJY8MUQ5uaV2ak,,,,,,,,,,,
,,,,,,,,,,,,,,p,1,0.94376,space,0.33606,0,123,123,38,1,3_dist_red/trial14.png,,,1,3,redHorizontal,p,37,20,female,2021-02-20_11h24.11.742,exp11,2020.2.6,Win32,60,IwAR1XQBr_n07uJWRfb0yQ1LTe9Tukl4ZwaSYpAUKHG9K4goJY8MUQ5uaV2ak,,,,,,,,,,,
,,,,,,,,,,,,,,p,1,0.7361,space,0.334975,0,124,124,33,1,3_dist_red/trial9.png,,,1,3,redHorizontal,p,37,20,female,2021-02-20_11h24.11.742,exp11,2020.2.6,Win32,60,IwAR1XQBr_n07uJWRfb0yQ1LTe9Tukl4ZwaSYpAUKHG9K4goJY8MUQ5uaV2ak,,,,,,,,,,,
,,,,,,,,,,,,,,p,1,0.905035,space,0.35867,0,125,125,50,1,9_dist_red/trial1.png,,,1,9,redHorizontal,p,37,20,female,2021-02-20_11h24.11.742,exp11,2020.2.6,Win32,60,IwAR1XQBr_n07uJWRfb0yQ1LTe9Tukl4ZwaSYpAUKHG9K4goJY8MUQ5uaV2ak,,,,,,,,,,,
,,,,,,,,,,,,,,p,1,0.76115,space,0.35447,0,126,126,31,1,3_dist_red/trial7.png,,,1,3,redHorizontal,p,37,20,female,2021-02-20_11h24.11.742,exp11,2020.2.6,Win32,60,IwAR1XQBr_n07uJWRfb0yQ1LTe9Tukl4ZwaSYpAUKHG9K4goJY8MUQ5uaV2ak,,,,,,,,,,,
,,,,,,,,,,,,,,a,1,1.100865,space,0.45317,0,127,127,195,1,0_targ_16_dist_red/trial21.png,,,0,16,redHorizontal,a,37,20,female,2021-02-20_11h24.11.742,exp11,2020.2.6,Win32,60,IwAR1XQBr_n07uJWRfb0yQ1LTe9Tukl4ZwaSYpAUKHG9K4goJY8MUQ5uaV2ak,,,,,,,,,,,
,,,,,,,,,,,,,,a,1,1.066935,space,0.475205,0,128,128,141,1,0_targ_4_dist_red/trial17.png,,,0,4,redHorizontal,a,37,20,female,2021-02-20_11h24.11.742,exp11,2020.2.6,Win32,60,IwAR1XQBr_n07uJWRfb0yQ1LTe9Tukl4ZwaSYpAUKHG9K4goJY8MUQ5uaV2ak,,,,,,,,,,,
,,,,,,,,,,,,,,a,1,1.09582,space,0.315315,0,129,129,134,1,0_targ_4_dist_red/trial10.png,,,0,4,redHorizontal,a,37,20,female,2021-02-20_11h24.11.742,exp11,2020.2.6,Win32,60,IwAR1XQBr_n07uJWRfb0yQ1LTe9Tukl4ZwaSYpAUKHG9K4goJY8MUQ5uaV2ak,,,,,,,,,,,
,,,,,,,,,,,,,,a,1,1.394665,space,0.27091,0,130,130,130,1,0_targ_4_dist_red/trial6.png,,,0,4,redHorizontal,a,37,20,female,2021-02-20_11h24.11.742,exp11,2020.2.6,Win32,60,IwAR1XQBr_n07uJWRfb0yQ1LTe9Tukl4ZwaSYpAUKHG9K4goJY8MUQ5uaV2ak,,,,,,,,,,,
,,,,,,,,,,,,,,a,1,0.85982,space,0.552585,0,131,131,167,1,0_targ_10_dist_red/trial18.png,,,0,10,redHorizontal,a,37,20,female,2021-02-20_11h24.11.742,exp11,2020.2.6,Win32,60,IwAR1XQBr_n07uJWRfb0yQ1LTe9Tukl4ZwaSYpAUKHG9K4goJY8MUQ5uaV2ak,,,,,,,,,,,
,,,,,,,,,,,,,,p,1,0.751645,space,0.37361,0,132,132,65,1,9_dist_red/trial16.png,,,1,9,redHorizontal,p,37,20,female,2021-02-20_11h24.11.742,exp11,2020.2.6,Win32,60,IwAR1XQBr_n07uJWRfb0yQ1LTe9Tukl4ZwaSYpAUKHG9K4goJY8MUQ5uaV2ak,,,,,,,,,,,
,,,,,,,,,,,,,,a,1,0.86274,space,0.3791,0,133,133,178,1,0_targ_16_dist_red/trial4.png,,,0,16,redHorizontal,a,37,20,female,2021-02-20_11h24.11.742,exp11,2020.2.6,Win32,60,IwAR1XQBr_n07uJWRfb0yQ1LTe9Tukl4ZwaSYpAUKHG9K4goJY8MUQ5uaV2ak,,,,,,,,,,,
,,,,,,,,,,,,,,p,1,0.6053,space,0.73529,0,134,134,19,1,0_dist_red/trial20.png,,,1,0,redHorizontal,p,37,20,female,2021-02-20_11h24.11.742,exp11,2020.2.6,Win32,60,IwAR1XQBr_n07uJWRfb0yQ1LTe9Tukl4ZwaSYpAUKHG9K4goJY8MUQ5uaV2ak,,,,,,,,,,,
,,,,,,,,,,,,,,a,1,0.631005,space,0.42094,0,135,135,117,1,0_targ_1_dist_red/trial18.png,,,0,1,redHorizontal,a,37,20,female,2021-02-20_11h24.11.742,exp11,2020.2.6,Win32,60,IwAR1XQBr_n07uJWRfb0yQ1LTe9Tukl4ZwaSYpAUKHG9K4goJY8MUQ5uaV2ak,,,,,,,,,,,
,,,,,,,,,,,,,,p,1,0.796685,space,0.48614,0,136,136,41,1,3_dist_red/trial17.png,,,1,3,redHorizontal,p,37,20,female,2021-02-20_11h24.11.742,exp11,2020.2.6,Win32,60,IwAR1XQBr_n07uJWRfb0yQ1LTe9Tukl4ZwaSYpAUKHG9K4goJY8MUQ5uaV2ak,,,,,,,,,,,
,,,,,,,,,,,,,,a,1,0.717005,space,0.425675,0,137,137,168,1,0_targ_10_dist_red/trial19.png,,,0,10,redHorizontal,a,37,20,female,2021-02-20_11h24.11.742,exp11,2020.2.6,Win32,60,IwAR1XQBr_n07uJWRfb0yQ1LTe9Tukl4ZwaSYpAUKHG9K4goJY8MUQ5uaV2ak,,,,,,,,,,,
,,,,,,,,,,,,,,p,1,0.654585,space,0.398345,0,138,138,46,1,3_dist_red/trial22.png,,,1,3,redHorizontal,p,37,20,female,2021-02-20_11h24.11.742,exp11,2020.2.6,Win32,60,IwAR1XQBr_n07uJWRfb0yQ1LTe9Tukl4ZwaSYpAUKHG9K4goJY8MUQ5uaV2ak,,,,,,,,,,,
,,,,,,,,,,,,,,a,1,0.63994,space,0.394135,0,139,139,114,1,0_targ_1_dist_red/trial15.png,,,0,1,redHorizontal,a,37,20,female,2021-02-20_11h24.11.742,exp11,2020.2.6,Win32,60,IwAR1XQBr_n07uJWRfb0yQ1LTe9Tukl4ZwaSYpAUKHG9K4goJY8MUQ5uaV2ak,,,,,,,,,,,
,,,,,,,,,,,,,,a,1,2.208595,space,0.4658,0,140,140,125,1,0_targ_4_dist_red/trial1.png,,,0,4,redHorizontal,a,37,20,female,2021-02-20_11h24.11.742,exp11,2020.2.6,Win32,60,IwAR1XQBr_n07uJWRfb0yQ1LTe9Tukl4ZwaSYpAUKHG9K4goJY8MUQ5uaV2ak,,,,,,,,,,,
,,,,,,,,,,,,,,a,1,0.70589,space,0.383935,0,141,141,145,1,0_targ_4_dist_red/trial21.png,,,0,4,redHorizontal,a,37,20,female,2021-02-20_11h24.11.742,exp11,2020.2.6,Win32,60,IwAR1XQBr_n07uJWRfb0yQ1LTe9Tukl4ZwaSYpAUKHG9K4goJY8MUQ5uaV2ak,,,,,,,,,,,
,,,,,,,,,,,,,,p,1,0.57171,space,0.51723,0,142,142,22,1,0_dist_red/trial23.png,,,1,0,redHorizontal,p,37,20,female,2021-02-20_11h24.11.742,exp11,2020.2.6,Win32,60,IwAR1XQBr_n07uJWRfb0yQ1LTe9Tukl4ZwaSYpAUKHG9K4goJY8MUQ5uaV2ak,,,,,,,,,,,
,,,,,,,,,,,,,,p,1,1.33247,space,0.94514,0,143,143,95,1,15_dist_red/trial21.png,,,1,15,redHorizontal,p,37,20,female,2021-02-20_11h24.11.742,exp11,2020.2.6,Win32,60,IwAR1XQBr_n07uJWRfb0yQ1LTe9Tukl4ZwaSYpAUKHG9K4goJY8MUQ5uaV2ak,,,,,,,,,,,
,,,,,,,,,,,,,,a,1,0.6192,space,0.64303,0,144,144,136,1,0_targ_4_dist_red/trial12.png,,,0,4,redHorizontal,a,37,20,female,2021-02-20_11h24.11.742,exp11,2020.2.6,Win32,60,IwAR1XQBr_n07uJWRfb0yQ1LTe9Tukl4ZwaSYpAUKHG9K4goJY8MUQ5uaV2ak,,,,,,,,,,,
,,,,,,,,,,,,,,p,1,0.7436,space,0.57129,0,145,145,82,1,15_dist_red/trial8.png,,,1,15,redHorizontal,p,37,20,female,2021-02-20_11h24.11.742,exp11,2020.2.6,Win32,60,IwAR1XQBr_n07uJWRfb0yQ1LTe9Tukl4ZwaSYpAUKHG9K4goJY8MUQ5uaV2ak,,,,,,,,,,,
,,,,,,,,,,,,,,a,1,0.740675,space,0.543635,0,146,146,169,1,0_targ_10_dist_red/trial20.png,,,0,10,redHorizontal,a,37,20,female,2021-02-20_11h24.11.742,exp11,2020.2.6,Win32,60,IwAR1XQBr_n07uJWRfb0yQ1LTe9Tukl4ZwaSYpAUKHG9K4goJY8MUQ5uaV2ak,,,,,,,,,,,
,,,,,,,,,,,,,,p,1,0.646555,space,0.46029,0,147,147,5,1,0_dist_red/trial6.png,,,1,0,redHorizontal,p,37,20,female,2021-02-20_11h24.11.742,exp11,2020.2.6,Win32,60,IwAR1XQBr_n07uJWRfb0yQ1LTe9Tukl4ZwaSYpAUKHG9K4goJY8MUQ5uaV2ak,,,,,,,,,,,
,,,,,,,,,,,,,,p,1,0.62705,space,0.50223,0,148,148,61,1,9_dist_red/trial12.png,,,1,9,redHorizontal,p,37,20,female,2021-02-20_11h24.11.742,exp11,2020.2.6,Win32,60,IwAR1XQBr_n07uJWRfb0yQ1LTe9Tukl4ZwaSYpAUKHG9K4goJY8MUQ5uaV2ak,,,,,,,,,,,
,,,,,,,,,,,,,,a,1,0.80435,space,0.417915,0,149,149,163,1,0_targ_10_dist_red/trial14.png,,,0,10,redHorizontal,a,37,20,female,2021-02-20_11h24.11.742,exp11,2020.2.6,Win32,60,IwAR1XQBr_n07uJWRfb0yQ1LTe9Tukl4ZwaSYpAUKHG9K4goJY8MUQ5uaV2ak,,,,,,,,,,,
,,,,,,,,,,,,,,a,1,0.75283,space,0.501305,0,150,150,155,1,0_targ_10_dist_red/trial6.png,,,0,10,redHorizontal,a,37,20,female,2021-02-20_11h24.11.742,exp11,2020.2.6,Win32,60,IwAR1XQBr_n07uJWRfb0yQ1LTe9Tukl4ZwaSYpAUKHG9K4goJY8MUQ5uaV2ak,,,,,,,,,,,
,,,,,,,,,,,,,,a,1,0.719805,space,0.39317,0,151,151,132,1,0_targ_4_dist_red/trial8.png,,,0,4,redHorizontal,a,37,20,female,2021-02-20_11h24.11.742,exp11,2020.2.6,Win32,60,IwAR1XQBr_n07uJWRfb0yQ1LTe9Tukl4ZwaSYpAUKHG9K4goJY8MUQ5uaV2ak,,,,,,,,,,,
,,,,,,,,,,,,,,p,1,0.658765,space,0.40499,0,152,152,0,1,0_dist_red/trial1.png,,,1,0,redHorizontal,p,37,20,female,2021-02-20_11h24.11.742,exp11,2020.2.6,Win32,60,IwAR1XQBr_n07uJWRfb0yQ1LTe9Tukl4ZwaSYpAUKHG9K4goJY8MUQ5uaV2ak,,,,,,,,,,,
,,,,,,,,,,,,,,a,1,0.690485,space,0.33203,0,153,153,128,1,0_targ_4_dist_red/trial4.png,,,0,4,redHorizontal,a,37,20,female,2021-02-20_11h24.11.742,exp11,2020.2.6,Win32,60,IwAR1XQBr_n07uJWRfb0yQ1LTe9Tukl4ZwaSYpAUKHG9K4goJY8MUQ5uaV2ak,,,,,,,,,,,
,,,,,,,,,,,,,,a,1,0.64175,space,0.361835,0,154,154,113,1,0_targ_1_dist_red/trial14.png,,,0,1,redHorizontal,a,37,20,female,2021-02-20_11h24.11.742,exp11,2020.2.6,Win32,60,IwAR1XQBr_n07uJWRfb0yQ1LTe9Tukl4ZwaSYpAUKHG9K4goJY8MUQ5uaV2ak,,,,,,,,,,,
,,,,,,,,,,,,,,p,1,0.95967,space,0.382385,0,155,155,88,1,15_dist_red/trial14.png,,,1,15,redHorizontal,p,37,20,female,2021-02-20_11h24.11.742,exp11,2020.2.6,Win32,60,IwAR1XQBr_n07uJWRfb0yQ1LTe9Tukl4ZwaSYpAUKHG9K4goJY8MUQ5uaV2ak,,,,,,,,,,,
,,,,,,,,,,,,,,p,1,0.6875,space,0.357825,0,156,156,98,1,15_dist_red/trial24.png,,,1,15,redHorizontal,p,37,20,female,2021-02-20_11h24.11.742,exp11,2020.2.6,Win32,60,IwAR1XQBr_n07uJWRfb0yQ1LTe9Tukl4ZwaSYpAUKHG9K4goJY8MUQ5uaV2ak,,,,,,,,,,,
,,,,,,,,,,,,,,a,1,0.831825,space,0.395035,0,157,157,194,1,0_targ_16_dist_red/trial20.png,,,0,16,redHorizontal,a,37,20,female,2021-02-20_11h24.11.742,exp11,2020.2.6,Win32,60,IwAR1XQBr_n07uJWRfb0yQ1LTe9Tukl4ZwaSYpAUKHG9K4goJY8MUQ5uaV2ak,,,,,,,,,,,
,,,,,,,,,,,,,,p,1,0.739085,space,0.40796,0,158,158,9,1,0_dist_red/trial10.png,,,1,0,redHorizontal,p,37,20,female,2021-02-20_11h24.11.742,exp11,2020.2.6,Win32,60,IwAR1XQBr_n07uJWRfb0yQ1LTe9Tukl4ZwaSYpAUKHG9K4goJY8MUQ5uaV2ak,,,,,,,,,,,
,,,,,,,,,,,,,,p,1,0.65668,space,0.342555,0,159,159,43,1,3_dist_red/trial19.png,,,1,3,redHorizontal,p,37,20,female,2021-02-20_11h24.11.742,exp11,2020.2.6,Win32,60,IwAR1XQBr_n07uJWRfb0yQ1LTe9Tukl4ZwaSYpAUKHG9K4goJY8MUQ5uaV2ak,,,,,,,,,,,
,,,,,,,,,,,,,,a,1,0.676685,space,0.26803,0,160,160,143,1,0_targ_4_dist_red/trial19.png,,,0,4,redHorizontal,a,37,20,female,2021-02-20_11h24.11.742,exp11,2020.2.6,Win32,60,IwAR1XQBr_n07uJWRfb0yQ1LTe9Tukl4ZwaSYpAUKHG9K4goJY8MUQ5uaV2ak,,,,,,,,,,,
,,,,,,,,,,,,,,p,1,0.642155,space,0.350955,0,161,161,10,1,0_dist_red/trial11.png,,,1,0,redHorizontal,p,37,20,female,2021-02-20_11h24.11.742,exp11,2020.2.6,Win32,60,IwAR1XQBr_n07uJWRfb0yQ1LTe9Tukl4ZwaSYpAUKHG9K4goJY8MUQ5uaV2ak,,,,,,,,,,,
,,,,,,,,,,,,,,p,1,0.62622,space,0.36152,0,162,162,1,1,0_dist_red/trial2.png,,,1,0,redHorizontal,p,37,20,female,2021-02-20_11h24.11.742,exp11,2020.2.6,Win32,60,IwAR1XQBr_n07uJWRfb0yQ1LTe9Tukl4ZwaSYpAUKHG9K4goJY8MUQ5uaV2ak,,,,,,,,,,,
,,,,,,,,,,,,,,a,1,0.63341,space,0.28544,0,163,163,138,1,0_targ_4_dist_red/trial14.png,,,0,4,redHorizontal,a,37,20,female,2021-02-20_11h24.11.742,exp11,2020.2.6,Win32,60,IwAR1XQBr_n07uJWRfb0yQ1LTe9Tukl4ZwaSYpAUKHG9K4goJY8MUQ5uaV2ak,,,,,,,,,,,
,,,,,,,,,,,,,,p,1,0.902205,space,0.307125,0,164,164,34,1,3_dist_red/trial10.png,,,1,3,redHorizontal,p,37,20,female,2021-02-20_11h24.11.742,exp11,2020.2.6,Win32,60,IwAR1XQBr_n07uJWRfb0yQ1LTe9Tukl4ZwaSYpAUKHG9K4goJY8MUQ5uaV2ak,,,,,,,,,,,
,,,,,,,,,,,,,,a,1,1.054425,space,0.3368,0,165,165,158,1,0_targ_10_dist_red/trial9.png,,,0,10,redHorizontal,a,37,20,female,2021-02-20_11h24.11.742,exp11,2020.2.6,Win32,60,IwAR1XQBr_n07uJWRfb0yQ1LTe9Tukl4ZwaSYpAUKHG9K4goJY8MUQ5uaV2ak,,,,,,,,,,,
,,,,,,,,,,,,,,p,1,0.915145,space,0.309855,0,166,166,70,1,9_dist_red/trial21.png,,,1,9,redHorizontal,p,37,20,female,2021-02-20_11h24.11.742,exp11,2020.2.6,Win32,60,IwAR1XQBr_n07uJWRfb0yQ1LTe9Tukl4ZwaSYpAUKHG9K4goJY8MUQ5uaV2ak,,,,,,,,,,,
,,,,,,,,,,,,,,p,1,0.697165,space,0.41594,0,167,167,23,1,0_dist_red/trial24.png,,,1,0,redHorizontal,p,37,20,female,2021-02-20_11h24.11.742,exp11,2020.2.6,Win32,60,IwAR1XQBr_n07uJWRfb0yQ1LTe9Tukl4ZwaSYpAUKHG9K4goJY8MUQ5uaV2ak,,,,,,,,,,,
,,,,,,,,,,,,,,p,1,0.539175,space,0.27602,0,168,168,40,1,3_dist_red/trial16.png,,,1,3,redHorizontal,p,37,20,female,2021-02-20_11h24.11.742,exp11,2020.2.6,Win32,60,IwAR1XQBr_n07uJWRfb0yQ1LTe9Tukl4ZwaSYpAUKHG9K4goJY8MUQ5uaV2ak,,,,,,,,,,,
,,,,,,,,,,,,,,a,1,0.54121,space,0.43079,0,169,169,122,1,0_targ_1_dist_red/trial23.png,,,0,1,redHorizontal,a,37,20,female,2021-02-20_11h24.11.742,exp11,2020.2.6,Win32,60,IwAR1XQBr_n07uJWRfb0yQ1LTe9Tukl4ZwaSYpAUKHG9K4goJY8MUQ5uaV2ak,,,,,,,,,,,
,,,,,,,,,,,,,,a,1,1.263605,space,0.428525,0,170,170,153,1,0_targ_10_dist_red/trial4.png,,,0,10,redHorizontal,a,37,20,female,2021-02-20_11h24.11.742,exp11,2020.2.6,Win32,60,IwAR1XQBr_n07uJWRfb0yQ1LTe9Tukl4ZwaSYpAUKHG9K4goJY8MUQ5uaV2ak,,,,,,,,,,,
,,,,,,,,,,,,,,a,1,1.28832,space,0.573835,0,171,171,177,1,0_targ_16_dist_red/trial3.png,,,0,16,redHorizontal,a,37,20,female,2021-02-20_11h24.11.742,exp11,2020.2.6,Win32,60,IwAR1XQBr_n07uJWRfb0yQ1LTe9Tukl4ZwaSYpAUKHG9K4goJY8MUQ5uaV2ak,,,,,,,,,,,
,,,,,,,,,,,,,,p,1,0.66224,space,0.593535,0,172,172,77,1,15_dist_red/trial3.png,,,1,15,redHorizontal,p,37,20,female,2021-02-20_11h24.11.742,exp11,2020.2.6,Win32,60,IwAR1XQBr_n07uJWRfb0yQ1LTe9Tukl4ZwaSYpAUKHG9K4goJY8MUQ5uaV2ak,,,,,,,,,,,
,,,,,,,,,,,,,,a,1,0.96408,space,0.5733,0,173,173,157,1,0_targ_10_dist_red/trial8.png,,,0,10,redHorizontal,a,37,20,female,2021-02-20_11h24.11.742,exp11,2020.2.6,Win32,60,IwAR1XQBr_n07uJWRfb0yQ1LTe9Tukl4ZwaSYpAUKHG9K4goJY8MUQ5uaV2ak,,,,,,,,,,,
,,,,,,,,,,,,,,a,1,0.78568,space,0.369585,0,174,174,108,1,0_targ_1_dist_red/trial9.png,,,0,1,redHorizontal,a,37,20,female,2021-02-20_11h24.11.742,exp11,2020.2.6,Win32,60,IwAR1XQBr_n07uJWRfb0yQ1LTe9Tukl4ZwaSYpAUKHG9K4goJY8MUQ5uaV2ak,,,,,,,,,,,
,,,,,,,,,,,,,,a,1,0.74125,space,0.471995,0,175,175,112,1,0_targ_1_dist_red/trial13.png,,,0,1,redHorizontal,a,37,20,female,2021-02-20_11h24.11.742,exp11,2020.2.6,Win32,60,IwAR1XQBr_n07uJWRfb0yQ1LTe9Tukl4ZwaSYpAUKHG9K4goJY8MUQ5uaV2ak,,,,,,,,,,,
,,,,,,,,,,,,,,a,1,0.86942,space,0.41717,0,176,176,170,1,0_targ_10_dist_red/trial21.png,,,0,10,redHorizontal,a,37,20,female,2021-02-20_11h24.11.742,exp11,2020.2.6,Win32,60,IwAR1XQBr_n07uJWRfb0yQ1LTe9Tukl4ZwaSYpAUKHG9K4goJY8MUQ5uaV2ak,,,,,,,,,,,
,,,,,,,,,,,,,,p,1,0.66943,space,0.418315,0,177,177,4,1,0_dist_red/trial5.png,,,1,0,redHorizontal,p,37,20,female,2021-02-20_11h24.11.742,exp11,2020.2.6,Win32,60,IwAR1XQBr_n07uJWRfb0yQ1LTe9Tukl4ZwaSYpAUKHG9K4goJY8MUQ5uaV2ak,,,,,,,,,,,
,,,,,,,,,,,,,,p,1,0.72312,space,0.36662,0,178,178,48,1,3_dist_red/trial24.png,,,1,3,redHorizontal,p,37,20,female,2021-02-20_11h24.11.742,exp11,2020.2.6,Win32,60,IwAR1XQBr_n07uJWRfb0yQ1LTe9Tukl4ZwaSYpAUKHG9K4goJY8MUQ5uaV2ak,,,,,,,,,,,
,,,,,,,,,,,,,,a,1,0.83111,space,0.402115,0,179,179,182,1,0_targ_16_dist_red/trial8.png,,,0,16,redHorizontal,a,37,20,female,2021-02-20_11h24.11.742,exp11,2020.2.6,Win32,60,IwAR1XQBr_n07uJWRfb0yQ1LTe9Tukl4ZwaSYpAUKHG9K4goJY8MUQ5uaV2ak,,,,,,,,,,,
,,,,,,,,,,,,,,p,1,1.559735,space,0.373015,0,180,180,37,1,3_dist_red/trial13.png,,,1,3,redHorizontal,p,37,20,female,2021-02-20_11h24.11.742,exp11,2020.2.6,Win32,60,IwAR1XQBr_n07uJWRfb0yQ1LTe9Tukl4ZwaSYpAUKHG9K4goJY8MUQ5uaV2ak,,,,,,,,,,,
,,,,,,,,,,,,,,p,1,0.656525,space,0.28275,0,181,181,39,1,3_dist_red/trial15.png,,,1,3,redHorizontal,p,37,20,female,2021-02-20_11h24.11.742,exp11,2020.2.6,Win32,60,IwAR1XQBr_n07uJWRfb0yQ1LTe9Tukl4ZwaSYpAUKHG9K4goJY8MUQ5uaV2ak,,,,,,,,,,,
,,,,,,,,,,,,,,a,1,1.118335,space,0.2871,0,182,182,156,1,0_targ_10_dist_red/trial7.png,,,0,10,redHorizontal,a,37,20,female,2021-02-20_11h24.11.742,exp11,2020.2.6,Win32,60,IwAR1XQBr_n07uJWRfb0yQ1LTe9Tukl4ZwaSYpAUKHG9K4goJY8MUQ5uaV2ak,,,,,,,,,,,
,,,,,,,,,,,,,,a,1,0.798965,space,0.36241,0,183,183,151,1,0_targ_10_dist_red/trial2.png,,,0,10,redHorizontal,a,37,20,female,2021-02-20_11h24.11.742,exp11,2020.2.6,Win32,60,IwAR1XQBr_n07uJWRfb0yQ1LTe9Tukl4ZwaSYpAUKHG9K4goJY8MUQ5uaV2ak,,,,,,,,,,,
,,,,,,,,,,,,,,a,1,0.944825,space,0.300035,0,184,184,129,1,0_targ_4_dist_red/trial5.png,,,0,4,redHorizontal,a,37,20,female,2021-02-20_11h24.11.742,exp11,2020.2.6,Win32,60,IwAR1XQBr_n07uJWRfb0yQ1LTe9Tukl4ZwaSYpAUKHG9K4goJY8MUQ5uaV2ak,,,,,,,,,,,
,,,,,,,,,,,,,,p,1,0.69739,space,0.31696,0,185,185,45,1,3_dist_red/trial21.png,,,1,3,redHorizontal,p,37,20,female,2021-02-20_11h24.11.742,exp11,2020.2.6,Win32,60,IwAR1XQBr_n07uJWRfb0yQ1LTe9Tukl4ZwaSYpAUKHG9K4goJY8MUQ5uaV2ak,,,,,,,,,,,
,,,,,,,,,,,,,,p,1,1.029145,space,0.259795,0,186,186,27,1,3_dist_red/trial3.png,,,1,3,redHorizontal,p,37,20,female,2021-02-20_11h24.11.742,exp11,2020.2.6,Win32,60,IwAR1XQBr_n07uJWRfb0yQ1LTe9Tukl4ZwaSYpAUKHG9K4goJY8MUQ5uaV2ak,,,,,,,,,,,
,,,,,,,,,,,,,,a,1,0.6797,space,0.31666,0,187,187,111,1,0_targ_1_dist_red/trial12.png,,,0,1,redHorizontal,a,37,20,female,2021-02-20_11h24.11.742,exp11,2020.2.6,Win32,60,IwAR1XQBr_n07uJWRfb0yQ1LTe9Tukl4ZwaSYpAUKHG9K4goJY8MUQ5uaV2ak,,,,,,,,,,,
,,,,,,,,,,,,,,a,1,0.782095,space,0.282475,0,188,188,191,1,0_targ_16_dist_red/trial17.png,,,0,16,redHorizontal,a,37,20,female,2021-02-20_11h24.11.742,exp11,2020.2.6,Win32,60,IwAR1XQBr_n07uJWRfb0yQ1LTe9Tukl4ZwaSYpAUKHG9K4goJY8MUQ5uaV2ak,,,,,,,,,,,
,,,,,,,,,,,,,,a,1,1.625665,space,0.31497,0,189,189,121,1,0_targ_1_dist_red/trial22.png,,,0,1,redHorizontal,a,37,20,female,2021-02-20_11h24.11.742,exp11,2020.2.6,Win32,60,IwAR1XQBr_n07uJWRfb0yQ1LTe9Tukl4ZwaSYpAUKHG9K4goJY8MUQ5uaV2ak,,,,,,,,,,,
,,,,,,,,,,,,,,a,1,1.457735,space,0.329485,0,190,190,104,1,0_targ_1_dist_red/trial5.png,,,0,1,redHorizontal,a,37,20,female,2021-02-20_11h24.11.742,exp11,2020.2.6,Win32,60,IwAR1XQBr_n07uJWRfb0yQ1LTe9Tukl4ZwaSYpAUKHG9K4goJY8MUQ5uaV2ak,,,,,,,,,,,
,,,,,,,,,,,,,,a,1,0.8495,space,0.29741,0,191,191,199,1,0_targ_16_dist_red/trial25.png,,,0,16,redHorizontal,a,37,20,female,2021-02-20_11h24.11.742,exp11,2020.2.6,Win32,60,IwAR1XQBr_n07uJWRfb0yQ1LTe9Tukl4ZwaSYpAUKHG9K4goJY8MUQ5uaV2ak,,,,,,,,,,,
,,,,,,,,,,,,,,a,1,0.6839,space,0.387205,0,192,192,135,1,0_targ_4_dist_red/trial11.png,,,0,4,redHorizontal,a,37,20,female,2021-02-20_11h24.11.742,exp11,2020.2.6,Win32,60,IwAR1XQBr_n07uJWRfb0yQ1LTe9Tukl4ZwaSYpAUKHG9K4goJY8MUQ5uaV2ak,,,,,,,,,,,
,,,,,,,,,,,,,,p,1,0.70171,space,0.261325,0,193,193,56,1,9_dist_red/trial7.png,,,1,9,redHorizontal,p,37,20,female,2021-02-20_11h24.11.742,exp11,2020.2.6,Win32,60,IwAR1XQBr_n07uJWRfb0yQ1LTe9Tukl4ZwaSYpAUKHG9K4goJY8MUQ5uaV2ak,,,,,,,,,,,
,,,,,,,,,,,,,,a,1,0.761615,space,0.21084,0,194,194,188,1,0_targ_16_dist_red/trial14.png,,,0,16,redHorizontal,a,37,20,female,2021-02-20_11h24.11.742,exp11,2020.2.6,Win32,60,IwAR1XQBr_n07uJWRfb0yQ1LTe9Tukl4ZwaSYpAUKHG9K4goJY8MUQ5uaV2ak,,,,,,,,,,,
,,,,,,,,,,,,,,a,1,1.80034,space,0.3915,0,195,195,133,1,0_targ_4_dist_red/trial9.png,,,0,4,redHorizontal,a,37,20,female,2021-02-20_11h24.11.742,exp11,2020.2.6,Win32,60,IwAR1XQBr_n07uJWRfb0yQ1LTe9Tukl4ZwaSYpAUKHG9K4goJY8MUQ5uaV2ak,,,,,,,,,,,
,,,,,,,,,,,,,,a,1,0.77238,space,0.342625,0,196,196,172,1,0_targ_10_dist_red/trial23.png,,,0,10,redHorizontal,a,37,20,female,2021-02-20_11h24.11.742,exp11,2020.2.6,Win32,60,IwAR1XQBr_n07uJWRfb0yQ1LTe9Tukl4ZwaSYpAUKHG9K4goJY8MUQ5uaV2ak,,,,,,,,,,,
,,,,,,,,,,,,,,a,1,0.9993,space,0.306155,0,197,197,118,1,0_targ_1_dist_red/trial19.png,,,0,1,redHorizontal,a,37,20,female,2021-02-20_11h24.11.742,exp11,2020.2.6,Win32,60,IwAR1XQBr_n07uJWRfb0yQ1LTe9Tukl4ZwaSYpAUKHG9K4goJY8MUQ5uaV2ak,,,,,,,,,,,
,,,,,,,,,,,,,,p,1,0.83942,space,0.339155,0,198,198,86,1,15_dist_red/trial12.png,,,1,15,redHorizontal,p,37,20,female,2021-02-20_11h24.11.742,exp11,2020.2.6,Win32,60,IwAR1XQBr_n07uJWRfb0yQ1LTe9Tukl4ZwaSYpAUKHG9K4goJY8MUQ5uaV2ak,,,,,,,,,,,
,,,,,,,,,,,,,,a,1,0.61375,space,0.339645,0,199,199,100,1,0_targ_1_dist_red/trial1.png,,,0,1,redHorizontal,a,37,20,female,2021-02-20_11h24.11.742,exp11,2020.2.6,Win32,60,IwAR1XQBr_n07uJWRfb0yQ1LTe9Tukl4ZwaSYpAUKHG9K4goJY8MUQ5uaV2ak,,,,,,,,,,,
,,,,,,,,,,,,,,,,,,,,,,,,,,,,,,,37,20,female,2021-02-20_11h24.11.742,exp11,2020.2.6,Win32,60,IwAR1XQBr_n07uJWRfb0yQ1LTe9Tukl4ZwaSYpAUKHG9K4goJY8MUQ5uaV2ak,0,1,1,1,1,conRed.xlsx,red horizontal,Look for red horizontal bar (target) and indicate if it is present or absent in the array. If red horizontal target is present press 'p' and if absent press 'a'. Press SPACE to start.,,,
