key_resp_6.keys,key_resp_6.rt,key_resp_7.keys,key_resp_7.rt,key_resp_8.keys,key_resp_8.rt,key_resp_10.keys,key_resp_10.rt,key_resp_9.keys,key_resp_9.rt,key_resp_3.keys,key_resp_3.rt,key_resp_5.keys,key_resp_5.rt,key_resp.keys,key_resp.corr,key_resp.rt,key_resp_4.keys,key_resp_4.rt,trials.thisRepN,trials.thisTrialN,trials.thisN,trials.thisIndex,trials.ran,ImageFile,tarPos,tarSize,targPres,numDist,targetName,correctAns,participant,age,sex,date,expName,psychopyVersion,OS,frameRate,fbclid,trials_2.thisRepN,trials_2.thisTrialN,trials_2.thisN,trials_2.thisIndex,trials_2.ran,condsFile,targName,instructionText,colTarget,sizeTarg,posit
space,3.92299,space,5.154435,space,1.463815,space,0.760815,space,1.40616,space,16.966455,space,7.856995,a,1,1.498545,space,1.85563,0,0,0,102,1,0_targ_1_dist_green/trial3.png,,,0,1,greenverival,a,39,20,female,2021-02-21_16h21.50.229,exp11,2020.2.6,Win32,60,IwAR0ad7ImPw7teSdjRuB99MCN_LumoqcKlP9KUUMQo9Xobyu7cH986u0aFtg,,,,,,,,,,,
,,,,,,,,,,,,,,a,1,2.22905,space,0.632645,0,1,1,158,1,0_targ_10_dist_green/trial9.png,,,0,10,greenverival,a,39,20,female,2021-02-21_16h21.50.229,exp11,2020.2.6,Win32,60,IwAR0ad7ImPw7teSdjRuB99MCN_LumoqcKlP9KUUMQo9Xobyu7cH986u0aFtg,,,,,,,,,,,
,,,,,,,,,,,,,,a,1,1.434345,space,0.45178,0,2,2,152,1,0_targ_10_dist_green/trial3.png,,,0,10,greenverival,a,39,20,female,2021-02-21_16h21.50.229,exp11,2020.2.6,Win32,60,IwAR0ad7ImPw7teSdjRuB99MCN_LumoqcKlP9KUUMQo9Xobyu7cH986u0aFtg,,,,,,,,,,,
,,,,,,,,,,,,,,a,1,0.78469,space,0.324905,0,3,3,101,1,0_targ_1_dist_green/trial2.png,,,0,1,greenverival,a,39,20,female,2021-02-21_16h21.50.229,exp11,2020.2.6,Win32,60,IwAR0ad7ImPw7teSdjRuB99MCN_LumoqcKlP9KUUMQo9Xobyu7cH986u0aFtg,,,,,,,,,,,
,,,,,,,,,,,,,,p,1,0.52689,space,0.32987,0,4,4,19,1,0_dist_green/trial20.png,,,1,0,greenverival,p,39,20,female,2021-02-21_16h21.50.229,exp11,2020.2.6,Win32,60,IwAR0ad7ImPw7teSdjRuB99MCN_LumoqcKlP9KUUMQo9Xobyu7cH986u0aFtg,,,,,,,,,,,
,,,,,,,,,,,,,,a,1,1.053215,space,0.629865,0,5,5,150,1,0_targ_10_dist_green/trial1.png,,,0,10,greenverival,a,39,20,female,2021-02-21_16h21.50.229,exp11,2020.2.6,Win32,60,IwAR0ad7ImPw7teSdjRuB99MCN_LumoqcKlP9KUUMQo9Xobyu7cH986u0aFtg,,,,,,,,,,,
,,,,,,,,,,,,,,a,1,1.33211,space,0.484905,0,6,6,193,1,0_targ_16_dist_green/trial19.png,,,0,16,greenverival,a,39,20,female,2021-02-21_16h21.50.229,exp11,2020.2.6,Win32,60,IwAR0ad7ImPw7teSdjRuB99MCN_LumoqcKlP9KUUMQo9Xobyu7cH986u0aFtg,,,,,,,,,,,
,,,,,,,,,,,,,,a,1,1.185365,space,0.351345,0,7,7,185,1,0_targ_16_dist_green/trial11.png,,,0,16,greenverival,a,39,20,female,2021-02-21_16h21.50.229,exp11,2020.2.6,Win32,60,IwAR0ad7ImPw7teSdjRuB99MCN_LumoqcKlP9KUUMQo9Xobyu7cH986u0aFtg,,,,,,,,,,,
,,,,,,,,,,,,,,a,1,1.031505,space,0.39799,0,8,8,154,1,0_targ_10_dist_green/trial5.png,,,0,10,greenverival,a,39,20,female,2021-02-21_16h21.50.229,exp11,2020.2.6,Win32,60,IwAR0ad7ImPw7teSdjRuB99MCN_LumoqcKlP9KUUMQo9Xobyu7cH986u0aFtg,,,,,,,,,,,
,,,,,,,,,,,,,,a,1,0.74789,space,0.355155,0,9,9,155,1,0_targ_10_dist_green/trial6.png,,,0,10,greenverival,a,39,20,female,2021-02-21_16h21.50.229,exp11,2020.2.6,Win32,60,IwAR0ad7ImPw7teSdjRuB99MCN_LumoqcKlP9KUUMQo9Xobyu7cH986u0aFtg,,,,,,,,,,,
,,,,,,,,,,,,,,a,1,1.13981,space,0.38694,0,10,10,180,1,0_targ_16_dist_green/trial6.png,,,0,16,greenverival,a,39,20,female,2021-02-21_16h21.50.229,exp11,2020.2.6,Win32,60,IwAR0ad7ImPw7teSdjRuB99MCN_LumoqcKlP9KUUMQo9Xobyu7cH986u0aFtg,,,,,,,,,,,
,,,,,,,,,,,,,,p,1,0.6491,space,0.34128,0,11,11,4,1,0_dist_green/trial5.png,,,1,0,greenverival,p,39,20,female,2021-02-21_16h21.50.229,exp11,2020.2.6,Win32,60,IwAR0ad7ImPw7teSdjRuB99MCN_LumoqcKlP9KUUMQo9Xobyu7cH986u0aFtg,,,,,,,,,,,
,,,,,,,,,,,,,,p,1,0.656225,space,0.816895,0,12,12,23,1,0_dist_green/trial24.png,,,1,0,greenverival,p,39,20,female,2021-02-21_16h21.50.229,exp11,2020.2.6,Win32,60,IwAR0ad7ImPw7teSdjRuB99MCN_LumoqcKlP9KUUMQo9Xobyu7cH986u0aFtg,,,,,,,,,,,
,,,,,,,,,,,,,,a,1,1.07377,space,0.37975,0,13,13,182,1,0_targ_16_dist_green/trial8.png,,,0,16,greenverival,a,39,20,female,2021-02-21_16h21.50.229,exp11,2020.2.6,Win32,60,IwAR0ad7ImPw7teSdjRuB99MCN_LumoqcKlP9KUUMQo9Xobyu7cH986u0aFtg,,,,,,,,,,,
,,,,,,,,,,,,,,p,1,0.94799,space,0.31957,0,14,14,70,1,9_dist_green/trial21.png,,,1,9,greenverival,p,39,20,female,2021-02-21_16h21.50.229,exp11,2020.2.6,Win32,60,IwAR0ad7ImPw7teSdjRuB99MCN_LumoqcKlP9KUUMQo9Xobyu7cH986u0aFtg,,,,,,,,,,,
,,,,,,,,,,,,,,p,1,0.62204,space,0.600365,0,15,15,15,1,0_dist_green/trial16.png,,,1,0,greenverival,p,39,20,female,2021-02-21_16h21.50.229,exp11,2020.2.6,Win32,60,IwAR0ad7ImPw7teSdjRuB99MCN_LumoqcKlP9KUUMQo9Xobyu7cH986u0aFtg,,,,,,,,,,,
,,,,,,,,,,,,,,a,1,1.209945,space,0.483475,0,16,16,153,1,0_targ_10_dist_green/trial4.png,,,0,10,greenverival,a,39,20,female,2021-02-21_16h21.50.229,exp11,2020.2.6,Win32,60,IwAR0ad7ImPw7teSdjRuB99MCN_LumoqcKlP9KUUMQo9Xobyu7cH986u0aFtg,,,,,,,,,,,
,,,,,,,,,,,,,,a,1,0.96023,space,0.369455,0,17,17,190,1,0_targ_16_dist_green/trial16.png,,,0,16,greenverival,a,39,20,female,2021-02-21_16h21.50.229,exp11,2020.2.6,Win32,60,IwAR0ad7ImPw7teSdjRuB99MCN_LumoqcKlP9KUUMQo9Xobyu7cH986u0aFtg,,,,,,,,,,,
,,,,,,,,,,,,,,p,1,0.656265,space,0.349665,0,18,18,34,1,3_dist_green/trial10.png,,,1,3,greenverival,p,39,20,female,2021-02-21_16h21.50.229,exp11,2020.2.6,Win32,60,IwAR0ad7ImPw7teSdjRuB99MCN_LumoqcKlP9KUUMQo9Xobyu7cH986u0aFtg,,,,,,,,,,,
,,,,,,,,,,,,,,p,1,1.011255,space,0.323055,0,19,19,82,1,15_dist_green/trial8.png,,,1,15,greenverival,p,39,20,female,2021-02-21_16h21.50.229,exp11,2020.2.6,Win32,60,IwAR0ad7ImPw7teSdjRuB99MCN_LumoqcKlP9KUUMQo9Xobyu7cH986u0aFtg,,,,,,,,,,,
,,,,,,,,,,,,,,a,1,0.873835,space,0.455005,0,20,20,187,1,0_targ_16_dist_green/trial13.png,,,0,16,greenverival,a,39,20,female,2021-02-21_16h21.50.229,exp11,2020.2.6,Win32,60,IwAR0ad7ImPw7teSdjRuB99MCN_LumoqcKlP9KUUMQo9Xobyu7cH986u0aFtg,,,,,,,,,,,
,,,,,,,,,,,,,,p,1,0.909625,space,0.31754,0,21,21,76,1,15_dist_green/trial2.png,,,1,15,greenverival,p,39,20,female,2021-02-21_16h21.50.229,exp11,2020.2.6,Win32,60,IwAR0ad7ImPw7teSdjRuB99MCN_LumoqcKlP9KUUMQo9Xobyu7cH986u0aFtg,,,,,,,,,,,
,,,,,,,,,,,,,,a,1,1.2582,space,0.332205,0,22,22,157,1,0_targ_10_dist_green/trial8.png,,,0,10,greenverival,a,39,20,female,2021-02-21_16h21.50.229,exp11,2020.2.6,Win32,60,IwAR0ad7ImPw7teSdjRuB99MCN_LumoqcKlP9KUUMQo9Xobyu7cH986u0aFtg,,,,,,,,,,,
,,,,,,,,,,,,,,a,1,0.77595,space,0.357975,0,23,23,142,1,0_targ_4_dist_green/trial18.png,,,0,4,greenverival,a,39,20,female,2021-02-21_16h21.50.229,exp11,2020.2.6,Win32,60,IwAR0ad7ImPw7teSdjRuB99MCN_LumoqcKlP9KUUMQo9Xobyu7cH986u0aFtg,,,,,,,,,,,
,,,,,,,,,,,,,,a,1,0.574125,space,0.296555,0,24,24,138,1,0_targ_4_dist_green/trial14.png,,,0,4,greenverival,a,39,20,female,2021-02-21_16h21.50.229,exp11,2020.2.6,Win32,60,IwAR0ad7ImPw7teSdjRuB99MCN_LumoqcKlP9KUUMQo9Xobyu7cH986u0aFtg,,,,,,,,,,,
,,,,,,,,,,,,,,p,1,0.535695,space,0.318035,0,25,25,12,1,0_dist_green/trial13.png,,,1,0,greenverival,p,39,20,female,2021-02-21_16h21.50.229,exp11,2020.2.6,Win32,60,IwAR0ad7ImPw7teSdjRuB99MCN_LumoqcKlP9KUUMQo9Xobyu7cH986u0aFtg,,,,,,,,,,,
,,,,,,,,,,,,,,p,1,0.4609,space,0.285835,0,26,26,18,1,0_dist_green/trial19.png,,,1,0,greenverival,p,39,20,female,2021-02-21_16h21.50.229,exp11,2020.2.6,Win32,60,IwAR0ad7ImPw7teSdjRuB99MCN_LumoqcKlP9KUUMQo9Xobyu7cH986u0aFtg,,,,,,,,,,,
,,,,,,,,,,,,,,p,1,0.49197,space,0.28595,0,27,27,16,1,0_dist_green/trial17.png,,,1,0,greenverival,p,39,20,female,2021-02-21_16h21.50.229,exp11,2020.2.6,Win32,60,IwAR0ad7ImPw7teSdjRuB99MCN_LumoqcKlP9KUUMQo9Xobyu7cH986u0aFtg,,,,,,,,,,,
,,,,,,,,,,,,,,p,1,0.775085,space,0.25361,0,28,28,98,1,15_dist_green/trial24.png,,,1,15,greenverival,p,39,20,female,2021-02-21_16h21.50.229,exp11,2020.2.6,Win32,60,IwAR0ad7ImPw7teSdjRuB99MCN_LumoqcKlP9KUUMQo9Xobyu7cH986u0aFtg,,,,,,,,,,,
,,,,,,,,,,,,,,p,1,0.527965,space,0.269105,0,29,29,36,1,3_dist_green/trial12.png,,,1,3,greenverival,p,39,20,female,2021-02-21_16h21.50.229,exp11,2020.2.6,Win32,60,IwAR0ad7ImPw7teSdjRuB99MCN_LumoqcKlP9KUUMQo9Xobyu7cH986u0aFtg,,,,,,,,,,,
,,,,,,,,,,,,,,a,1,0.80679,space,0.31809,0,30,30,188,1,0_targ_16_dist_green/trial14.png,,,0,16,greenverival,a,39,20,female,2021-02-21_16h21.50.229,exp11,2020.2.6,Win32,60,IwAR0ad7ImPw7teSdjRuB99MCN_LumoqcKlP9KUUMQo9Xobyu7cH986u0aFtg,,,,,,,,,,,
,,,,,,,,,,,,,,a,1,0.858065,space,0.21937,0,31,31,124,1,0_targ_1_dist_green/trial25.png,,,0,1,greenverival,a,39,20,female,2021-02-21_16h21.50.229,exp11,2020.2.6,Win32,60,IwAR0ad7ImPw7teSdjRuB99MCN_LumoqcKlP9KUUMQo9Xobyu7cH986u0aFtg,,,,,,,,,,,
,,,,,,,,,,,,,,p,1,0.54106,space,0.340965,0,32,32,22,1,0_dist_green/trial23.png,,,1,0,greenverival,p,39,20,female,2021-02-21_16h21.50.229,exp11,2020.2.6,Win32,60,IwAR0ad7ImPw7teSdjRuB99MCN_LumoqcKlP9KUUMQo9Xobyu7cH986u0aFtg,,,,,,,,,,,
,,,,,,,,,,,,,,a,1,0.840315,space,0.3044,0,33,33,199,1,0_targ_16_dist_green/trial25.png,,,0,16,greenverival,a,39,20,female,2021-02-21_16h21.50.229,exp11,2020.2.6,Win32,60,IwAR0ad7ImPw7teSdjRuB99MCN_LumoqcKlP9KUUMQo9Xobyu7cH986u0aFtg,,,,,,,,,,,
,,,,,,,,,,,,,,p,1,0.712,space,0.350135,0,34,34,78,1,15_dist_green/trial4.png,,,1,15,greenverival,p,39,20,female,2021-02-21_16h21.50.229,exp11,2020.2.6,Win32,60,IwAR0ad7ImPw7teSdjRuB99MCN_LumoqcKlP9KUUMQo9Xobyu7cH986u0aFtg,,,,,,,,,,,
,,,,,,,,,,,,,,p,1,0.57947,space,0.305265,0,35,35,41,1,3_dist_green/trial17.png,,,1,3,greenverival,p,39,20,female,2021-02-21_16h21.50.229,exp11,2020.2.6,Win32,60,IwAR0ad7ImPw7teSdjRuB99MCN_LumoqcKlP9KUUMQo9Xobyu7cH986u0aFtg,,,,,,,,,,,
,,,,,,,,,,,,,,a,1,0.63217,space,0.33476,0,36,36,169,1,0_targ_10_dist_green/trial20.png,,,0,10,greenverival,a,39,20,female,2021-02-21_16h21.50.229,exp11,2020.2.6,Win32,60,IwAR0ad7ImPw7teSdjRuB99MCN_LumoqcKlP9KUUMQo9Xobyu7cH986u0aFtg,,,,,,,,,,,
,,,,,,,,,,,,,,a,1,0.722735,space,0.318545,0,37,37,175,1,0_targ_16_dist_green/trial1.png,,,0,16,greenverival,a,39,20,female,2021-02-21_16h21.50.229,exp11,2020.2.6,Win32,60,IwAR0ad7ImPw7teSdjRuB99MCN_LumoqcKlP9KUUMQo9Xobyu7cH986u0aFtg,,,,,,,,,,,
,,,,,,,,,,,,,,p,1,0.54321,space,0.29226,0,38,38,42,1,3_dist_green/trial18.png,,,1,3,greenverival,p,39,20,female,2021-02-21_16h21.50.229,exp11,2020.2.6,Win32,60,IwAR0ad7ImPw7teSdjRuB99MCN_LumoqcKlP9KUUMQo9Xobyu7cH986u0aFtg,,,,,,,,,,,
,,,,,,,,,,,,,,p,1,1.059295,space,0.32002,0,39,39,29,1,3_dist_green/trial5.png,,,1,3,greenverival,p,39,20,female,2021-02-21_16h21.50.229,exp11,2020.2.6,Win32,60,IwAR0ad7ImPw7teSdjRuB99MCN_LumoqcKlP9KUUMQo9Xobyu7cH986u0aFtg,,,,,,,,,,,
,,,,,,,,,,,,,,p,1,0.545175,space,0.31806,0,40,40,40,1,3_dist_green/trial16.png,,,1,3,greenverival,p,39,20,female,2021-02-21_16h21.50.229,exp11,2020.2.6,Win32,60,IwAR0ad7ImPw7teSdjRuB99MCN_LumoqcKlP9KUUMQo9Xobyu7cH986u0aFtg,,,,,,,,,,,
,,,,,,,,,,,,,,p,1,0.588745,space,0.350715,0,41,41,26,1,3_dist_green/trial2.png,,,1,3,greenverival,p,39,20,female,2021-02-21_16h21.50.229,exp11,2020.2.6,Win32,60,IwAR0ad7ImPw7teSdjRuB99MCN_LumoqcKlP9KUUMQo9Xobyu7cH986u0aFtg,,,,,,,,,,,
,,,,,,,,,,,,,,p,1,0.6405,space,0.35288,0,42,42,73,1,9_dist_green/trial24.png,,,1,9,greenverival,p,39,20,female,2021-02-21_16h21.50.229,exp11,2020.2.6,Win32,60,IwAR0ad7ImPw7teSdjRuB99MCN_LumoqcKlP9KUUMQo9Xobyu7cH986u0aFtg,,,,,,,,,,,
,,,,,,,,,,,,,,a,1,0.7472,space,0.33419,0,43,43,161,1,0_targ_10_dist_green/trial12.png,,,0,10,greenverival,a,39,20,female,2021-02-21_16h21.50.229,exp11,2020.2.6,Win32,60,IwAR0ad7ImPw7teSdjRuB99MCN_LumoqcKlP9KUUMQo9Xobyu7cH986u0aFtg,,,,,,,,,,,
,,,,,,,,,,,,,,p,1,0.48135,space,0.321415,0,44,44,1,1,0_dist_green/trial2.png,,,1,0,greenverival,p,39,20,female,2021-02-21_16h21.50.229,exp11,2020.2.6,Win32,60,IwAR0ad7ImPw7teSdjRuB99MCN_LumoqcKlP9KUUMQo9Xobyu7cH986u0aFtg,,,,,,,,,,,
,,,,,,,,,,,,,,p,1,0.760565,space,0.306095,0,45,45,30,1,3_dist_green/trial6.png,,,1,3,greenverival,p,39,20,female,2021-02-21_16h21.50.229,exp11,2020.2.6,Win32,60,IwAR0ad7ImPw7teSdjRuB99MCN_LumoqcKlP9KUUMQo9Xobyu7cH986u0aFtg,,,,,,,,,,,
,,,,,,,,,,,,,,a,1,0.9028,space,0.299905,0,46,46,147,1,0_targ_4_dist_green/trial23.png,,,0,4,greenverival,a,39,20,female,2021-02-21_16h21.50.229,exp11,2020.2.6,Win32,60,IwAR0ad7ImPw7teSdjRuB99MCN_LumoqcKlP9KUUMQo9Xobyu7cH986u0aFtg,,,,,,,,,,,
,,,,,,,,,,,,,,p,1,0.52256,space,0.300755,0,47,47,62,1,9_dist_green/trial13.png,,,1,9,greenverival,p,39,20,female,2021-02-21_16h21.50.229,exp11,2020.2.6,Win32,60,IwAR0ad7ImPw7teSdjRuB99MCN_LumoqcKlP9KUUMQo9Xobyu7cH986u0aFtg,,,,,,,,,,,
,,,,,,,,,,,,,,a,1,0.657235,space,0.25316,0,48,48,163,1,0_targ_10_dist_green/trial14.png,,,0,10,greenverival,a,39,20,female,2021-02-21_16h21.50.229,exp11,2020.2.6,Win32,60,IwAR0ad7ImPw7teSdjRuB99MCN_LumoqcKlP9KUUMQo9Xobyu7cH986u0aFtg,,,,,,,,,,,
,,,,,,,,,,,,,,a,1,0.593445,space,0.301675,0,49,49,135,1,0_targ_4_dist_green/trial11.png,,,0,4,greenverival,a,39,20,female,2021-02-21_16h21.50.229,exp11,2020.2.6,Win32,60,IwAR0ad7ImPw7teSdjRuB99MCN_LumoqcKlP9KUUMQo9Xobyu7cH986u0aFtg,,,,,,,,,,,
,,,,,,,,,,,,,,p,1,0.43102,space,0.285065,0,50,50,21,1,0_dist_green/trial22.png,,,1,0,greenverival,p,39,20,female,2021-02-21_16h21.50.229,exp11,2020.2.6,Win32,60,IwAR0ad7ImPw7teSdjRuB99MCN_LumoqcKlP9KUUMQo9Xobyu7cH986u0aFtg,,,,,,,,,,,
,,,,,,,,,,,,,,a,1,0.720495,space,0.287935,0,51,51,134,1,0_targ_4_dist_green/trial10.png,,,0,4,greenverival,a,39,20,female,2021-02-21_16h21.50.229,exp11,2020.2.6,Win32,60,IwAR0ad7ImPw7teSdjRuB99MCN_LumoqcKlP9KUUMQo9Xobyu7cH986u0aFtg,,,,,,,,,,,
,,,,,,,,,,,,,,p,1,0.58602,space,0.313315,0,52,52,89,1,15_dist_green/trial15.png,,,1,15,greenverival,p,39,20,female,2021-02-21_16h21.50.229,exp11,2020.2.6,Win32,60,IwAR0ad7ImPw7teSdjRuB99MCN_LumoqcKlP9KUUMQo9Xobyu7cH986u0aFtg,,,,,,,,,,,
,,,,,,,,,,,,,,p,1,0.76127,space,0.30221,0,53,53,54,1,9_dist_green/trial5.png,,,1,9,greenverival,p,39,20,female,2021-02-21_16h21.50.229,exp11,2020.2.6,Win32,60,IwAR0ad7ImPw7teSdjRuB99MCN_LumoqcKlP9KUUMQo9Xobyu7cH986u0aFtg,,,,,,,,,,,
,,,,,,,,,,,,,,a,1,0.812745,space,0.300325,0,54,54,194,1,0_targ_16_dist_green/trial20.png,,,0,16,greenverival,a,39,20,female,2021-02-21_16h21.50.229,exp11,2020.2.6,Win32,60,IwAR0ad7ImPw7teSdjRuB99MCN_LumoqcKlP9KUUMQo9Xobyu7cH986u0aFtg,,,,,,,,,,,
,,,,,,,,,,,,,,a,1,0.67741,space,0.30485,0,55,55,168,1,0_targ_10_dist_green/trial19.png,,,0,10,greenverival,a,39,20,female,2021-02-21_16h21.50.229,exp11,2020.2.6,Win32,60,IwAR0ad7ImPw7teSdjRuB99MCN_LumoqcKlP9KUUMQo9Xobyu7cH986u0aFtg,,,,,,,,,,,
,,,,,,,,,,,,,,a,1,0.53259,space,0.35152,0,56,56,160,1,0_targ_10_dist_green/trial11.png,,,0,10,greenverival,a,39,20,female,2021-02-21_16h21.50.229,exp11,2020.2.6,Win32,60,IwAR0ad7ImPw7teSdjRuB99MCN_LumoqcKlP9KUUMQo9Xobyu7cH986u0aFtg,,,,,,,,,,,
,,,,,,,,,,,,,,p,1,0.56074,space,0.26269,0,57,57,92,1,15_dist_green/trial18.png,,,1,15,greenverival,p,39,20,female,2021-02-21_16h21.50.229,exp11,2020.2.6,Win32,60,IwAR0ad7ImPw7teSdjRuB99MCN_LumoqcKlP9KUUMQo9Xobyu7cH986u0aFtg,,,,,,,,,,,
,,,,,,,,,,,,,,p,0,0.548465,space,1.562345,0,58,58,122,1,0_targ_1_dist_green/trial23.png,,,0,1,greenverival,a,39,20,female,2021-02-21_16h21.50.229,exp11,2020.2.6,Win32,60,IwAR0ad7ImPw7teSdjRuB99MCN_LumoqcKlP9KUUMQo9Xobyu7cH986u0aFtg,,,,,,,,,,,
,,,,,,,,,,,,,,a,1,0.943785,space,0.244175,0,59,59,117,1,0_targ_1_dist_green/trial18.png,,,0,1,greenverival,a,39,20,female,2021-02-21_16h21.50.229,exp11,2020.2.6,Win32,60,IwAR0ad7ImPw7teSdjRuB99MCN_LumoqcKlP9KUUMQo9Xobyu7cH986u0aFtg,,,,,,,,,,,
,,,,,,,,,,,,,,p,1,0.64159,space,0.26703,0,60,60,0,1,0_dist_green/trial1.png,,,1,0,greenverival,p,39,20,female,2021-02-21_16h21.50.229,exp11,2020.2.6,Win32,60,IwAR0ad7ImPw7teSdjRuB99MCN_LumoqcKlP9KUUMQo9Xobyu7cH986u0aFtg,,,,,,,,,,,
,,,,,,,,,,,,,,a,1,1.1423,space,0.333555,0,61,61,127,1,0_targ_4_dist_green/trial3.png,,,0,4,greenverival,a,39,20,female,2021-02-21_16h21.50.229,exp11,2020.2.6,Win32,60,IwAR0ad7ImPw7teSdjRuB99MCN_LumoqcKlP9KUUMQo9Xobyu7cH986u0aFtg,,,,,,,,,,,
,,,,,,,,,,,,,,p,1,1.07479,space,0.268675,0,62,62,90,1,15_dist_green/trial16.png,,,1,15,greenverival,p,39,20,female,2021-02-21_16h21.50.229,exp11,2020.2.6,Win32,60,IwAR0ad7ImPw7teSdjRuB99MCN_LumoqcKlP9KUUMQo9Xobyu7cH986u0aFtg,,,,,,,,,,,
,,,,,,,,,,,,,,a,1,0.69089,space,0.322385,0,63,63,119,1,0_targ_1_dist_green/trial20.png,,,0,1,greenverival,a,39,20,female,2021-02-21_16h21.50.229,exp11,2020.2.6,Win32,60,IwAR0ad7ImPw7teSdjRuB99MCN_LumoqcKlP9KUUMQo9Xobyu7cH986u0aFtg,,,,,,,,,,,
,,,,,,,,,,,,,,p,1,0.969145,space,0.2849,0,64,64,27,1,3_dist_green/trial3.png,,,1,3,greenverival,p,39,20,female,2021-02-21_16h21.50.229,exp11,2020.2.6,Win32,60,IwAR0ad7ImPw7teSdjRuB99MCN_LumoqcKlP9KUUMQo9Xobyu7cH986u0aFtg,,,,,,,,,,,
,,,,,,,,,,,,,,a,1,1.122385,space,0.40129,0,65,65,111,1,0_targ_1_dist_green/trial12.png,,,0,1,greenverival,a,39,20,female,2021-02-21_16h21.50.229,exp11,2020.2.6,Win32,60,IwAR0ad7ImPw7teSdjRuB99MCN_LumoqcKlP9KUUMQo9Xobyu7cH986u0aFtg,,,,,,,,,,,
,,,,,,,,,,,,,,a,1,0.795385,space,0.315515,0,66,66,173,1,0_targ_10_dist_green/trial24.png,,,0,10,greenverival,a,39,20,female,2021-02-21_16h21.50.229,exp11,2020.2.6,Win32,60,IwAR0ad7ImPw7teSdjRuB99MCN_LumoqcKlP9KUUMQo9Xobyu7cH986u0aFtg,,,,,,,,,,,
,,,,,,,,,,,,,,a,1,0.696355,space,0.272895,0,67,67,184,1,0_targ_16_dist_green/trial10.png,,,0,16,greenverival,a,39,20,female,2021-02-21_16h21.50.229,exp11,2020.2.6,Win32,60,IwAR0ad7ImPw7teSdjRuB99MCN_LumoqcKlP9KUUMQo9Xobyu7cH986u0aFtg,,,,,,,,,,,
,,,,,,,,,,,,,,p,1,0.559555,space,0.30211,0,68,68,11,1,0_dist_green/trial12.png,,,1,0,greenverival,p,39,20,female,2021-02-21_16h21.50.229,exp11,2020.2.6,Win32,60,IwAR0ad7ImPw7teSdjRuB99MCN_LumoqcKlP9KUUMQo9Xobyu7cH986u0aFtg,,,,,,,,,,,
,,,,,,,,,,,,,,p,1,0.730895,space,0.277555,0,69,69,93,1,15_dist_green/trial19.png,,,1,15,greenverival,p,39,20,female,2021-02-21_16h21.50.229,exp11,2020.2.6,Win32,60,IwAR0ad7ImPw7teSdjRuB99MCN_LumoqcKlP9KUUMQo9Xobyu7cH986u0aFtg,,,,,,,,,,,
,,,,,,,,,,,,,,a,0,0.70901,space,0.275735,0,70,70,81,1,15_dist_green/trial7.png,,,1,15,greenverival,p,39,20,female,2021-02-21_16h21.50.229,exp11,2020.2.6,Win32,60,IwAR0ad7ImPw7teSdjRuB99MCN_LumoqcKlP9KUUMQo9Xobyu7cH986u0aFtg,,,,,,,,,,,
,,,,,,,,,,,,,,a,1,0.88942,space,0.24331,0,71,71,106,1,0_targ_1_dist_green/trial7.png,,,0,1,greenverival,a,39,20,female,2021-02-21_16h21.50.229,exp11,2020.2.6,Win32,60,IwAR0ad7ImPw7teSdjRuB99MCN_LumoqcKlP9KUUMQo9Xobyu7cH986u0aFtg,,,,,,,,,,,
,,,,,,,,,,,,,,a,1,0.82034,space,0.33459,0,72,72,195,1,0_targ_16_dist_green/trial21.png,,,0,16,greenverival,a,39,20,female,2021-02-21_16h21.50.229,exp11,2020.2.6,Win32,60,IwAR0ad7ImPw7teSdjRuB99MCN_LumoqcKlP9KUUMQo9Xobyu7cH986u0aFtg,,,,,,,,,,,
,,,,,,,,,,,,,,p,1,0.76781,space,0.31981,0,73,73,84,1,15_dist_green/trial10.png,,,1,15,greenverival,p,39,20,female,2021-02-21_16h21.50.229,exp11,2020.2.6,Win32,60,IwAR0ad7ImPw7teSdjRuB99MCN_LumoqcKlP9KUUMQo9Xobyu7cH986u0aFtg,,,,,,,,,,,
,,,,,,,,,,,,,,a,1,0.76604,space,0.301635,0,74,74,162,1,0_targ_10_dist_green/trial13.png,,,0,10,greenverival,a,39,20,female,2021-02-21_16h21.50.229,exp11,2020.2.6,Win32,60,IwAR0ad7ImPw7teSdjRuB99MCN_LumoqcKlP9KUUMQo9Xobyu7cH986u0aFtg,,,,,,,,,,,
,,,,,,,,,,,,,,p,1,0.613575,space,0.303995,0,75,75,43,1,3_dist_green/trial19.png,,,1,3,greenverival,p,39,20,female,2021-02-21_16h21.50.229,exp11,2020.2.6,Win32,60,IwAR0ad7ImPw7teSdjRuB99MCN_LumoqcKlP9KUUMQo9Xobyu7cH986u0aFtg,,,,,,,,,,,
,,,,,,,,,,,,,,p,1,1.005105,space,0.26724,0,76,76,50,1,9_dist_green/trial1.png,,,1,9,greenverival,p,39,20,female,2021-02-21_16h21.50.229,exp11,2020.2.6,Win32,60,IwAR0ad7ImPw7teSdjRuB99MCN_LumoqcKlP9KUUMQo9Xobyu7cH986u0aFtg,,,,,,,,,,,
,,,,,,,,,,,,,,a,1,0.74397,space,0.30073,0,77,77,130,1,0_targ_4_dist_green/trial6.png,,,0,4,greenverival,a,39,20,female,2021-02-21_16h21.50.229,exp11,2020.2.6,Win32,60,IwAR0ad7ImPw7teSdjRuB99MCN_LumoqcKlP9KUUMQo9Xobyu7cH986u0aFtg,,,,,,,,,,,
,,,,,,,,,,,,,,p,1,1.310485,space,0.2582,0,78,78,2,1,0_dist_green/trial3.png,,,1,0,greenverival,p,39,20,female,2021-02-21_16h21.50.229,exp11,2020.2.6,Win32,60,IwAR0ad7ImPw7teSdjRuB99MCN_LumoqcKlP9KUUMQo9Xobyu7cH986u0aFtg,,,,,,,,,,,
,,,,,,,,,,,,,,p,1,0.607745,space,0.253365,0,79,79,71,1,9_dist_green/trial22.png,,,1,9,greenverival,p,39,20,female,2021-02-21_16h21.50.229,exp11,2020.2.6,Win32,60,IwAR0ad7ImPw7teSdjRuB99MCN_LumoqcKlP9KUUMQo9Xobyu7cH986u0aFtg,,,,,,,,,,,
,,,,,,,,,,,,,,p,1,0.587345,space,0.250145,0,80,80,45,1,3_dist_green/trial21.png,,,1,3,greenverival,p,39,20,female,2021-02-21_16h21.50.229,exp11,2020.2.6,Win32,60,IwAR0ad7ImPw7teSdjRuB99MCN_LumoqcKlP9KUUMQo9Xobyu7cH986u0aFtg,,,,,,,,,,,
,,,,,,,,,,,,,,p,1,0.49146,space,0.284245,0,81,81,44,1,3_dist_green/trial20.png,,,1,3,greenverival,p,39,20,female,2021-02-21_16h21.50.229,exp11,2020.2.6,Win32,60,IwAR0ad7ImPw7teSdjRuB99MCN_LumoqcKlP9KUUMQo9Xobyu7cH986u0aFtg,,,,,,,,,,,
,,,,,,,,,,,,,,p,1,0.455885,space,0.267355,0,82,82,9,1,0_dist_green/trial10.png,,,1,0,greenverival,p,39,20,female,2021-02-21_16h21.50.229,exp11,2020.2.6,Win32,60,IwAR0ad7ImPw7teSdjRuB99MCN_LumoqcKlP9KUUMQo9Xobyu7cH986u0aFtg,,,,,,,,,,,
,,,,,,,,,,,,,,a,1,0.51536,space,0.26829,0,83,83,129,1,0_targ_4_dist_green/trial5.png,,,0,4,greenverival,a,39,20,female,2021-02-21_16h21.50.229,exp11,2020.2.6,Win32,60,IwAR0ad7ImPw7teSdjRuB99MCN_LumoqcKlP9KUUMQo9Xobyu7cH986u0aFtg,,,,,,,,,,,
,,,,,,,,,,,,,,a,1,0.51049,space,0.301215,0,84,84,143,1,0_targ_4_dist_green/trial19.png,,,0,4,greenverival,a,39,20,female,2021-02-21_16h21.50.229,exp11,2020.2.6,Win32,60,IwAR0ad7ImPw7teSdjRuB99MCN_LumoqcKlP9KUUMQo9Xobyu7cH986u0aFtg,,,,,,,,,,,
,,,,,,,,,,,,,,a,1,0.482495,space,0.27647,0,85,85,140,1,0_targ_4_dist_green/trial6.png,,,0,4,greenverival,a,39,20,female,2021-02-21_16h21.50.229,exp11,2020.2.6,Win32,60,IwAR0ad7ImPw7teSdjRuB99MCN_LumoqcKlP9KUUMQo9Xobyu7cH986u0aFtg,,,,,,,,,,,
,,,,,,,,,,,,,,p,1,0.45868,space,0.255505,0,86,86,20,1,0_dist_green/trial21.png,,,1,0,greenverival,p,39,20,female,2021-02-21_16h21.50.229,exp11,2020.2.6,Win32,60,IwAR0ad7ImPw7teSdjRuB99MCN_LumoqcKlP9KUUMQo9Xobyu7cH986u0aFtg,,,,,,,,,,,
,,,,,,,,,,,,,,p,1,0.85928,space,0.22793,0,87,87,46,1,3_dist_green/trial22.png,,,1,3,greenverival,p,39,20,female,2021-02-21_16h21.50.229,exp11,2020.2.6,Win32,60,IwAR0ad7ImPw7teSdjRuB99MCN_LumoqcKlP9KUUMQo9Xobyu7cH986u0aFtg,,,,,,,,,,,
,,,,,,,,,,,,,,p,1,0.56271,space,0.267155,0,88,88,60,1,9_dist_green/trial11.png,,,1,9,greenverival,p,39,20,female,2021-02-21_16h21.50.229,exp11,2020.2.6,Win32,60,IwAR0ad7ImPw7teSdjRuB99MCN_LumoqcKlP9KUUMQo9Xobyu7cH986u0aFtg,,,,,,,,,,,
,,,,,,,,,,,,,,p,1,0.642485,space,0.25253,0,89,89,80,1,15_dist_green/trial6.png,,,1,15,greenverival,p,39,20,female,2021-02-21_16h21.50.229,exp11,2020.2.6,Win32,60,IwAR0ad7ImPw7teSdjRuB99MCN_LumoqcKlP9KUUMQo9Xobyu7cH986u0aFtg,,,,,,,,,,,
,,,,,,,,,,,,,,p,1,0.49485,space,0.286665,0,90,90,6,1,0_dist_green/trial7.png,,,1,0,greenverival,p,39,20,female,2021-02-21_16h21.50.229,exp11,2020.2.6,Win32,60,IwAR0ad7ImPw7teSdjRuB99MCN_LumoqcKlP9KUUMQo9Xobyu7cH986u0aFtg,,,,,,,,,,,
,,,,,,,,,,,,,,p,1,0.706825,space,0.317895,0,91,91,96,1,15_dist_green/trial22.png,,,1,15,greenverival,p,39,20,female,2021-02-21_16h21.50.229,exp11,2020.2.6,Win32,60,IwAR0ad7ImPw7teSdjRuB99MCN_LumoqcKlP9KUUMQo9Xobyu7cH986u0aFtg,,,,,,,,,,,
,,,,,,,,,,,,,,a,0,0.65911,space,3.944525,0,92,92,59,1,9_dist_green/trial10.png,,,1,9,greenverival,p,39,20,female,2021-02-21_16h21.50.229,exp11,2020.2.6,Win32,60,IwAR0ad7ImPw7teSdjRuB99MCN_LumoqcKlP9KUUMQo9Xobyu7cH986u0aFtg,,,,,,,,,,,
,,,,,,,,,,,,,,a,1,0.976705,space,0.25788,0,93,93,183,1,0_targ_16_dist_green/trial9.png,,,0,16,greenverival,a,39,20,female,2021-02-21_16h21.50.229,exp11,2020.2.6,Win32,60,IwAR0ad7ImPw7teSdjRuB99MCN_LumoqcKlP9KUUMQo9Xobyu7cH986u0aFtg,,,,,,,,,,,
,,,,,,,,,,,,,,a,1,0.995345,space,0.306385,0,94,94,198,1,0_targ_16_dist_green/trial24.png,,,0,16,greenverival,a,39,20,female,2021-02-21_16h21.50.229,exp11,2020.2.6,Win32,60,IwAR0ad7ImPw7teSdjRuB99MCN_LumoqcKlP9KUUMQo9Xobyu7cH986u0aFtg,,,,,,,,,,,
,,,,,,,,,,,,,,a,1,0.84095,space,0.31886,0,95,95,151,1,0_targ_10_dist_green/trial2.png,,,0,10,greenverival,a,39,20,female,2021-02-21_16h21.50.229,exp11,2020.2.6,Win32,60,IwAR0ad7ImPw7teSdjRuB99MCN_LumoqcKlP9KUUMQo9Xobyu7cH986u0aFtg,,,,,,,,,,,
,,,,,,,,,,,,,,a,1,0.61142,space,0.310405,0,96,96,137,1,0_targ_4_dist_green/trial13.png,,,0,4,greenverival,a,39,20,female,2021-02-21_16h21.50.229,exp11,2020.2.6,Win32,60,IwAR0ad7ImPw7teSdjRuB99MCN_LumoqcKlP9KUUMQo9Xobyu7cH986u0aFtg,,,,,,,,,,,
,,,,,,,,,,,,,,a,1,0.540875,space,0.302245,0,97,97,128,1,0_targ_4_dist_green/trial4.png,,,0,4,greenverival,a,39,20,female,2021-02-21_16h21.50.229,exp11,2020.2.6,Win32,60,IwAR0ad7ImPw7teSdjRuB99MCN_LumoqcKlP9KUUMQo9Xobyu7cH986u0aFtg,,,,,,,,,,,
,,,,,,,,,,,,,,p,1,0.662575,space,0.286005,0,98,98,74,1,9_dist_green/trial25.png,,,1,9,greenverival,p,39,20,female,2021-02-21_16h21.50.229,exp11,2020.2.6,Win32,60,IwAR0ad7ImPw7teSdjRuB99MCN_LumoqcKlP9KUUMQo9Xobyu7cH986u0aFtg,,,,,,,,,,,
,,,,,,,,,,,,,,p,1,0.50876,space,0.252995,0,99,99,14,1,0_dist_green/trial15.png,,,1,0,greenverival,p,39,20,female,2021-02-21_16h21.50.229,exp11,2020.2.6,Win32,60,IwAR0ad7ImPw7teSdjRuB99MCN_LumoqcKlP9KUUMQo9Xobyu7cH986u0aFtg,,,,,,,,,,,
,,,,,,,,,,,,,,a,1,1.0067,space,0.28455,0,100,100,192,1,0_targ_16_dist_green/trial18.png,,,0,16,greenverival,a,39,20,female,2021-02-21_16h21.50.229,exp11,2020.2.6,Win32,60,IwAR0ad7ImPw7teSdjRuB99MCN_LumoqcKlP9KUUMQo9Xobyu7cH986u0aFtg,,,,,,,,,,,
,,,,,,,,,,,,,,a,1,0.570385,space,0.28284,0,101,101,131,1,0_targ_4_dist_green/trial7.png,,,0,4,greenverival,a,39,20,female,2021-02-21_16h21.50.229,exp11,2020.2.6,Win32,60,IwAR0ad7ImPw7teSdjRuB99MCN_LumoqcKlP9KUUMQo9Xobyu7cH986u0aFtg,,,,,,,,,,,
,,,,,,,,,,,,,,p,1,0.68,space,0.301205,0,102,102,53,1,9_dist_green/trial4.png,,,1,9,greenverival,p,39,20,female,2021-02-21_16h21.50.229,exp11,2020.2.6,Win32,60,IwAR0ad7ImPw7teSdjRuB99MCN_LumoqcKlP9KUUMQo9Xobyu7cH986u0aFtg,,,,,,,,,,,
,,,,,,,,,,,,,,p,1,0.5151,space,0.268645,0,103,103,7,1,0_dist_green/trial8.png,,,1,0,greenverival,p,39,20,female,2021-02-21_16h21.50.229,exp11,2020.2.6,Win32,60,IwAR0ad7ImPw7teSdjRuB99MCN_LumoqcKlP9KUUMQo9Xobyu7cH986u0aFtg,,,,,,,,,,,
,,,,,,,,,,,,,,p,1,0.48707,space,0.28507,0,104,104,24,1,0_dist_green/trial25.png,,,1,0,greenverival,p,39,20,female,2021-02-21_16h21.50.229,exp11,2020.2.6,Win32,60,IwAR0ad7ImPw7teSdjRuB99MCN_LumoqcKlP9KUUMQo9Xobyu7cH986u0aFtg,,,,,,,,,,,
,,,,,,,,,,,,,,a,1,0.87631,space,0.28524,0,105,105,179,1,0_targ_16_dist_green/trial5.png,,,0,16,greenverival,a,39,20,female,2021-02-21_16h21.50.229,exp11,2020.2.6,Win32,60,IwAR0ad7ImPw7teSdjRuB99MCN_LumoqcKlP9KUUMQo9Xobyu7cH986u0aFtg,,,,,,,,,,,
,,,,,,,,,,,,,,a,1,0.526265,space,0.255115,0,106,106,100,1,0_targ_1_dist_green/trial1.png,,,0,1,greenverival,a,39,20,female,2021-02-21_16h21.50.229,exp11,2020.2.6,Win32,60,IwAR0ad7ImPw7teSdjRuB99MCN_LumoqcKlP9KUUMQo9Xobyu7cH986u0aFtg,,,,,,,,,,,
,,,,,,,,,,,,,,a,1,0.643775,space,0.21829,0,107,107,123,1,0_targ_1_dist_green/trial24.png,,,0,1,greenverival,a,39,20,female,2021-02-21_16h21.50.229,exp11,2020.2.6,Win32,60,IwAR0ad7ImPw7teSdjRuB99MCN_LumoqcKlP9KUUMQo9Xobyu7cH986u0aFtg,,,,,,,,,,,
,,,,,,,,,,,,,,p,1,0.86465,space,0.289575,0,108,108,97,1,15_dist_green/trial23.png,,,1,15,greenverival,p,39,20,female,2021-02-21_16h21.50.229,exp11,2020.2.6,Win32,60,IwAR0ad7ImPw7teSdjRuB99MCN_LumoqcKlP9KUUMQo9Xobyu7cH986u0aFtg,,,,,,,,,,,
,,,,,,,,,,,,,,a,1,1.0104,space,0.286135,0,109,109,170,1,0_targ_10_dist_green/trial21.png,,,0,10,greenverival,a,39,20,female,2021-02-21_16h21.50.229,exp11,2020.2.6,Win32,60,IwAR0ad7ImPw7teSdjRuB99MCN_LumoqcKlP9KUUMQo9Xobyu7cH986u0aFtg,,,,,,,,,,,
,,,,,,,,,,,,,,p,1,0.82157,space,0.30166,0,110,110,79,1,15_dist_green/trial5.png,,,1,15,greenverival,p,39,20,female,2021-02-21_16h21.50.229,exp11,2020.2.6,Win32,60,IwAR0ad7ImPw7teSdjRuB99MCN_LumoqcKlP9KUUMQo9Xobyu7cH986u0aFtg,,,,,,,,,,,
,,,,,,,,,,,,,,p,1,0.74982,space,0.255285,0,111,111,56,1,9_dist_green/trial7.png,,,1,9,greenverival,p,39,20,female,2021-02-21_16h21.50.229,exp11,2020.2.6,Win32,60,IwAR0ad7ImPw7teSdjRuB99MCN_LumoqcKlP9KUUMQo9Xobyu7cH986u0aFtg,,,,,,,,,,,
,,,,,,,,,,,,,,a,1,0.62767,space,0.3023,0,112,112,116,1,0_targ_1_dist_green/trial17.png,,,0,1,greenverival,a,39,20,female,2021-02-21_16h21.50.229,exp11,2020.2.6,Win32,60,IwAR0ad7ImPw7teSdjRuB99MCN_LumoqcKlP9KUUMQo9Xobyu7cH986u0aFtg,,,,,,,,,,,
,,,,,,,,,,,,,,p,1,0.568645,space,0.26551,0,113,113,86,1,15_dist_green/trial12.png,,,1,15,greenverival,p,39,20,female,2021-02-21_16h21.50.229,exp11,2020.2.6,Win32,60,IwAR0ad7ImPw7teSdjRuB99MCN_LumoqcKlP9KUUMQo9Xobyu7cH986u0aFtg,,,,,,,,,,,
,,,,,,,,,,,,,,a,1,0.77333,space,0.254675,0,114,114,166,1,0_targ_10_dist_green/trial17.png,,,0,10,greenverival,a,39,20,female,2021-02-21_16h21.50.229,exp11,2020.2.6,Win32,60,IwAR0ad7ImPw7teSdjRuB99MCN_LumoqcKlP9KUUMQo9Xobyu7cH986u0aFtg,,,,,,,,,,,
,,,,,,,,,,,,,,p,1,0.526095,space,0.2741,0,115,115,17,1,0_dist_green/trial18.png,,,1,0,greenverival,p,39,20,female,2021-02-21_16h21.50.229,exp11,2020.2.6,Win32,60,IwAR0ad7ImPw7teSdjRuB99MCN_LumoqcKlP9KUUMQo9Xobyu7cH986u0aFtg,,,,,,,,,,,
,,,,,,,,,,,,,,p,1,1.363175,space,0.26916,0,116,116,95,1,15_dist_green/trial21.png,,,1,15,greenverival,p,39,20,female,2021-02-21_16h21.50.229,exp11,2020.2.6,Win32,60,IwAR0ad7ImPw7teSdjRuB99MCN_LumoqcKlP9KUUMQo9Xobyu7cH986u0aFtg,,,,,,,,,,,
,,,,,,,,,,,,,,a,1,0.657965,space,0.284625,0,117,117,120,1,0_targ_1_dist_green/trial21.png,,,0,1,greenverival,a,39,20,female,2021-02-21_16h21.50.229,exp11,2020.2.6,Win32,60,IwAR0ad7ImPw7teSdjRuB99MCN_LumoqcKlP9KUUMQo9Xobyu7cH986u0aFtg,,,,,,,,,,,
,,,,,,,,,,,,,,a,1,0.73701,space,0.25607,0,118,118,104,1,0_targ_1_dist_green/trial5.png,,,0,1,greenverival,a,39,20,female,2021-02-21_16h21.50.229,exp11,2020.2.6,Win32,60,IwAR0ad7ImPw7teSdjRuB99MCN_LumoqcKlP9KUUMQo9Xobyu7cH986u0aFtg,,,,,,,,,,,
,,,,,,,,,,,,,,a,1,0.420445,space,0.25397,0,119,119,103,1,0_targ_1_dist_green/trial4.png,,,0,1,greenverival,a,39,20,female,2021-02-21_16h21.50.229,exp11,2020.2.6,Win32,60,IwAR0ad7ImPw7teSdjRuB99MCN_LumoqcKlP9KUUMQo9Xobyu7cH986u0aFtg,,,,,,,,,,,
,,,,,,,,,,,,,,a,1,0.90639,space,0.26784,0,120,120,139,1,0_targ_4_dist_green/trial15.png,,,0,4,greenverival,a,39,20,female,2021-02-21_16h21.50.229,exp11,2020.2.6,Win32,60,IwAR0ad7ImPw7teSdjRuB99MCN_LumoqcKlP9KUUMQo9Xobyu7cH986u0aFtg,,,,,,,,,,,
,,,,,,,,,,,,,,p,1,0.61969,space,0.267765,0,121,121,52,1,9_dist_green/trial3.png,,,1,9,greenverival,p,39,20,female,2021-02-21_16h21.50.229,exp11,2020.2.6,Win32,60,IwAR0ad7ImPw7teSdjRuB99MCN_LumoqcKlP9KUUMQo9Xobyu7cH986u0aFtg,,,,,,,,,,,
,,,,,,,,,,,,,,a,1,1.106555,space,0.33434,0,122,122,133,1,0_targ_4_dist_green/trial9.png,,,0,4,greenverival,a,39,20,female,2021-02-21_16h21.50.229,exp11,2020.2.6,Win32,60,IwAR0ad7ImPw7teSdjRuB99MCN_LumoqcKlP9KUUMQo9Xobyu7cH986u0aFtg,,,,,,,,,,,
,,,,,,,,,,,,,,p,1,0.5631,space,0.258195,0,123,123,57,1,9_dist_green/trial8.png,,,1,9,greenverival,p,39,20,female,2021-02-21_16h21.50.229,exp11,2020.2.6,Win32,60,IwAR0ad7ImPw7teSdjRuB99MCN_LumoqcKlP9KUUMQo9Xobyu7cH986u0aFtg,,,,,,,,,,,
,,,,,,,,,,,,,,a,1,1.106675,space,0.30169,0,124,124,196,1,0_targ_16_dist_green/trial22.png,,,0,16,greenverival,a,39,20,female,2021-02-21_16h21.50.229,exp11,2020.2.6,Win32,60,IwAR0ad7ImPw7teSdjRuB99MCN_LumoqcKlP9KUUMQo9Xobyu7cH986u0aFtg,,,,,,,,,,,
,,,,,,,,,,,,,,a,1,0.68372,space,0.318995,0,125,125,112,1,0_targ_1_dist_green/trial13.png,,,0,1,greenverival,a,39,20,female,2021-02-21_16h21.50.229,exp11,2020.2.6,Win32,60,IwAR0ad7ImPw7teSdjRuB99MCN_LumoqcKlP9KUUMQo9Xobyu7cH986u0aFtg,,,,,,,,,,,
,,,,,,,,,,,,,,p,1,0.59692,space,0.24193,0,126,126,88,1,15_dist_green/trial14.png,,,1,15,greenverival,p,39,20,female,2021-02-21_16h21.50.229,exp11,2020.2.6,Win32,60,IwAR0ad7ImPw7teSdjRuB99MCN_LumoqcKlP9KUUMQo9Xobyu7cH986u0aFtg,,,,,,,,,,,
,,,,,,,,,,,,,,a,1,1.002385,space,0.209065,0,127,127,108,1,0_targ_1_dist_green/trial9.png,,,0,1,greenverival,a,39,20,female,2021-02-21_16h21.50.229,exp11,2020.2.6,Win32,60,IwAR0ad7ImPw7teSdjRuB99MCN_LumoqcKlP9KUUMQo9Xobyu7cH986u0aFtg,,,,,,,,,,,
,,,,,,,,,,,,,,a,1,0.786035,space,0.1969,0,128,128,145,1,0_targ_4_dist_green/trial21.png,,,0,4,greenverival,a,39,20,female,2021-02-21_16h21.50.229,exp11,2020.2.6,Win32,60,IwAR0ad7ImPw7teSdjRuB99MCN_LumoqcKlP9KUUMQo9Xobyu7cH986u0aFtg,,,,,,,,,,,
,,,,,,,,,,,,,,a,1,0.67844,space,0.21782,0,129,129,121,1,0_targ_1_dist_green/trial22.png,,,0,1,greenverival,a,39,20,female,2021-02-21_16h21.50.229,exp11,2020.2.6,Win32,60,IwAR0ad7ImPw7teSdjRuB99MCN_LumoqcKlP9KUUMQo9Xobyu7cH986u0aFtg,,,,,,,,,,,
,,,,,,,,,,,,,,a,1,0.576735,space,0.26709,0,130,130,107,1,0_targ_1_dist_green/trial8.png,,,0,1,greenverival,a,39,20,female,2021-02-21_16h21.50.229,exp11,2020.2.6,Win32,60,IwAR0ad7ImPw7teSdjRuB99MCN_LumoqcKlP9KUUMQo9Xobyu7cH986u0aFtg,,,,,,,,,,,
,,,,,,,,,,,,,,a,1,0.69667,space,0.267755,0,131,131,156,1,0_targ_10_dist_green/trial7.png,,,0,10,greenverival,a,39,20,female,2021-02-21_16h21.50.229,exp11,2020.2.6,Win32,60,IwAR0ad7ImPw7teSdjRuB99MCN_LumoqcKlP9KUUMQo9Xobyu7cH986u0aFtg,,,,,,,,,,,
,,,,,,,,,,,,,,a,1,0.56486,space,0.267415,0,132,132,118,1,0_targ_1_dist_green/trial19.png,,,0,1,greenverival,a,39,20,female,2021-02-21_16h21.50.229,exp11,2020.2.6,Win32,60,IwAR0ad7ImPw7teSdjRuB99MCN_LumoqcKlP9KUUMQo9Xobyu7cH986u0aFtg,,,,,,,,,,,
,,,,,,,,,,,,,,p,1,0.574545,space,0.25045,0,133,133,66,1,9_dist_green/trial17.png,,,1,9,greenverival,p,39,20,female,2021-02-21_16h21.50.229,exp11,2020.2.6,Win32,60,IwAR0ad7ImPw7teSdjRuB99MCN_LumoqcKlP9KUUMQo9Xobyu7cH986u0aFtg,,,,,,,,,,,
,,,,,,,,,,,,,,p,1,0.548185,space,0.266795,0,134,134,13,1,0_dist_green/trial14.png,,,1,0,greenverival,p,39,20,female,2021-02-21_16h21.50.229,exp11,2020.2.6,Win32,60,IwAR0ad7ImPw7teSdjRuB99MCN_LumoqcKlP9KUUMQo9Xobyu7cH986u0aFtg,,,,,,,,,,,
,,,,,,,,,,,,,,p,1,0.549485,space,0.262655,0,135,135,72,1,9_dist_green/trial23.png,,,1,9,greenverival,p,39,20,female,2021-02-21_16h21.50.229,exp11,2020.2.6,Win32,60,IwAR0ad7ImPw7teSdjRuB99MCN_LumoqcKlP9KUUMQo9Xobyu7cH986u0aFtg,,,,,,,,,,,
,,,,,,,,,,,,,,a,1,0.77173,space,0.236175,0,136,136,189,1,0_targ_16_dist_green/trial15.png,,,0,16,greenverival,a,39,20,female,2021-02-21_16h21.50.229,exp11,2020.2.6,Win32,60,IwAR0ad7ImPw7teSdjRuB99MCN_LumoqcKlP9KUUMQo9Xobyu7cH986u0aFtg,,,,,,,,,,,
,,,,,,,,,,,,,,p,1,0.526375,space,0.267945,0,137,137,87,1,15_dist_green/trial13.png,,,1,15,greenverival,p,39,20,female,2021-02-21_16h21.50.229,exp11,2020.2.6,Win32,60,IwAR0ad7ImPw7teSdjRuB99MCN_LumoqcKlP9KUUMQo9Xobyu7cH986u0aFtg,,,,,,,,,,,
,,,,,,,,,,,,,,a,1,0.715095,space,0.28425,0,138,138,167,1,0_targ_10_dist_green/trial18.png,,,0,10,greenverival,a,39,20,female,2021-02-21_16h21.50.229,exp11,2020.2.6,Win32,60,IwAR0ad7ImPw7teSdjRuB99MCN_LumoqcKlP9KUUMQo9Xobyu7cH986u0aFtg,,,,,,,,,,,
,,,,,,,,,,,,,,a,1,0.575615,space,0.28175,0,139,139,146,1,0_targ_4_dist_green/trial22.png,,,0,4,greenverival,a,39,20,female,2021-02-21_16h21.50.229,exp11,2020.2.6,Win32,60,IwAR0ad7ImPw7teSdjRuB99MCN_LumoqcKlP9KUUMQo9Xobyu7cH986u0aFtg,,,,,,,,,,,
,,,,,,,,,,,,,,a,1,0.670005,space,0.27927,0,140,140,164,1,0_targ_10_dist_green/trial15.png,,,0,10,greenverival,a,39,20,female,2021-02-21_16h21.50.229,exp11,2020.2.6,Win32,60,IwAR0ad7ImPw7teSdjRuB99MCN_LumoqcKlP9KUUMQo9Xobyu7cH986u0aFtg,,,,,,,,,,,
,,,,,,,,,,,,,,p,1,0.62679,space,0.30145,0,141,141,63,1,9_dist_green/trial14.png,,,1,9,greenverival,p,39,20,female,2021-02-21_16h21.50.229,exp11,2020.2.6,Win32,60,IwAR0ad7ImPw7teSdjRuB99MCN_LumoqcKlP9KUUMQo9Xobyu7cH986u0aFtg,,,,,,,,,,,
,,,,,,,,,,,,,,p,1,0.87718,space,0.28486,0,142,142,10,1,0_dist_green/trial11.png,,,1,0,greenverival,p,39,20,female,2021-02-21_16h21.50.229,exp11,2020.2.6,Win32,60,IwAR0ad7ImPw7teSdjRuB99MCN_LumoqcKlP9KUUMQo9Xobyu7cH986u0aFtg,,,,,,,,,,,
,,,,,,,,,,,,,,p,1,0.62655,space,0.301265,0,143,143,28,1,3_dist_green/trial4.png,,,1,3,greenverival,p,39,20,female,2021-02-21_16h21.50.229,exp11,2020.2.6,Win32,60,IwAR0ad7ImPw7teSdjRuB99MCN_LumoqcKlP9KUUMQo9Xobyu7cH986u0aFtg,,,,,,,,,,,
,,,,,,,,,,,,,,p,1,0.509925,space,0.318135,0,144,144,8,1,0_dist_green/trial9.png,,,1,0,greenverival,p,39,20,female,2021-02-21_16h21.50.229,exp11,2020.2.6,Win32,60,IwAR0ad7ImPw7teSdjRuB99MCN_LumoqcKlP9KUUMQo9Xobyu7cH986u0aFtg,,,,,,,,,,,
,,,,,,,,,,,,,,a,1,0.56846,space,0.250465,0,145,145,125,1,0_targ_4_dist_green/trial1.png,,,0,4,greenverival,a,39,20,female,2021-02-21_16h21.50.229,exp11,2020.2.6,Win32,60,IwAR0ad7ImPw7teSdjRuB99MCN_LumoqcKlP9KUUMQo9Xobyu7cH986u0aFtg,,,,,,,,,,,
,,,,,,,,,,,,,,p,1,0.682435,space,0.27514,0,146,146,51,1,9_dist_green/trial2.png,,,1,9,greenverival,p,39,20,female,2021-02-21_16h21.50.229,exp11,2020.2.6,Win32,60,IwAR0ad7ImPw7teSdjRuB99MCN_LumoqcKlP9KUUMQo9Xobyu7cH986u0aFtg,,,,,,,,,,,
,,,,,,,,,,,,,,a,1,0.771015,space,0.267935,0,147,147,159,1,0_targ_10_dist_green/trial10.png,,,0,10,greenverival,a,39,20,female,2021-02-21_16h21.50.229,exp11,2020.2.6,Win32,60,IwAR0ad7ImPw7teSdjRuB99MCN_LumoqcKlP9KUUMQo9Xobyu7cH986u0aFtg,,,,,,,,,,,
,,,,,,,,,,,,,,p,1,0.727375,space,0.25125,0,148,148,58,1,9_dist_green/trial9.png,,,1,9,greenverival,p,39,20,female,2021-02-21_16h21.50.229,exp11,2020.2.6,Win32,60,IwAR0ad7ImPw7teSdjRuB99MCN_LumoqcKlP9KUUMQo9Xobyu7cH986u0aFtg,,,,,,,,,,,
,,,,,,,,,,,,,,p,1,0.64431,space,0.249895,0,149,149,91,1,15_dist_green/trial17.png,,,1,15,greenverival,p,39,20,female,2021-02-21_16h21.50.229,exp11,2020.2.6,Win32,60,IwAR0ad7ImPw7teSdjRuB99MCN_LumoqcKlP9KUUMQo9Xobyu7cH986u0aFtg,,,,,,,,,,,
,,,,,,,,,,,,,,a,1,0.55694,space,0.254325,0,150,150,126,1,0_targ_4_dist_green/trial2.png,,,0,4,greenverival,a,39,20,female,2021-02-21_16h21.50.229,exp11,2020.2.6,Win32,60,IwAR0ad7ImPw7teSdjRuB99MCN_LumoqcKlP9KUUMQo9Xobyu7cH986u0aFtg,,,,,,,,,,,
,,,,,,,,,,,,,,a,1,0.804865,space,0.271905,0,151,151,191,1,0_targ_16_dist_green/trial17.png,,,0,16,greenverival,a,39,20,female,2021-02-21_16h21.50.229,exp11,2020.2.6,Win32,60,IwAR0ad7ImPw7teSdjRuB99MCN_LumoqcKlP9KUUMQo9Xobyu7cH986u0aFtg,,,,,,,,,,,
,,,,,,,,,,,,,,p,1,0.64376,space,0.270725,0,152,152,83,1,15_dist_green/trial9.png,,,1,15,greenverival,p,39,20,female,2021-02-21_16h21.50.229,exp11,2020.2.6,Win32,60,IwAR0ad7ImPw7teSdjRuB99MCN_LumoqcKlP9KUUMQo9Xobyu7cH986u0aFtg,,,,,,,,,,,
,,,,,,,,,,,,,,a,1,0.746125,space,0.26851,0,153,153,165,1,0_targ_10_dist_green/trial16.png,,,0,10,greenverival,a,39,20,female,2021-02-21_16h21.50.229,exp11,2020.2.6,Win32,60,IwAR0ad7ImPw7teSdjRuB99MCN_LumoqcKlP9KUUMQo9Xobyu7cH986u0aFtg,,,,,,,,,,,
,,,,,,,,,,,,,,p,1,0.507615,space,0.301985,0,154,154,67,1,9_dist_green/trial18.png,,,1,9,greenverival,p,39,20,female,2021-02-21_16h21.50.229,exp11,2020.2.6,Win32,60,IwAR0ad7ImPw7teSdjRuB99MCN_LumoqcKlP9KUUMQo9Xobyu7cH986u0aFtg,,,,,,,,,,,
,,,,,,,,,,,,,,a,1,0.49072,space,0.283525,0,155,155,141,1,0_targ_4_dist_green/trial17.png,,,0,4,greenverival,a,39,20,female,2021-02-21_16h21.50.229,exp11,2020.2.6,Win32,60,IwAR0ad7ImPw7teSdjRuB99MCN_LumoqcKlP9KUUMQo9Xobyu7cH986u0aFtg,,,,,,,,,,,
,,,,,,,,,,,,,,a,1,0.50085,space,0.250635,0,156,156,105,1,0_targ_1_dist_green/trial6.png,,,0,1,greenverival,a,39,20,female,2021-02-21_16h21.50.229,exp11,2020.2.6,Win32,60,IwAR0ad7ImPw7teSdjRuB99MCN_LumoqcKlP9KUUMQo9Xobyu7cH986u0aFtg,,,,,,,,,,,
,,,,,,,,,,,,,,p,1,0.685825,space,0.25159,0,157,157,85,1,15_dist_green/trial11.png,,,1,15,greenverival,p,39,20,female,2021-02-21_16h21.50.229,exp11,2020.2.6,Win32,60,IwAR0ad7ImPw7teSdjRuB99MCN_LumoqcKlP9KUUMQo9Xobyu7cH986u0aFtg,,,,,,,,,,,
,,,,,,,,,,,,,,a,1,0.77965,space,0.2348,0,158,158,174,1,0_targ_10_dist_green/trial25.png,,,0,10,greenverival,a,39,20,female,2021-02-21_16h21.50.229,exp11,2020.2.6,Win32,60,IwAR0ad7ImPw7teSdjRuB99MCN_LumoqcKlP9KUUMQo9Xobyu7cH986u0aFtg,,,,,,,,,,,
,,,,,,,,,,,,,,p,1,0.66479,space,0.28328,0,159,159,5,1,0_dist_green/trial6.png,,,1,0,greenverival,p,39,20,female,2021-02-21_16h21.50.229,exp11,2020.2.6,Win32,60,IwAR0ad7ImPw7teSdjRuB99MCN_LumoqcKlP9KUUMQo9Xobyu7cH986u0aFtg,,,,,,,,,,,
,,,,,,,,,,,,,,p,1,0.523715,space,0.21776,0,160,160,35,1,3_dist_green/trial11.png,,,1,3,greenverival,p,39,20,female,2021-02-21_16h21.50.229,exp11,2020.2.6,Win32,60,IwAR0ad7ImPw7teSdjRuB99MCN_LumoqcKlP9KUUMQo9Xobyu7cH986u0aFtg,,,,,,,,,,,
,,,,,,,,,,,,,,a,0,0.54218,space,0.066185,0,161,161,55,1,9_dist_green/trial6.png,,,1,9,greenverival,p,39,20,female,2021-02-21_16h21.50.229,exp11,2020.2.6,Win32,60,IwAR0ad7ImPw7teSdjRuB99MCN_LumoqcKlP9KUUMQo9Xobyu7cH986u0aFtg,,,,,,,,,,,
,,,,,,,,,,,,,,p,1,1.03765,space,0.19958,0,162,162,77,1,15_dist_green/trial3.png,,,1,15,greenverival,p,39,20,female,2021-02-21_16h21.50.229,exp11,2020.2.6,Win32,60,IwAR0ad7ImPw7teSdjRuB99MCN_LumoqcKlP9KUUMQo9Xobyu7cH986u0aFtg,,,,,,,,,,,
,,,,,,,,,,,,,,a,1,0.798315,space,0.24512,0,163,163,132,1,0_targ_4_dist_green/trial8.png,,,0,4,greenverival,a,39,20,female,2021-02-21_16h21.50.229,exp11,2020.2.6,Win32,60,IwAR0ad7ImPw7teSdjRuB99MCN_LumoqcKlP9KUUMQo9Xobyu7cH986u0aFtg,,,,,,,,,,,
,,,,,,,,,,,,,,a,1,0.866845,space,0.25487,0,164,164,113,1,0_targ_1_dist_green/trial14.png,,,0,1,greenverival,a,39,20,female,2021-02-21_16h21.50.229,exp11,2020.2.6,Win32,60,IwAR0ad7ImPw7teSdjRuB99MCN_LumoqcKlP9KUUMQo9Xobyu7cH986u0aFtg,,,,,,,,,,,
,,,,,,,,,,,,,,p,1,0.57694,space,0.25178,0,165,165,65,1,9_dist_green/trial16.png,,,1,9,greenverival,p,39,20,female,2021-02-21_16h21.50.229,exp11,2020.2.6,Win32,60,IwAR0ad7ImPw7teSdjRuB99MCN_LumoqcKlP9KUUMQo9Xobyu7cH986u0aFtg,,,,,,,,,,,
,,,,,,,,,,,,,,p,1,0.60537,space,0.242135,0,166,166,32,1,3_dist_green/trial8.png,,,1,3,greenverival,p,39,20,female,2021-02-21_16h21.50.229,exp11,2020.2.6,Win32,60,IwAR0ad7ImPw7teSdjRuB99MCN_LumoqcKlP9KUUMQo9Xobyu7cH986u0aFtg,,,,,,,,,,,
,,,,,,,,,,,,,,a,1,0.57336,space,0.186145,0,167,167,148,1,0_targ_4_dist_green/trial24.png,,,0,4,greenverival,a,39,20,female,2021-02-21_16h21.50.229,exp11,2020.2.6,Win32,60,IwAR0ad7ImPw7teSdjRuB99MCN_LumoqcKlP9KUUMQo9Xobyu7cH986u0aFtg,,,,,,,,,,,
,,,,,,,,,,,,,,p,1,0.46408,space,0.19035,0,168,168,37,1,3_dist_green/trial13.png,,,1,3,greenverival,p,39,20,female,2021-02-21_16h21.50.229,exp11,2020.2.6,Win32,60,IwAR0ad7ImPw7teSdjRuB99MCN_LumoqcKlP9KUUMQo9Xobyu7cH986u0aFtg,,,,,,,,,,,
,,,,,,,,,,,,,,p,1,0.508985,space,0.20281,0,169,169,3,1,0_dist_green/trial4.png,,,1,0,greenverival,p,39,20,female,2021-02-21_16h21.50.229,exp11,2020.2.6,Win32,60,IwAR0ad7ImPw7teSdjRuB99MCN_LumoqcKlP9KUUMQo9Xobyu7cH986u0aFtg,,,,,,,,,,,
,,,,,,,,,,,,,,p,1,0.699465,space,0.238285,0,170,170,94,1,15_dist_green/trial20.png,,,1,15,greenverival,p,39,20,female,2021-02-21_16h21.50.229,exp11,2020.2.6,Win32,60,IwAR0ad7ImPw7teSdjRuB99MCN_LumoqcKlP9KUUMQo9Xobyu7cH986u0aFtg,,,,,,,,,,,
,,,,,,,,,,,,,,a,1,0.62967,space,0.202015,0,171,171,197,1,0_targ_16_dist_green/trial23.png,,,0,16,greenverival,a,39,20,female,2021-02-21_16h21.50.229,exp11,2020.2.6,Win32,60,IwAR0ad7ImPw7teSdjRuB99MCN_LumoqcKlP9KUUMQo9Xobyu7cH986u0aFtg,,,,,,,,,,,
,,,,,,,,,,,,,,a,1,0.63698,space,0.20215,0,172,172,110,1,0_targ_1_dist_green/trial11.png,,,0,1,greenverival,a,39,20,female,2021-02-21_16h21.50.229,exp11,2020.2.6,Win32,60,IwAR0ad7ImPw7teSdjRuB99MCN_LumoqcKlP9KUUMQo9Xobyu7cH986u0aFtg,,,,,,,,,,,
,,,,,,,,,,,,,,a,1,0.620495,space,0.225045,0,173,173,177,1,0_targ_16_dist_green/trial3.png,,,0,16,greenverival,a,39,20,female,2021-02-21_16h21.50.229,exp11,2020.2.6,Win32,60,IwAR0ad7ImPw7teSdjRuB99MCN_LumoqcKlP9KUUMQo9Xobyu7cH986u0aFtg,,,,,,,,,,,
,,,,,,,,,,,,,,p,1,0.50815,space,0.233955,0,174,174,47,1,3_dist_green/trial23.png,,,1,3,greenverival,p,39,20,female,2021-02-21_16h21.50.229,exp11,2020.2.6,Win32,60,IwAR0ad7ImPw7teSdjRuB99MCN_LumoqcKlP9KUUMQo9Xobyu7cH986u0aFtg,,,,,,,,,,,
,,,,,,,,,,,,,,a,0,0.64619,space,0.185175,0,175,175,25,1,3_dist_green/trial1.png,,,1,3,greenverival,p,39,20,female,2021-02-21_16h21.50.229,exp11,2020.2.6,Win32,60,IwAR0ad7ImPw7teSdjRuB99MCN_LumoqcKlP9KUUMQo9Xobyu7cH986u0aFtg,,,,,,,,,,,
,,,,,,,,,,,,,,a,1,0.753945,space,0.222345,0,176,176,178,1,0_targ_16_dist_green/trial4.png,,,0,16,greenverival,a,39,20,female,2021-02-21_16h21.50.229,exp11,2020.2.6,Win32,60,IwAR0ad7ImPw7teSdjRuB99MCN_LumoqcKlP9KUUMQo9Xobyu7cH986u0aFtg,,,,,,,,,,,
,,,,,,,,,,,,,,p,1,0.57804,space,0.21965,0,177,177,31,1,3_dist_green/trial7.png,,,1,3,greenverival,p,39,20,female,2021-02-21_16h21.50.229,exp11,2020.2.6,Win32,60,IwAR0ad7ImPw7teSdjRuB99MCN_LumoqcKlP9KUUMQo9Xobyu7cH986u0aFtg,,,,,,,,,,,
,,,,,,,,,,,,,,p,1,0.876925,space,0.21733,0,178,178,99,1,15_dist_green/trial25.png,,,1,15,greenverival,p,39,20,female,2021-02-21_16h21.50.229,exp11,2020.2.6,Win32,60,IwAR0ad7ImPw7teSdjRuB99MCN_LumoqcKlP9KUUMQo9Xobyu7cH986u0aFtg,,,,,,,,,,,
,,,,,,,,,,,,,,a,1,0.56043,space,0.15413,0,179,179,115,1,0_targ_1_dist_green/trial6.png,,,0,1,greenverival,a,39,20,female,2021-02-21_16h21.50.229,exp11,2020.2.6,Win32,60,IwAR0ad7ImPw7teSdjRuB99MCN_LumoqcKlP9KUUMQo9Xobyu7cH986u0aFtg,,,,,,,,,,,
,,,,,,,,,,,,,,p,1,0.77288,space,0.23349,0,180,180,68,1,9_dist_green/trial19.png,,,1,9,greenverival,p,39,20,female,2021-02-21_16h21.50.229,exp11,2020.2.6,Win32,60,IwAR0ad7ImPw7teSdjRuB99MCN_LumoqcKlP9KUUMQo9Xobyu7cH986u0aFtg,,,,,,,,,,,
,,,,,,,,,,,,,,a,1,0.745355,space,0.20145,0,181,181,186,1,0_targ_16_dist_green/trial12.png,,,0,16,greenverival,a,39,20,female,2021-02-21_16h21.50.229,exp11,2020.2.6,Win32,60,IwAR0ad7ImPw7teSdjRuB99MCN_LumoqcKlP9KUUMQo9Xobyu7cH986u0aFtg,,,,,,,,,,,
,,,,,,,,,,,,,,a,1,0.500245,space,0.243905,0,182,182,114,1,0_targ_1_dist_green/trial15.png,,,0,1,greenverival,a,39,20,female,2021-02-21_16h21.50.229,exp11,2020.2.6,Win32,60,IwAR0ad7ImPw7teSdjRuB99MCN_LumoqcKlP9KUUMQo9Xobyu7cH986u0aFtg,,,,,,,,,,,
,,,,,,,,,,,,,,a,1,0.607795,space,0.26822,0,183,183,171,1,0_targ_10_dist_green/trial22.png,,,0,10,greenverival,a,39,20,female,2021-02-21_16h21.50.229,exp11,2020.2.6,Win32,60,IwAR0ad7ImPw7teSdjRuB99MCN_LumoqcKlP9KUUMQo9Xobyu7cH986u0aFtg,,,,,,,,,,,
,,,,,,,,,,,,,,a,1,0.56461,space,0.284075,0,184,184,149,1,0_targ_4_dist_green/trial25.png,,,0,4,greenverival,a,39,20,female,2021-02-21_16h21.50.229,exp11,2020.2.6,Win32,60,IwAR0ad7ImPw7teSdjRuB99MCN_LumoqcKlP9KUUMQo9Xobyu7cH986u0aFtg,,,,,,,,,,,
,,,,,,,,,,,,,,a,1,0.55833,space,0.26815,0,185,185,172,1,0_targ_10_dist_green/trial23.png,,,0,10,greenverival,a,39,20,female,2021-02-21_16h21.50.229,exp11,2020.2.6,Win32,60,IwAR0ad7ImPw7teSdjRuB99MCN_LumoqcKlP9KUUMQo9Xobyu7cH986u0aFtg,,,,,,,,,,,
,,,,,,,,,,,,,,p,1,0.592745,space,0.252595,0,186,186,38,1,3_dist_green/trial14.png,,,1,3,greenverival,p,39,20,female,2021-02-21_16h21.50.229,exp11,2020.2.6,Win32,60,IwAR0ad7ImPw7teSdjRuB99MCN_LumoqcKlP9KUUMQo9Xobyu7cH986u0aFtg,,,,,,,,,,,
,,,,,,,,,,,,,,p,1,0.545515,space,0.2348,0,187,187,48,1,3_dist_green/trial24.png,,,1,3,greenverival,p,39,20,female,2021-02-21_16h21.50.229,exp11,2020.2.6,Win32,60,IwAR0ad7ImPw7teSdjRuB99MCN_LumoqcKlP9KUUMQo9Xobyu7cH986u0aFtg,,,,,,,,,,,
,,,,,,,,,,,,,,p,1,0.712875,space,0.27082,0,188,188,61,1,9_dist_green/trial12.png,,,1,9,greenverival,p,39,20,female,2021-02-21_16h21.50.229,exp11,2020.2.6,Win32,60,IwAR0ad7ImPw7teSdjRuB99MCN_LumoqcKlP9KUUMQo9Xobyu7cH986u0aFtg,,,,,,,,,,,
,,,,,,,,,,,,,,a,1,0.63839,space,0.23483,0,189,189,176,1,0_targ_16_dist_green/trial2.png,,,0,16,greenverival,a,39,20,female,2021-02-21_16h21.50.229,exp11,2020.2.6,Win32,60,IwAR0ad7ImPw7teSdjRuB99MCN_LumoqcKlP9KUUMQo9Xobyu7cH986u0aFtg,,,,,,,,,,,
,,,,,,,,,,,,,,p,1,0.77689,space,0.268495,0,190,190,75,1,15_dist_green/trial1.png,,,1,15,greenverival,p,39,20,female,2021-02-21_16h21.50.229,exp11,2020.2.6,Win32,60,IwAR0ad7ImPw7teSdjRuB99MCN_LumoqcKlP9KUUMQo9Xobyu7cH986u0aFtg,,,,,,,,,,,
,,,,,,,,,,,,,,p,1,0.549235,space,0.285795,0,191,191,49,1,3_dist_green/trial25.png,,,1,3,greenverival,p,39,20,female,2021-02-21_16h21.50.229,exp11,2020.2.6,Win32,60,IwAR0ad7ImPw7teSdjRuB99MCN_LumoqcKlP9KUUMQo9Xobyu7cH986u0aFtg,,,,,,,,,,,
,,,,,,,,,,,,,,p,1,0.53691,space,0.302565,0,192,192,33,1,3_dist_green/trial9.png,,,1,3,greenverival,p,39,20,female,2021-02-21_16h21.50.229,exp11,2020.2.6,Win32,60,IwAR0ad7ImPw7teSdjRuB99MCN_LumoqcKlP9KUUMQo9Xobyu7cH986u0aFtg,,,,,,,,,,,
,,,,,,,,,,,,,,p,1,0.424595,space,0.252375,0,193,193,39,1,3_dist_green/trial15.png,,,1,3,greenverival,p,39,20,female,2021-02-21_16h21.50.229,exp11,2020.2.6,Win32,60,IwAR0ad7ImPw7teSdjRuB99MCN_LumoqcKlP9KUUMQo9Xobyu7cH986u0aFtg,,,,,,,,,,,
,,,,,,,,,,,,,,p,1,0.55493,space,0.20496,0,194,194,64,1,9_dist_green/trial15.png,,,1,9,greenverival,p,39,20,female,2021-02-21_16h21.50.229,exp11,2020.2.6,Win32,60,IwAR0ad7ImPw7teSdjRuB99MCN_LumoqcKlP9KUUMQo9Xobyu7cH986u0aFtg,,,,,,,,,,,
,,,,,,,,,,,,,,p,1,0.57899,space,0.16406,0,195,195,69,1,9_dist_green/trial20.png,,,1,9,greenverival,p,39,20,female,2021-02-21_16h21.50.229,exp11,2020.2.6,Win32,60,IwAR0ad7ImPw7teSdjRuB99MCN_LumoqcKlP9KUUMQo9Xobyu7cH986u0aFtg,,,,,,,,,,,
,,,,,,,,,,,,,,a,1,0.65616,space,0.172985,0,196,196,144,1,0_targ_4_dist_green/trial20.png,,,0,4,greenverival,a,39,20,female,2021-02-21_16h21.50.229,exp11,2020.2.6,Win32,60,IwAR0ad7ImPw7teSdjRuB99MCN_LumoqcKlP9KUUMQo9Xobyu7cH986u0aFtg,,,,,,,,,,,
,,,,,,,,,,,,,,a,1,0.637905,space,0.19895,0,197,197,109,1,0_targ_1_dist_green/trial10.png,,,0,1,greenverival,a,39,20,female,2021-02-21_16h21.50.229,exp11,2020.2.6,Win32,60,IwAR0ad7ImPw7teSdjRuB99MCN_LumoqcKlP9KUUMQo9Xobyu7cH986u0aFtg,,,,,,,,,,,
,,,,,,,,,,,,,,a,1,0.774105,space,0.036105,0,198,198,181,1,0_targ_16_dist_green/trial7.png,,,0,16,greenverival,a,39,20,female,2021-02-21_16h21.50.229,exp11,2020.2.6,Win32,60,IwAR0ad7ImPw7teSdjRuB99MCN_LumoqcKlP9KUUMQo9Xobyu7cH986u0aFtg,,,,,,,,,,,
,,,,,,,,,,,,,,a,1,0.79795,space,0.08584,0,199,199,136,1,0_targ_4_dist_green/trial12.png,,,0,4,greenverival,a,39,20,female,2021-02-21_16h21.50.229,exp11,2020.2.6,Win32,60,IwAR0ad7ImPw7teSdjRuB99MCN_LumoqcKlP9KUUMQo9Xobyu7cH986u0aFtg,,,,,,,,,,,
,,,,,,,,,,,,,,,,,,,,,,,,,,,,,,,39,20,female,2021-02-21_16h21.50.229,exp11,2020.2.6,Win32,60,IwAR0ad7ImPw7teSdjRuB99MCN_LumoqcKlP9KUUMQo9Xobyu7cH986u0aFtg,0,0,0,0,1,conGreen.xlsx,green vertical,Look for green vertical bar (target) and indicate if it is present or absent in the array. If green vertical target is present press 'p' and if absent press 'a'. Press SPACE to start.,,,
,,,,,,,,,,space,6.3747,space,0.993065,a,1,0.90548,space,0.235095,0,0,0,146,1,0_targ_4_dist_red/trial22.png,,,0,4,redHorizontal,a,39,20,female,2021-02-21_16h21.50.229,exp11,2020.2.6,Win32,60,IwAR0ad7ImPw7teSdjRuB99MCN_LumoqcKlP9KUUMQo9Xobyu7cH986u0aFtg,,,,,,,,,,,
,,,,,,,,,,,,,,a,1,0.461515,space,0.217085,0,1,1,149,1,0_targ_4_dist_red/trial25.png,,,0,4,redHorizontal,a,39,20,female,2021-02-21_16h21.50.229,exp11,2020.2.6,Win32,60,IwAR0ad7ImPw7teSdjRuB99MCN_LumoqcKlP9KUUMQo9Xobyu7cH986u0aFtg,,,,,,,,,,,
,,,,,,,,,,,,,,a,1,0.584935,space,0.187215,0,2,2,155,1,0_targ_10_dist_red/trial6.png,,,0,10,redHorizontal,a,39,20,female,2021-02-21_16h21.50.229,exp11,2020.2.6,Win32,60,IwAR0ad7ImPw7teSdjRuB99MCN_LumoqcKlP9KUUMQo9Xobyu7cH986u0aFtg,,,,,,,,,,,
,,,,,,,,,,,,,,a,1,0.37679,space,0.15344,0,3,3,109,1,0_targ_1_dist_red/trial10.png,,,0,1,redHorizontal,a,39,20,female,2021-02-21_16h21.50.229,exp11,2020.2.6,Win32,60,IwAR0ad7ImPw7teSdjRuB99MCN_LumoqcKlP9KUUMQo9Xobyu7cH986u0aFtg,,,,,,,,,,,
,,,,,,,,,,,,,,a,1,0.39231,space,0.10653,0,4,4,110,1,0_targ_1_dist_red/trial11.png,,,0,1,redHorizontal,a,39,20,female,2021-02-21_16h21.50.229,exp11,2020.2.6,Win32,60,IwAR0ad7ImPw7teSdjRuB99MCN_LumoqcKlP9KUUMQo9Xobyu7cH986u0aFtg,,,,,,,,,,,
,,,,,,,,,,,,,,p,1,0.52741,space,0.168535,0,5,5,2,1,0_dist_red/trial3.png,,,1,0,redHorizontal,p,39,20,female,2021-02-21_16h21.50.229,exp11,2020.2.6,Win32,60,IwAR0ad7ImPw7teSdjRuB99MCN_LumoqcKlP9KUUMQo9Xobyu7cH986u0aFtg,,,,,,,,,,,
,,,,,,,,,,,,,,p,1,0.451685,space,0.15295,0,6,6,36,1,3_dist_red/trial12.png,,,1,3,redHorizontal,p,39,20,female,2021-02-21_16h21.50.229,exp11,2020.2.6,Win32,60,IwAR0ad7ImPw7teSdjRuB99MCN_LumoqcKlP9KUUMQo9Xobyu7cH986u0aFtg,,,,,,,,,,,
,,,,,,,,,,,,,,a,1,0.89321,space,0.12202,0,7,7,195,1,0_targ_16_dist_red/trial21.png,,,0,16,redHorizontal,a,39,20,female,2021-02-21_16h21.50.229,exp11,2020.2.6,Win32,60,IwAR0ad7ImPw7teSdjRuB99MCN_LumoqcKlP9KUUMQo9Xobyu7cH986u0aFtg,,,,,,,,,,,
,,,,,,,,,,,,,,a,1,0.541275,space,0.1019,0,8,8,172,1,0_targ_10_dist_red/trial23.png,,,0,10,redHorizontal,a,39,20,female,2021-02-21_16h21.50.229,exp11,2020.2.6,Win32,60,IwAR0ad7ImPw7teSdjRuB99MCN_LumoqcKlP9KUUMQo9Xobyu7cH986u0aFtg,,,,,,,,,,,
,,,,,,,,,,,,,,p,1,0.55263,space,0.152825,0,9,9,91,1,15_dist_red/trial17.png,,,1,15,redHorizontal,p,39,20,female,2021-02-21_16h21.50.229,exp11,2020.2.6,Win32,60,IwAR0ad7ImPw7teSdjRuB99MCN_LumoqcKlP9KUUMQo9Xobyu7cH986u0aFtg,,,,,,,,,,,
,,,,,,,,,,,,,,p,1,1.023175,space,0.105005,0,10,10,89,1,15_dist_red/trial15.png,,,1,15,redHorizontal,p,39,20,female,2021-02-21_16h21.50.229,exp11,2020.2.6,Win32,60,IwAR0ad7ImPw7teSdjRuB99MCN_LumoqcKlP9KUUMQo9Xobyu7cH986u0aFtg,,,,,,,,,,,
,,,,,,,,,,,,,,p,1,0.48681,space,0.14116,0,11,11,67,1,9_dist_red/trial18.png,,,1,9,redHorizontal,p,39,20,female,2021-02-21_16h21.50.229,exp11,2020.2.6,Win32,60,IwAR0ad7ImPw7teSdjRuB99MCN_LumoqcKlP9KUUMQo9Xobyu7cH986u0aFtg,,,,,,,,,,,
,,,,,,,,,,,,,,p,1,0.47519,space,0.124375,0,12,12,58,1,9_dist_red/trial9.png,,,1,9,redHorizontal,p,39,20,female,2021-02-21_16h21.50.229,exp11,2020.2.6,Win32,60,IwAR0ad7ImPw7teSdjRuB99MCN_LumoqcKlP9KUUMQo9Xobyu7cH986u0aFtg,,,,,,,,,,,
,,,,,,,,,,,,,,a,1,0.54186,space,0.120445,0,13,13,154,1,0_targ_10_dist_red/trial5.png,,,0,10,redHorizontal,a,39,20,female,2021-02-21_16h21.50.229,exp11,2020.2.6,Win32,60,IwAR0ad7ImPw7teSdjRuB99MCN_LumoqcKlP9KUUMQo9Xobyu7cH986u0aFtg,,,,,,,,,,,
,,,,,,,,,,,,,,p,1,0.417905,space,0.11862,0,14,14,23,1,0_dist_red/trial24.png,,,1,0,redHorizontal,p,39,20,female,2021-02-21_16h21.50.229,exp11,2020.2.6,Win32,60,IwAR0ad7ImPw7teSdjRuB99MCN_LumoqcKlP9KUUMQo9Xobyu7cH986u0aFtg,,,,,,,,,,,
,,,,,,,,,,,,,,p,1,0.4919,space,0.11984,0,15,15,61,1,9_dist_red/trial12.png,,,1,9,redHorizontal,p,39,20,female,2021-02-21_16h21.50.229,exp11,2020.2.6,Win32,60,IwAR0ad7ImPw7teSdjRuB99MCN_LumoqcKlP9KUUMQo9Xobyu7cH986u0aFtg,,,,,,,,,,,
,,,,,,,,,,,,,,p,1,0.533705,space,0.12231,0,16,16,82,1,15_dist_red/trial8.png,,,1,15,redHorizontal,p,39,20,female,2021-02-21_16h21.50.229,exp11,2020.2.6,Win32,60,IwAR0ad7ImPw7teSdjRuB99MCN_LumoqcKlP9KUUMQo9Xobyu7cH986u0aFtg,,,,,,,,,,,
,,,,,,,,,,,,,,a,0,0.522905,space,0.88408,0,17,17,32,1,3_dist_red/trial8.png,,,1,3,redHorizontal,p,39,20,female,2021-02-21_16h21.50.229,exp11,2020.2.6,Win32,60,IwAR0ad7ImPw7teSdjRuB99MCN_LumoqcKlP9KUUMQo9Xobyu7cH986u0aFtg,,,,,,,,,,,
,,,,,,,,,,,,,,p,1,0.9436,space,0.060905,0,18,18,45,1,3_dist_red/trial21.png,,,1,3,redHorizontal,p,39,20,female,2021-02-21_16h21.50.229,exp11,2020.2.6,Win32,60,IwAR0ad7ImPw7teSdjRuB99MCN_LumoqcKlP9KUUMQo9Xobyu7cH986u0aFtg,,,,,,,,,,,
,,,,,,,,,,,,,,a,1,0.594435,space,0.044245,0,19,19,107,1,0_targ_1_dist_red/trial8.png,,,0,1,redHorizontal,a,39,20,female,2021-02-21_16h21.50.229,exp11,2020.2.6,Win32,60,IwAR0ad7ImPw7teSdjRuB99MCN_LumoqcKlP9KUUMQo9Xobyu7cH986u0aFtg,,,,,,,,,,,
,,,,,,,,,,,,,,p,1,0.642135,space,0.021045,0,20,20,17,1,0_dist_red/trial18.png,,,1,0,redHorizontal,p,39,20,female,2021-02-21_16h21.50.229,exp11,2020.2.6,Win32,60,IwAR0ad7ImPw7teSdjRuB99MCN_LumoqcKlP9KUUMQo9Xobyu7cH986u0aFtg,,,,,,,,,,,
,,,,,,,,,,,,,,a,1,0.65665,space,0.08808,0,21,21,187,1,0_targ_16_dist_red/trial13.png,,,0,16,redHorizontal,a,39,20,female,2021-02-21_16h21.50.229,exp11,2020.2.6,Win32,60,IwAR0ad7ImPw7teSdjRuB99MCN_LumoqcKlP9KUUMQo9Xobyu7cH986u0aFtg,,,,,,,,,,,
,,,,,,,,,,,,,,a,1,0.632995,space,0.086155,0,22,22,134,1,0_targ_4_dist_red/trial10.png,,,0,4,redHorizontal,a,39,20,female,2021-02-21_16h21.50.229,exp11,2020.2.6,Win32,60,IwAR0ad7ImPw7teSdjRuB99MCN_LumoqcKlP9KUUMQo9Xobyu7cH986u0aFtg,,,,,,,,,,,
,,,,,,,,,,,,,,a,1,0.609895,space,0.078965,0,23,23,125,1,0_targ_4_dist_red/trial1.png,,,0,4,redHorizontal,a,39,20,female,2021-02-21_16h21.50.229,exp11,2020.2.6,Win32,60,IwAR0ad7ImPw7teSdjRuB99MCN_LumoqcKlP9KUUMQo9Xobyu7cH986u0aFtg,,,,,,,,,,,
,,,,,,,,,,,,,,p,1,0.608525,space,0.036355,0,24,24,74,1,9_dist_red/trial25.png,,,1,9,redHorizontal,p,39,20,female,2021-02-21_16h21.50.229,exp11,2020.2.6,Win32,60,IwAR0ad7ImPw7teSdjRuB99MCN_LumoqcKlP9KUUMQo9Xobyu7cH986u0aFtg,,,,,,,,,,,
,,,,,,,,,,,,,,p,1,0.638385,space,0.052965,0,25,25,96,1,15_dist_red/trial22.png,,,1,15,redHorizontal,p,39,20,female,2021-02-21_16h21.50.229,exp11,2020.2.6,Win32,60,IwAR0ad7ImPw7teSdjRuB99MCN_LumoqcKlP9KUUMQo9Xobyu7cH986u0aFtg,,,,,,,,,,,
,,,,,,,,,,,,,,a,1,0.539315,space,0.11021,0,26,26,129,1,0_targ_4_dist_red/trial5.png,,,0,4,redHorizontal,a,39,20,female,2021-02-21_16h21.50.229,exp11,2020.2.6,Win32,60,IwAR0ad7ImPw7teSdjRuB99MCN_LumoqcKlP9KUUMQo9Xobyu7cH986u0aFtg,,,,,,,,,,,
,,,,,,,,,,,,,,a,1,0.722075,space,0.14046,0,27,27,158,1,0_targ_10_dist_red/trial9.png,,,0,10,redHorizontal,a,39,20,female,2021-02-21_16h21.50.229,exp11,2020.2.6,Win32,60,IwAR0ad7ImPw7teSdjRuB99MCN_LumoqcKlP9KUUMQo9Xobyu7cH986u0aFtg,,,,,,,,,,,
,,,,,,,,,,,,,,p,1,0.88907,space,0.067955,0,28,28,55,1,9_dist_red/trial6.png,,,1,9,redHorizontal,p,39,20,female,2021-02-21_16h21.50.229,exp11,2020.2.6,Win32,60,IwAR0ad7ImPw7teSdjRuB99MCN_LumoqcKlP9KUUMQo9Xobyu7cH986u0aFtg,,,,,,,,,,,
,,,,,,,,,,,,,,p,1,0.51818,space,0.073785,0,29,29,46,1,3_dist_red/trial22.png,,,1,3,redHorizontal,p,39,20,female,2021-02-21_16h21.50.229,exp11,2020.2.6,Win32,60,IwAR0ad7ImPw7teSdjRuB99MCN_LumoqcKlP9KUUMQo9Xobyu7cH986u0aFtg,,,,,,,,,,,
,,,,,,,,,,,,,,p,1,0.60786,space,0.066505,0,30,30,62,1,9_dist_red/trial13.png,,,1,9,redHorizontal,p,39,20,female,2021-02-21_16h21.50.229,exp11,2020.2.6,Win32,60,IwAR0ad7ImPw7teSdjRuB99MCN_LumoqcKlP9KUUMQo9Xobyu7cH986u0aFtg,,,,,,,,,,,
,,,,,,,,,,,,,,p,1,0.69882,space,0.08434,0,31,31,85,1,15_dist_red/trial11.png,,,1,15,redHorizontal,p,39,20,female,2021-02-21_16h21.50.229,exp11,2020.2.6,Win32,60,IwAR0ad7ImPw7teSdjRuB99MCN_LumoqcKlP9KUUMQo9Xobyu7cH986u0aFtg,,,,,,,,,,,
,,,,,,,,,,,,,,p,1,0.585705,space,0.069125,0,32,32,5,1,0_dist_red/trial6.png,,,1,0,redHorizontal,p,39,20,female,2021-02-21_16h21.50.229,exp11,2020.2.6,Win32,60,IwAR0ad7ImPw7teSdjRuB99MCN_LumoqcKlP9KUUMQo9Xobyu7cH986u0aFtg,,,,,,,,,,,
,,,,,,,,,,,,,,p,1,0.56122,space,0.13464,0,33,33,72,1,9_dist_red/trial23.png,,,1,9,redHorizontal,p,39,20,female,2021-02-21_16h21.50.229,exp11,2020.2.6,Win32,60,IwAR0ad7ImPw7teSdjRuB99MCN_LumoqcKlP9KUUMQo9Xobyu7cH986u0aFtg,,,,,,,,,,,
,,,,,,,,,,,,,,a,1,0.718135,space,0.09343,0,34,34,113,1,0_targ_1_dist_red/trial14.png,,,0,1,redHorizontal,a,39,20,female,2021-02-21_16h21.50.229,exp11,2020.2.6,Win32,60,IwAR0ad7ImPw7teSdjRuB99MCN_LumoqcKlP9KUUMQo9Xobyu7cH986u0aFtg,,,,,,,,,,,
,,,,,,,,,,,,,,a,1,0.68269,space,0.088625,0,35,35,191,1,0_targ_16_dist_red/trial17.png,,,0,16,redHorizontal,a,39,20,female,2021-02-21_16h21.50.229,exp11,2020.2.6,Win32,60,IwAR0ad7ImPw7teSdjRuB99MCN_LumoqcKlP9KUUMQo9Xobyu7cH986u0aFtg,,,,,,,,,,,
,,,,,,,,,,,,,,a,1,0.581475,space,0.102255,0,36,36,170,1,0_targ_10_dist_red/trial21.png,,,0,10,redHorizontal,a,39,20,female,2021-02-21_16h21.50.229,exp11,2020.2.6,Win32,60,IwAR0ad7ImPw7teSdjRuB99MCN_LumoqcKlP9KUUMQo9Xobyu7cH986u0aFtg,,,,,,,,,,,
,,,,,,,,,,,,,,a,1,0.56514,space,0.0698,0,37,37,124,1,0_targ_1_dist_red/trial25.png,,,0,1,redHorizontal,a,39,20,female,2021-02-21_16h21.50.229,exp11,2020.2.6,Win32,60,IwAR0ad7ImPw7teSdjRuB99MCN_LumoqcKlP9KUUMQo9Xobyu7cH986u0aFtg,,,,,,,,,,,
,,,,,,,,,,,,,,p,1,0.575885,space,0.05967,0,38,38,65,1,9_dist_red/trial16.png,,,1,9,redHorizontal,p,39,20,female,2021-02-21_16h21.50.229,exp11,2020.2.6,Win32,60,IwAR0ad7ImPw7teSdjRuB99MCN_LumoqcKlP9KUUMQo9Xobyu7cH986u0aFtg,,,,,,,,,,,
,,,,,,,,,,,,,,p,1,0.889735,space,0.038615,0,39,39,83,1,15_dist_red/trial9.png,,,1,15,redHorizontal,p,39,20,female,2021-02-21_16h21.50.229,exp11,2020.2.6,Win32,60,IwAR0ad7ImPw7teSdjRuB99MCN_LumoqcKlP9KUUMQo9Xobyu7cH986u0aFtg,,,,,,,,,,,
,,,,,,,,,,,,,,p,1,0.472875,space,0.074715,0,40,40,8,1,0_dist_red/trial9.png,,,1,0,redHorizontal,p,39,20,female,2021-02-21_16h21.50.229,exp11,2020.2.6,Win32,60,IwAR0ad7ImPw7teSdjRuB99MCN_LumoqcKlP9KUUMQo9Xobyu7cH986u0aFtg,,,,,,,,,,,
,,,,,,,,,,,,,,a,1,0.564285,space,0.10115,0,41,41,148,1,0_targ_4_dist_red/trial24.png,,,0,4,redHorizontal,a,39,20,female,2021-02-21_16h21.50.229,exp11,2020.2.6,Win32,60,IwAR0ad7ImPw7teSdjRuB99MCN_LumoqcKlP9KUUMQo9Xobyu7cH986u0aFtg,,,,,,,,,,,
,,,,,,,,,,,,,,p,0,0.57145,space,0.12746,0,42,42,156,1,0_targ_10_dist_red/trial7.png,,,0,10,redHorizontal,a,39,20,female,2021-02-21_16h21.50.229,exp11,2020.2.6,Win32,60,IwAR0ad7ImPw7teSdjRuB99MCN_LumoqcKlP9KUUMQo9Xobyu7cH986u0aFtg,,,,,,,,,,,
,,,,,,,,,,,,,,a,1,1.622565,space,0.083585,0,43,43,105,1,0_targ_1_dist_red/trial6.png,,,0,1,redHorizontal,a,39,20,female,2021-02-21_16h21.50.229,exp11,2020.2.6,Win32,60,IwAR0ad7ImPw7teSdjRuB99MCN_LumoqcKlP9KUUMQo9Xobyu7cH986u0aFtg,,,,,,,,,,,
,,,,,,,,,,,,,,p,1,0.599685,space,0.0361,0,44,44,13,1,0_dist_red/trial14.png,,,1,0,redHorizontal,p,39,20,female,2021-02-21_16h21.50.229,exp11,2020.2.6,Win32,60,IwAR0ad7ImPw7teSdjRuB99MCN_LumoqcKlP9KUUMQo9Xobyu7cH986u0aFtg,,,,,,,,,,,
,,,,,,,,,,,,,,a,1,0.6151,space,0.06769,0,45,45,175,1,0_targ_16_dist_red/trial1.png,,,0,16,redHorizontal,a,39,20,female,2021-02-21_16h21.50.229,exp11,2020.2.6,Win32,60,IwAR0ad7ImPw7teSdjRuB99MCN_LumoqcKlP9KUUMQo9Xobyu7cH986u0aFtg,,,,,,,,,,,
,,,,,,,,,,,,,,p,1,0.642265,space,0.06812,0,46,46,4,1,0_dist_red/trial5.png,,,1,0,redHorizontal,p,39,20,female,2021-02-21_16h21.50.229,exp11,2020.2.6,Win32,60,IwAR0ad7ImPw7teSdjRuB99MCN_LumoqcKlP9KUUMQo9Xobyu7cH986u0aFtg,,,,,,,,,,,
,,,,,,,,,,,,,,a,1,0.610255,space,0.061735,0,47,47,189,1,0_targ_16_dist_red/trial15.png,,,0,16,redHorizontal,a,39,20,female,2021-02-21_16h21.50.229,exp11,2020.2.6,Win32,60,IwAR0ad7ImPw7teSdjRuB99MCN_LumoqcKlP9KUUMQo9Xobyu7cH986u0aFtg,,,,,,,,,,,
,,,,,,,,,,,,,,a,1,0.626085,space,0.04213,0,48,48,177,1,0_targ_16_dist_red/trial3.png,,,0,16,redHorizontal,a,39,20,female,2021-02-21_16h21.50.229,exp11,2020.2.6,Win32,60,IwAR0ad7ImPw7teSdjRuB99MCN_LumoqcKlP9KUUMQo9Xobyu7cH986u0aFtg,,,,,,,,,,,
,,,,,,,,,,,,,,p,1,0.688965,space,0.04308,0,49,49,1,1,0_dist_red/trial2.png,,,1,0,redHorizontal,p,39,20,female,2021-02-21_16h21.50.229,exp11,2020.2.6,Win32,60,IwAR0ad7ImPw7teSdjRuB99MCN_LumoqcKlP9KUUMQo9Xobyu7cH986u0aFtg,,,,,,,,,,,
,,,,,,,,,,,,,,a,1,0.6145,space,0.03681,0,50,50,162,1,0_targ_10_dist_red/trial13.png,,,0,10,redHorizontal,a,39,20,female,2021-02-21_16h21.50.229,exp11,2020.2.6,Win32,60,IwAR0ad7ImPw7teSdjRuB99MCN_LumoqcKlP9KUUMQo9Xobyu7cH986u0aFtg,,,,,,,,,,,
,,,,,,,,,,,,,,a,1,0.47351,space,0.088895,0,51,51,131,1,0_targ_4_dist_red/trial7.png,,,0,4,redHorizontal,a,39,20,female,2021-02-21_16h21.50.229,exp11,2020.2.6,Win32,60,IwAR0ad7ImPw7teSdjRuB99MCN_LumoqcKlP9KUUMQo9Xobyu7cH986u0aFtg,,,,,,,,,,,
,,,,,,,,,,,,,,a,1,0.70045,space,0.061385,0,52,52,138,1,0_targ_4_dist_red/trial14.png,,,0,4,redHorizontal,a,39,20,female,2021-02-21_16h21.50.229,exp11,2020.2.6,Win32,60,IwAR0ad7ImPw7teSdjRuB99MCN_LumoqcKlP9KUUMQo9Xobyu7cH986u0aFtg,,,,,,,,,,,
,,,,,,,,,,,,,,a,1,0.48144,space,0.086485,0,53,53,133,1,0_targ_4_dist_red/trial9.png,,,0,4,redHorizontal,a,39,20,female,2021-02-21_16h21.50.229,exp11,2020.2.6,Win32,60,IwAR0ad7ImPw7teSdjRuB99MCN_LumoqcKlP9KUUMQo9Xobyu7cH986u0aFtg,,,,,,,,,,,
,,,,,,,,,,,,,,a,1,0.59286,space,0.039045,0,54,54,161,1,0_targ_10_dist_red/trial12.png,,,0,10,redHorizontal,a,39,20,female,2021-02-21_16h21.50.229,exp11,2020.2.6,Win32,60,IwAR0ad7ImPw7teSdjRuB99MCN_LumoqcKlP9KUUMQo9Xobyu7cH986u0aFtg,,,,,,,,,,,
,,,,,,,,,,,,,,a,1,0.52993,space,0.062715,0,55,55,173,1,0_targ_10_dist_red/trial24.png,,,0,10,redHorizontal,a,39,20,female,2021-02-21_16h21.50.229,exp11,2020.2.6,Win32,60,IwAR0ad7ImPw7teSdjRuB99MCN_LumoqcKlP9KUUMQo9Xobyu7cH986u0aFtg,,,,,,,,,,,
,,,,,,,,,,,,,,a,1,0.57545,space,0.08471,0,56,56,171,1,0_targ_10_dist_red/trial22.png,,,0,10,redHorizontal,a,39,20,female,2021-02-21_16h21.50.229,exp11,2020.2.6,Win32,60,IwAR0ad7ImPw7teSdjRuB99MCN_LumoqcKlP9KUUMQo9Xobyu7cH986u0aFtg,,,,,,,,,,,
,,,,,,,,,,,,,,p,1,0.53943,space,0.03496,0,57,57,53,1,9_dist_red/trial4.png,,,1,9,redHorizontal,p,39,20,female,2021-02-21_16h21.50.229,exp11,2020.2.6,Win32,60,IwAR0ad7ImPw7teSdjRuB99MCN_LumoqcKlP9KUUMQo9Xobyu7cH986u0aFtg,,,,,,,,,,,
,,,,,,,,,,,,,,p,1,0.69085,space,0.11811,0,58,58,98,1,15_dist_red/trial24.png,,,1,15,redHorizontal,p,39,20,female,2021-02-21_16h21.50.229,exp11,2020.2.6,Win32,60,IwAR0ad7ImPw7teSdjRuB99MCN_LumoqcKlP9KUUMQo9Xobyu7cH986u0aFtg,,,,,,,,,,,
,,,,,,,,,,,,,,a,1,0.436115,space,0.08556,0,59,59,115,1,0_targ_1_dist_red/trial6.png,,,0,1,redHorizontal,a,39,20,female,2021-02-21_16h21.50.229,exp11,2020.2.6,Win32,60,IwAR0ad7ImPw7teSdjRuB99MCN_LumoqcKlP9KUUMQo9Xobyu7cH986u0aFtg,,,,,,,,,,,
,,,,,,,,,,,,,,a,1,0.596995,space,0.034845,0,60,60,136,1,0_targ_4_dist_red/trial12.png,,,0,4,redHorizontal,a,39,20,female,2021-02-21_16h21.50.229,exp11,2020.2.6,Win32,60,IwAR0ad7ImPw7teSdjRuB99MCN_LumoqcKlP9KUUMQo9Xobyu7cH986u0aFtg,,,,,,,,,,,
,,,,,,,,,,,,,,p,1,0.54745,space,0.035425,0,61,61,78,1,15_dist_red/trial4.png,,,1,15,redHorizontal,p,39,20,female,2021-02-21_16h21.50.229,exp11,2020.2.6,Win32,60,IwAR0ad7ImPw7teSdjRuB99MCN_LumoqcKlP9KUUMQo9Xobyu7cH986u0aFtg,,,,,,,,,,,
,,,,,,,,,,,,,,p,1,0.502165,space,0.086205,0,62,62,69,1,9_dist_red/trial20.png,,,1,9,redHorizontal,p,39,20,female,2021-02-21_16h21.50.229,exp11,2020.2.6,Win32,60,IwAR0ad7ImPw7teSdjRuB99MCN_LumoqcKlP9KUUMQo9Xobyu7cH986u0aFtg,,,,,,,,,,,
,,,,,,,,,,,,,,a,1,0.64469,space,0.098395,0,63,63,186,1,0_targ_16_dist_red/trial12.png,,,0,16,redHorizontal,a,39,20,female,2021-02-21_16h21.50.229,exp11,2020.2.6,Win32,60,IwAR0ad7ImPw7teSdjRuB99MCN_LumoqcKlP9KUUMQo9Xobyu7cH986u0aFtg,,,,,,,,,,,
,,,,,,,,,,,,,,a,1,0.73757,space,0.08579,0,64,64,180,1,0_targ_16_dist_red/trial6.png,,,0,16,redHorizontal,a,39,20,female,2021-02-21_16h21.50.229,exp11,2020.2.6,Win32,60,IwAR0ad7ImPw7teSdjRuB99MCN_LumoqcKlP9KUUMQo9Xobyu7cH986u0aFtg,,,,,,,,,,,
,,,,,,,,,,,,,,a,1,0.52892,space,0.05803,0,65,65,100,1,0_targ_1_dist_red/trial1.png,,,0,1,redHorizontal,a,39,20,female,2021-02-21_16h21.50.229,exp11,2020.2.6,Win32,60,IwAR0ad7ImPw7teSdjRuB99MCN_LumoqcKlP9KUUMQo9Xobyu7cH986u0aFtg,,,,,,,,,,,
,,,,,,,,,,,,,,a,1,0.43898,space,0.068685,0,66,66,116,1,0_targ_1_dist_red/trial17.png,,,0,1,redHorizontal,a,39,20,female,2021-02-21_16h21.50.229,exp11,2020.2.6,Win32,60,IwAR0ad7ImPw7teSdjRuB99MCN_LumoqcKlP9KUUMQo9Xobyu7cH986u0aFtg,,,,,,,,,,,
,,,,,,,,,,,,,,p,1,0.44736,space,0.054325,0,67,67,66,1,9_dist_red/trial17.png,,,1,9,redHorizontal,p,39,20,female,2021-02-21_16h21.50.229,exp11,2020.2.6,Win32,60,IwAR0ad7ImPw7teSdjRuB99MCN_LumoqcKlP9KUUMQo9Xobyu7cH986u0aFtg,,,,,,,,,,,
,,,,,,,,,,,,,,p,1,0.49087,space,0.05237,0,68,68,11,1,0_dist_red/trial12.png,,,1,0,redHorizontal,p,39,20,female,2021-02-21_16h21.50.229,exp11,2020.2.6,Win32,60,IwAR0ad7ImPw7teSdjRuB99MCN_LumoqcKlP9KUUMQo9Xobyu7cH986u0aFtg,,,,,,,,,,,
,,,,,,,,,,,,,,a,1,0.602565,space,0.059505,0,69,69,163,1,0_targ_10_dist_red/trial14.png,,,0,10,redHorizontal,a,39,20,female,2021-02-21_16h21.50.229,exp11,2020.2.6,Win32,60,IwAR0ad7ImPw7teSdjRuB99MCN_LumoqcKlP9KUUMQo9Xobyu7cH986u0aFtg,,,,,,,,,,,
,,,,,,,,,,,,,,a,1,0.55642,space,0.028625,0,70,70,118,1,0_targ_1_dist_red/trial19.png,,,0,1,redHorizontal,a,39,20,female,2021-02-21_16h21.50.229,exp11,2020.2.6,Win32,60,IwAR0ad7ImPw7teSdjRuB99MCN_LumoqcKlP9KUUMQo9Xobyu7cH986u0aFtg,,,,,,,,,,,
,,,,,,,,,,,,,,p,1,0.57541,space,0.10162,0,71,71,24,1,0_dist_red/trial25.png,,,1,0,redHorizontal,p,39,20,female,2021-02-21_16h21.50.229,exp11,2020.2.6,Win32,60,IwAR0ad7ImPw7teSdjRuB99MCN_LumoqcKlP9KUUMQo9Xobyu7cH986u0aFtg,,,,,,,,,,,
,,,,,,,,,,,,,,p,1,0.520805,space,0.072305,0,72,72,63,1,9_dist_red/trial14.png,,,1,9,redHorizontal,p,39,20,female,2021-02-21_16h21.50.229,exp11,2020.2.6,Win32,60,IwAR0ad7ImPw7teSdjRuB99MCN_LumoqcKlP9KUUMQo9Xobyu7cH986u0aFtg,,,,,,,,,,,
,,,,,,,,,,,,,,a,0,0.57468,space,0.28369,0,73,73,54,1,9_dist_red/trial5.png,,,1,9,redHorizontal,p,39,20,female,2021-02-21_16h21.50.229,exp11,2020.2.6,Win32,60,IwAR0ad7ImPw7teSdjRuB99MCN_LumoqcKlP9KUUMQo9Xobyu7cH986u0aFtg,,,,,,,,,,,
,,,,,,,,,,,,,,p,1,1.077625,space,0.081725,0,74,74,81,1,15_dist_red/trial7.png,,,1,15,redHorizontal,p,39,20,female,2021-02-21_16h21.50.229,exp11,2020.2.6,Win32,60,IwAR0ad7ImPw7teSdjRuB99MCN_LumoqcKlP9KUUMQo9Xobyu7cH986u0aFtg,,,,,,,,,,,
,,,,,,,,,,,,,,a,1,0.669255,space,0.04959,0,75,75,190,1,0_targ_16_dist_red/trial16.png,,,0,16,redHorizontal,a,39,20,female,2021-02-21_16h21.50.229,exp11,2020.2.6,Win32,60,IwAR0ad7ImPw7teSdjRuB99MCN_LumoqcKlP9KUUMQo9Xobyu7cH986u0aFtg,,,,,,,,,,,
,,,,,,,,,,,,,,p,1,0.603975,space,0.087635,0,76,76,10,1,0_dist_red/trial11.png,,,1,0,redHorizontal,p,39,20,female,2021-02-21_16h21.50.229,exp11,2020.2.6,Win32,60,IwAR0ad7ImPw7teSdjRuB99MCN_LumoqcKlP9KUUMQo9Xobyu7cH986u0aFtg,,,,,,,,,,,
,,,,,,,,,,,,,,a,1,0.648865,space,0.08529,0,77,77,192,1,0_targ_16_dist_red/trial18.png,,,0,16,redHorizontal,a,39,20,female,2021-02-21_16h21.50.229,exp11,2020.2.6,Win32,60,IwAR0ad7ImPw7teSdjRuB99MCN_LumoqcKlP9KUUMQo9Xobyu7cH986u0aFtg,,,,,,,,,,,
,,,,,,,,,,,,,,p,1,0.626965,space,0.085315,0,78,78,77,1,15_dist_red/trial3.png,,,1,15,redHorizontal,p,39,20,female,2021-02-21_16h21.50.229,exp11,2020.2.6,Win32,60,IwAR0ad7ImPw7teSdjRuB99MCN_LumoqcKlP9KUUMQo9Xobyu7cH986u0aFtg,,,,,,,,,,,
,,,,,,,,,,,,,,a,1,0.557725,space,0.15152,0,79,79,102,1,0_targ_1_dist_red/trial3.png,,,0,1,redHorizontal,a,39,20,female,2021-02-21_16h21.50.229,exp11,2020.2.6,Win32,60,IwAR0ad7ImPw7teSdjRuB99MCN_LumoqcKlP9KUUMQo9Xobyu7cH986u0aFtg,,,,,,,,,,,
,,,,,,,,,,,,,,a,1,1.007035,space,0.04229,0,80,80,122,1,0_targ_1_dist_red/trial23.png,,,0,1,redHorizontal,a,39,20,female,2021-02-21_16h21.50.229,exp11,2020.2.6,Win32,60,IwAR0ad7ImPw7teSdjRuB99MCN_LumoqcKlP9KUUMQo9Xobyu7cH986u0aFtg,,,,,,,,,,,
,,,,,,,,,,,,,,a,1,0.742975,space,0.06862,0,81,81,183,1,0_targ_16_dist_red/trial9.png,,,0,16,redHorizontal,a,39,20,female,2021-02-21_16h21.50.229,exp11,2020.2.6,Win32,60,IwAR0ad7ImPw7teSdjRuB99MCN_LumoqcKlP9KUUMQo9Xobyu7cH986u0aFtg,,,,,,,,,,,
,,,,,,,,,,,,,,p,1,0.960205,space,0.078335,0,82,82,80,1,15_dist_red/trial6.png,,,1,15,redHorizontal,p,39,20,female,2021-02-21_16h21.50.229,exp11,2020.2.6,Win32,60,IwAR0ad7ImPw7teSdjRuB99MCN_LumoqcKlP9KUUMQo9Xobyu7cH986u0aFtg,,,,,,,,,,,
,,,,,,,,,,,,,,p,1,0.51182,space,0.06815,0,83,83,43,1,3_dist_red/trial19.png,,,1,3,redHorizontal,p,39,20,female,2021-02-21_16h21.50.229,exp11,2020.2.6,Win32,60,IwAR0ad7ImPw7teSdjRuB99MCN_LumoqcKlP9KUUMQo9Xobyu7cH986u0aFtg,,,,,,,,,,,
,,,,,,,,,,,,,,a,1,0.598435,space,0.041,0,84,84,196,1,0_targ_16_dist_red/trial22.png,,,0,16,redHorizontal,a,39,20,female,2021-02-21_16h21.50.229,exp11,2020.2.6,Win32,60,IwAR0ad7ImPw7teSdjRuB99MCN_LumoqcKlP9KUUMQo9Xobyu7cH986u0aFtg,,,,,,,,,,,
,,,,,,,,,,,,,,p,1,0.57386,space,0.08606,0,85,85,33,1,3_dist_red/trial9.png,,,1,3,redHorizontal,p,39,20,female,2021-02-21_16h21.50.229,exp11,2020.2.6,Win32,60,IwAR0ad7ImPw7teSdjRuB99MCN_LumoqcKlP9KUUMQo9Xobyu7cH986u0aFtg,,,,,,,,,,,
,,,,,,,,,,,,,,a,1,0.959095,space,0.003195,0,86,86,106,1,0_targ_1_dist_red/trial7.png,,,0,1,redHorizontal,a,39,20,female,2021-02-21_16h21.50.229,exp11,2020.2.6,Win32,60,IwAR0ad7ImPw7teSdjRuB99MCN_LumoqcKlP9KUUMQo9Xobyu7cH986u0aFtg,,,,,,,,,,,
,,,,,,,,,,,,,,a,1,0.6776,space,0.051215,0,87,87,123,1,0_targ_1_dist_red/trial24.png,,,0,1,redHorizontal,a,39,20,female,2021-02-21_16h21.50.229,exp11,2020.2.6,Win32,60,IwAR0ad7ImPw7teSdjRuB99MCN_LumoqcKlP9KUUMQo9Xobyu7cH986u0aFtg,,,,,,,,,,,
,,,,,,,,,,,,,,p,1,1.0033,space,0.067815,0,88,88,95,1,15_dist_red/trial21.png,,,1,15,redHorizontal,p,39,20,female,2021-02-21_16h21.50.229,exp11,2020.2.6,Win32,60,IwAR0ad7ImPw7teSdjRuB99MCN_LumoqcKlP9KUUMQo9Xobyu7cH986u0aFtg,,,,,,,,,,,
,,,,,,,,,,,,,,p,1,0.545005,space,0.068695,0,89,89,16,1,0_dist_red/trial17.png,,,1,0,redHorizontal,p,39,20,female,2021-02-21_16h21.50.229,exp11,2020.2.6,Win32,60,IwAR0ad7ImPw7teSdjRuB99MCN_LumoqcKlP9KUUMQo9Xobyu7cH986u0aFtg,,,,,,,,,,,
,,,,,,,,,,,,,,a,1,1.053355,space,0.08383,0,90,90,198,1,0_targ_16_dist_red/trial24.png,,,0,16,redHorizontal,a,39,20,female,2021-02-21_16h21.50.229,exp11,2020.2.6,Win32,60,IwAR0ad7ImPw7teSdjRuB99MCN_LumoqcKlP9KUUMQo9Xobyu7cH986u0aFtg,,,,,,,,,,,
,,,,,,,,,,,,,,a,1,0.551715,space,0.053515,0,91,91,111,1,0_targ_1_dist_red/trial12.png,,,0,1,redHorizontal,a,39,20,female,2021-02-21_16h21.50.229,exp11,2020.2.6,Win32,60,IwAR0ad7ImPw7teSdjRuB99MCN_LumoqcKlP9KUUMQo9Xobyu7cH986u0aFtg,,,,,,,,,,,
,,,,,,,,,,,,,,p,1,0.49145,space,0.051775,0,92,92,14,1,0_dist_red/trial15.png,,,1,0,redHorizontal,p,39,20,female,2021-02-21_16h21.50.229,exp11,2020.2.6,Win32,60,IwAR0ad7ImPw7teSdjRuB99MCN_LumoqcKlP9KUUMQo9Xobyu7cH986u0aFtg,,,,,,,,,,,
,,,,,,,,,,,,,,p,1,0.59941,space,0.03791,0,93,93,37,1,3_dist_red/trial13.png,,,1,3,redHorizontal,p,39,20,female,2021-02-21_16h21.50.229,exp11,2020.2.6,Win32,60,IwAR0ad7ImPw7teSdjRuB99MCN_LumoqcKlP9KUUMQo9Xobyu7cH986u0aFtg,,,,,,,,,,,
,,,,,,,,,,,,,,p,1,0.605865,space,0.11915,0,94,94,41,1,3_dist_red/trial17.png,,,1,3,redHorizontal,p,39,20,female,2021-02-21_16h21.50.229,exp11,2020.2.6,Win32,60,IwAR0ad7ImPw7teSdjRuB99MCN_LumoqcKlP9KUUMQo9Xobyu7cH986u0aFtg,,,,,,,,,,,
,,,,,,,,,,,,,,a,1,0.64313,space,0.00466,0,95,95,184,1,0_targ_16_dist_red/trial10.png,,,0,16,redHorizontal,a,39,20,female,2021-02-21_16h21.50.229,exp11,2020.2.6,Win32,60,IwAR0ad7ImPw7teSdjRuB99MCN_LumoqcKlP9KUUMQo9Xobyu7cH986u0aFtg,,,,,,,,,,,
,,,,,,,,,,,,,,a,1,0.658355,space,0.069065,0,96,96,168,1,0_targ_10_dist_red/trial19.png,,,0,10,redHorizontal,a,39,20,female,2021-02-21_16h21.50.229,exp11,2020.2.6,Win32,60,IwAR0ad7ImPw7teSdjRuB99MCN_LumoqcKlP9KUUMQo9Xobyu7cH986u0aFtg,,,,,,,,,,,
,,,,,,,,,,,,,,a,1,0.498875,space,0.01789,0,97,97,135,1,0_targ_4_dist_red/trial11.png,,,0,4,redHorizontal,a,39,20,female,2021-02-21_16h21.50.229,exp11,2020.2.6,Win32,60,IwAR0ad7ImPw7teSdjRuB99MCN_LumoqcKlP9KUUMQo9Xobyu7cH986u0aFtg,,,,,,,,,,,
,,,,,,,,,,,,,,p,1,0.62783,space,0.054825,0,98,98,35,1,3_dist_red/trial11.png,,,1,3,redHorizontal,p,39,20,female,2021-02-21_16h21.50.229,exp11,2020.2.6,Win32,60,IwAR0ad7ImPw7teSdjRuB99MCN_LumoqcKlP9KUUMQo9Xobyu7cH986u0aFtg,,,,,,,,,,,
,,,,,,,,,,,,,,a,1,0.90876,space,0.03525,0,99,99,141,1,0_targ_4_dist_red/trial17.png,,,0,4,redHorizontal,a,39,20,female,2021-02-21_16h21.50.229,exp11,2020.2.6,Win32,60,IwAR0ad7ImPw7teSdjRuB99MCN_LumoqcKlP9KUUMQo9Xobyu7cH986u0aFtg,,,,,,,,,,,
,,,,,,,,,,,,,,a,1,0.65714,space,0.086005,0,100,100,165,1,0_targ_10_dist_red/trial16.png,,,0,10,redHorizontal,a,39,20,female,2021-02-21_16h21.50.229,exp11,2020.2.6,Win32,60,IwAR0ad7ImPw7teSdjRuB99MCN_LumoqcKlP9KUUMQo9Xobyu7cH986u0aFtg,,,,,,,,,,,
,,,,,,,,,,,,,,a,1,1.201735,space,0.034235,0,101,101,153,1,0_targ_10_dist_red/trial4.png,,,0,10,redHorizontal,a,39,20,female,2021-02-21_16h21.50.229,exp11,2020.2.6,Win32,60,IwAR0ad7ImPw7teSdjRuB99MCN_LumoqcKlP9KUUMQo9Xobyu7cH986u0aFtg,,,,,,,,,,,
,,,,,,,,,,,,,,p,1,0.558025,space,1.18179,0,102,102,88,1,15_dist_red/trial14.png,,,1,15,redHorizontal,p,39,20,female,2021-02-21_16h21.50.229,exp11,2020.2.6,Win32,60,IwAR0ad7ImPw7teSdjRuB99MCN_LumoqcKlP9KUUMQo9Xobyu7cH986u0aFtg,,,,,,,,,,,
,,,,,,,,,,,,,,a,1,1.20122,space,0.036745,0,103,103,137,1,0_targ_4_dist_red/trial13.png,,,0,4,redHorizontal,a,39,20,female,2021-02-21_16h21.50.229,exp11,2020.2.6,Win32,60,IwAR0ad7ImPw7teSdjRuB99MCN_LumoqcKlP9KUUMQo9Xobyu7cH986u0aFtg,,,,,,,,,,,
,,,,,,,,,,,,,,p,1,0.59588,space,0.01785,0,104,104,44,1,3_dist_red/trial20.png,,,1,3,redHorizontal,p,39,20,female,2021-02-21_16h21.50.229,exp11,2020.2.6,Win32,60,IwAR0ad7ImPw7teSdjRuB99MCN_LumoqcKlP9KUUMQo9Xobyu7cH986u0aFtg,,,,,,,,,,,
,,,,,,,,,,,,,,a,1,0.661785,space,0.10218,0,105,105,188,1,0_targ_16_dist_red/trial14.png,,,0,16,redHorizontal,a,39,20,female,2021-02-21_16h21.50.229,exp11,2020.2.6,Win32,60,IwAR0ad7ImPw7teSdjRuB99MCN_LumoqcKlP9KUUMQo9Xobyu7cH986u0aFtg,,,,,,,,,,,
,,,,,,,,,,,,,,a,1,0.58851,space,0.091675,0,106,106,160,1,0_targ_10_dist_red/trial11.png,,,0,10,redHorizontal,a,39,20,female,2021-02-21_16h21.50.229,exp11,2020.2.6,Win32,60,IwAR0ad7ImPw7teSdjRuB99MCN_LumoqcKlP9KUUMQo9Xobyu7cH986u0aFtg,,,,,,,,,,,
,,,,,,,,,,,,,,a,1,0.626745,space,0.06306,0,107,107,166,1,0_targ_10_dist_red/trial17.png,,,0,10,redHorizontal,a,39,20,female,2021-02-21_16h21.50.229,exp11,2020.2.6,Win32,60,IwAR0ad7ImPw7teSdjRuB99MCN_LumoqcKlP9KUUMQo9Xobyu7cH986u0aFtg,,,,,,,,,,,
,,,,,,,,,,,,,,a,1,0.64238,space,0.071555,0,108,108,150,1,0_targ_10_dist_red/trial1.png,,,0,10,redHorizontal,a,39,20,female,2021-02-21_16h21.50.229,exp11,2020.2.6,Win32,60,IwAR0ad7ImPw7teSdjRuB99MCN_LumoqcKlP9KUUMQo9Xobyu7cH986u0aFtg,,,,,,,,,,,
,,,,,,,,,,,,,,p,1,0.641095,space,0.05297,0,109,109,97,1,15_dist_red/trial23.png,,,1,15,redHorizontal,p,39,20,female,2021-02-21_16h21.50.229,exp11,2020.2.6,Win32,60,IwAR0ad7ImPw7teSdjRuB99MCN_LumoqcKlP9KUUMQo9Xobyu7cH986u0aFtg,,,,,,,,,,,
,,,,,,,,,,,,,,p,1,0.53446,space,0.083425,0,110,110,59,1,9_dist_red/trial10.png,,,1,9,redHorizontal,p,39,20,female,2021-02-21_16h21.50.229,exp11,2020.2.6,Win32,60,IwAR0ad7ImPw7teSdjRuB99MCN_LumoqcKlP9KUUMQo9Xobyu7cH986u0aFtg,,,,,,,,,,,
,,,,,,,,,,,,,,a,1,0.91009,space,0.10077,0,111,111,112,1,0_targ_1_dist_red/trial13.png,,,0,1,redHorizontal,a,39,20,female,2021-02-21_16h21.50.229,exp11,2020.2.6,Win32,60,IwAR0ad7ImPw7teSdjRuB99MCN_LumoqcKlP9KUUMQo9Xobyu7cH986u0aFtg,,,,,,,,,,,
,,,,,,,,,,,,,,a,1,0.554225,space,0.06889,0,112,112,128,1,0_targ_4_dist_red/trial4.png,,,0,4,redHorizontal,a,39,20,female,2021-02-21_16h21.50.229,exp11,2020.2.6,Win32,60,IwAR0ad7ImPw7teSdjRuB99MCN_LumoqcKlP9KUUMQo9Xobyu7cH986u0aFtg,,,,,,,,,,,
,,,,,,,,,,,,,,a,1,0.78567,space,0.10143,0,113,113,147,1,0_targ_4_dist_red/trial23.png,,,0,4,redHorizontal,a,39,20,female,2021-02-21_16h21.50.229,exp11,2020.2.6,Win32,60,IwAR0ad7ImPw7teSdjRuB99MCN_LumoqcKlP9KUUMQo9Xobyu7cH986u0aFtg,,,,,,,,,,,
,,,,,,,,,,,,,,p,1,0.547575,space,0.09168,0,114,114,7,1,0_dist_red/trial8.png,,,1,0,redHorizontal,p,39,20,female,2021-02-21_16h21.50.229,exp11,2020.2.6,Win32,60,IwAR0ad7ImPw7teSdjRuB99MCN_LumoqcKlP9KUUMQo9Xobyu7cH986u0aFtg,,,,,,,,,,,
,,,,,,,,,,,,,,p,1,0.496145,space,0.107985,0,115,115,92,1,15_dist_red/trial18.png,,,1,15,redHorizontal,p,39,20,female,2021-02-21_16h21.50.229,exp11,2020.2.6,Win32,60,IwAR0ad7ImPw7teSdjRuB99MCN_LumoqcKlP9KUUMQo9Xobyu7cH986u0aFtg,,,,,,,,,,,
,,,,,,,,,,,,,,p,0,0.404505,space,1.449695,0,116,116,117,1,0_targ_1_dist_red/trial18.png,,,0,1,redHorizontal,a,39,20,female,2021-02-21_16h21.50.229,exp11,2020.2.6,Win32,60,IwAR0ad7ImPw7teSdjRuB99MCN_LumoqcKlP9KUUMQo9Xobyu7cH986u0aFtg,,,,,,,,,,,
,,,,,,,,,,,,,,p,1,0.678045,space,0.055235,0,117,117,86,1,15_dist_red/trial12.png,,,1,15,redHorizontal,p,39,20,female,2021-02-21_16h21.50.229,exp11,2020.2.6,Win32,60,IwAR0ad7ImPw7teSdjRuB99MCN_LumoqcKlP9KUUMQo9Xobyu7cH986u0aFtg,,,,,,,,,,,
,,,,,,,,,,,,,,a,1,0.651785,space,0.068585,0,118,118,182,1,0_targ_16_dist_red/trial8.png,,,0,16,redHorizontal,a,39,20,female,2021-02-21_16h21.50.229,exp11,2020.2.6,Win32,60,IwAR0ad7ImPw7teSdjRuB99MCN_LumoqcKlP9KUUMQo9Xobyu7cH986u0aFtg,,,,,,,,,,,
,,,,,,,,,,,,,,a,1,0.5847,space,0.068195,0,119,119,127,1,0_targ_4_dist_red/trial3.png,,,0,4,redHorizontal,a,39,20,female,2021-02-21_16h21.50.229,exp11,2020.2.6,Win32,60,IwAR0ad7ImPw7teSdjRuB99MCN_LumoqcKlP9KUUMQo9Xobyu7cH986u0aFtg,,,,,,,,,,,
,,,,,,,,,,,,,,p,1,0.573135,space,0.066335,0,120,120,9,1,0_dist_red/trial10.png,,,1,0,redHorizontal,p,39,20,female,2021-02-21_16h21.50.229,exp11,2020.2.6,Win32,60,IwAR0ad7ImPw7teSdjRuB99MCN_LumoqcKlP9KUUMQo9Xobyu7cH986u0aFtg,,,,,,,,,,,
,,,,,,,,,,,,,,p,1,0.499575,space,0.068595,0,121,121,38,1,3_dist_red/trial14.png,,,1,3,redHorizontal,p,39,20,female,2021-02-21_16h21.50.229,exp11,2020.2.6,Win32,60,IwAR0ad7ImPw7teSdjRuB99MCN_LumoqcKlP9KUUMQo9Xobyu7cH986u0aFtg,,,,,,,,,,,
,,,,,,,,,,,,,,a,0,0.61842,space,0.12258,0,122,122,73,1,9_dist_red/trial24.png,,,1,9,redHorizontal,p,39,20,female,2021-02-21_16h21.50.229,exp11,2020.2.6,Win32,60,IwAR0ad7ImPw7teSdjRuB99MCN_LumoqcKlP9KUUMQo9Xobyu7cH986u0aFtg,,,,,,,,,,,
,,,,,,,,,,,,,,p,1,1.134005,space,0.01226,0,123,123,26,1,3_dist_red/trial2.png,,,1,3,redHorizontal,p,39,20,female,2021-02-21_16h21.50.229,exp11,2020.2.6,Win32,60,IwAR0ad7ImPw7teSdjRuB99MCN_LumoqcKlP9KUUMQo9Xobyu7cH986u0aFtg,,,,,,,,,,,
,,,,,,,,,,,,,,a,1,0.566615,space,0.063425,0,124,124,167,1,0_targ_10_dist_red/trial18.png,,,0,10,redHorizontal,a,39,20,female,2021-02-21_16h21.50.229,exp11,2020.2.6,Win32,60,IwAR0ad7ImPw7teSdjRuB99MCN_LumoqcKlP9KUUMQo9Xobyu7cH986u0aFtg,,,,,,,,,,,
,,,,,,,,,,,,,,p,1,0.540935,space,0.06834,0,125,125,48,1,3_dist_red/trial24.png,,,1,3,redHorizontal,p,39,20,female,2021-02-21_16h21.50.229,exp11,2020.2.6,Win32,60,IwAR0ad7ImPw7teSdjRuB99MCN_LumoqcKlP9KUUMQo9Xobyu7cH986u0aFtg,,,,,,,,,,,
,,,,,,,,,,,,,,p,1,0.47263,space,0.08874,0,126,126,68,1,9_dist_red/trial19.png,,,1,9,redHorizontal,p,39,20,female,2021-02-21_16h21.50.229,exp11,2020.2.6,Win32,60,IwAR0ad7ImPw7teSdjRuB99MCN_LumoqcKlP9KUUMQo9Xobyu7cH986u0aFtg,,,,,,,,,,,
,,,,,,,,,,,,,,a,1,1.007195,space,0.0681,0,127,127,164,1,0_targ_10_dist_red/trial15.png,,,0,10,redHorizontal,a,39,20,female,2021-02-21_16h21.50.229,exp11,2020.2.6,Win32,60,IwAR0ad7ImPw7teSdjRuB99MCN_LumoqcKlP9KUUMQo9Xobyu7cH986u0aFtg,,,,,,,,,,,
,,,,,,,,,,,,,,a,1,0.6583,space,0.08501,0,128,128,193,1,0_targ_16_dist_red/trial19.png,,,0,16,redHorizontal,a,39,20,female,2021-02-21_16h21.50.229,exp11,2020.2.6,Win32,60,IwAR0ad7ImPw7teSdjRuB99MCN_LumoqcKlP9KUUMQo9Xobyu7cH986u0aFtg,,,,,,,,,,,
,,,,,,,,,,,,,,p,1,0.56611,space,0.066025,0,129,129,30,1,3_dist_red/trial6.png,,,1,3,redHorizontal,p,39,20,female,2021-02-21_16h21.50.229,exp11,2020.2.6,Win32,60,IwAR0ad7ImPw7teSdjRuB99MCN_LumoqcKlP9KUUMQo9Xobyu7cH986u0aFtg,,,,,,,,,,,
,,,,,,,,,,,,,,a,1,0.70323,space,0.05123,0,130,130,114,1,0_targ_1_dist_red/trial15.png,,,0,1,redHorizontal,a,39,20,female,2021-02-21_16h21.50.229,exp11,2020.2.6,Win32,60,IwAR0ad7ImPw7teSdjRuB99MCN_LumoqcKlP9KUUMQo9Xobyu7cH986u0aFtg,,,,,,,,,,,
,,,,,,,,,,,,,,a,1,0.575295,space,0.07515,0,131,131,104,1,0_targ_1_dist_red/trial5.png,,,0,1,redHorizontal,a,39,20,female,2021-02-21_16h21.50.229,exp11,2020.2.6,Win32,60,IwAR0ad7ImPw7teSdjRuB99MCN_LumoqcKlP9KUUMQo9Xobyu7cH986u0aFtg,,,,,,,,,,,
,,,,,,,,,,,,,,p,1,0.522885,space,0.0521,0,132,132,94,1,15_dist_red/trial20.png,,,1,15,redHorizontal,p,39,20,female,2021-02-21_16h21.50.229,exp11,2020.2.6,Win32,60,IwAR0ad7ImPw7teSdjRuB99MCN_LumoqcKlP9KUUMQo9Xobyu7cH986u0aFtg,,,,,,,,,,,
,,,,,,,,,,,,,,p,1,0.52135,space,0.08946,0,133,133,49,1,3_dist_red/trial25.png,,,1,3,redHorizontal,p,39,20,female,2021-02-21_16h21.50.229,exp11,2020.2.6,Win32,60,IwAR0ad7ImPw7teSdjRuB99MCN_LumoqcKlP9KUUMQo9Xobyu7cH986u0aFtg,,,,,,,,,,,
,,,,,,,,,,,,,,a,1,0.647995,space,0.08488,0,134,134,151,1,0_targ_10_dist_red/trial2.png,,,0,10,redHorizontal,a,39,20,female,2021-02-21_16h21.50.229,exp11,2020.2.6,Win32,60,IwAR0ad7ImPw7teSdjRuB99MCN_LumoqcKlP9KUUMQo9Xobyu7cH986u0aFtg,,,,,,,,,,,
,,,,,,,,,,,,,,a,1,0.605145,space,0.051915,0,135,135,181,1,0_targ_16_dist_red/trial7.png,,,0,16,redHorizontal,a,39,20,female,2021-02-21_16h21.50.229,exp11,2020.2.6,Win32,60,IwAR0ad7ImPw7teSdjRuB99MCN_LumoqcKlP9KUUMQo9Xobyu7cH986u0aFtg,,,,,,,,,,,
,,,,,,,,,,,,,,p,1,0.524605,space,0.051445,0,136,136,20,1,0_dist_red/trial21.png,,,1,0,redHorizontal,p,39,20,female,2021-02-21_16h21.50.229,exp11,2020.2.6,Win32,60,IwAR0ad7ImPw7teSdjRuB99MCN_LumoqcKlP9KUUMQo9Xobyu7cH986u0aFtg,,,,,,,,,,,
,,,,,,,,,,,,,,p,1,0.55951,space,0.09539,0,137,137,87,1,15_dist_red/trial13.png,,,1,15,redHorizontal,p,39,20,female,2021-02-21_16h21.50.229,exp11,2020.2.6,Win32,60,IwAR0ad7ImPw7teSdjRuB99MCN_LumoqcKlP9KUUMQo9Xobyu7cH986u0aFtg,,,,,,,,,,,
,,,,,,,,,,,,,,p,1,0.48965,space,0.11889,0,138,138,40,1,3_dist_red/trial16.png,,,1,3,redHorizontal,p,39,20,female,2021-02-21_16h21.50.229,exp11,2020.2.6,Win32,60,IwAR0ad7ImPw7teSdjRuB99MCN_LumoqcKlP9KUUMQo9Xobyu7cH986u0aFtg,,,,,,,,,,,
,,,,,,,,,,,,,,a,1,0.567455,space,0.156625,0,139,139,101,1,0_targ_1_dist_red/trial2.png,,,0,1,redHorizontal,a,39,20,female,2021-02-21_16h21.50.229,exp11,2020.2.6,Win32,60,IwAR0ad7ImPw7teSdjRuB99MCN_LumoqcKlP9KUUMQo9Xobyu7cH986u0aFtg,,,,,,,,,,,
,,,,,,,,,,,,,,a,0,0.445025,space,0.57088,0,140,140,0,1,0_dist_red/trial1.png,,,1,0,redHorizontal,p,39,20,female,2021-02-21_16h21.50.229,exp11,2020.2.6,Win32,60,IwAR0ad7ImPw7teSdjRuB99MCN_LumoqcKlP9KUUMQo9Xobyu7cH986u0aFtg,,,,,,,,,,,
,,,,,,,,,,,,,,a,1,0.6204,space,0.04521,0,141,141,157,1,0_targ_10_dist_red/trial8.png,,,0,10,redHorizontal,a,39,20,female,2021-02-21_16h21.50.229,exp11,2020.2.6,Win32,60,IwAR0ad7ImPw7teSdjRuB99MCN_LumoqcKlP9KUUMQo9Xobyu7cH986u0aFtg,,,,,,,,,,,
,,,,,,,,,,,,,,a,1,0.51049,space,0.05014,0,142,142,145,1,0_targ_4_dist_red/trial21.png,,,0,4,redHorizontal,a,39,20,female,2021-02-21_16h21.50.229,exp11,2020.2.6,Win32,60,IwAR0ad7ImPw7teSdjRuB99MCN_LumoqcKlP9KUUMQo9Xobyu7cH986u0aFtg,,,,,,,,,,,
,,,,,,,,,,,,,,a,1,0.561315,space,0.054635,0,143,143,179,1,0_targ_16_dist_red/trial5.png,,,0,16,redHorizontal,a,39,20,female,2021-02-21_16h21.50.229,exp11,2020.2.6,Win32,60,IwAR0ad7ImPw7teSdjRuB99MCN_LumoqcKlP9KUUMQo9Xobyu7cH986u0aFtg,,,,,,,,,,,
,,,,,,,,,,,,,,a,1,0.523845,space,0.05289,0,144,144,144,1,0_targ_4_dist_red/trial20.png,,,0,4,redHorizontal,a,39,20,female,2021-02-21_16h21.50.229,exp11,2020.2.6,Win32,60,IwAR0ad7ImPw7teSdjRuB99MCN_LumoqcKlP9KUUMQo9Xobyu7cH986u0aFtg,,,,,,,,,,,
,,,,,,,,,,,,,,p,1,0.512645,space,0.054545,0,145,145,93,1,15_dist_red/trial19.png,,,1,15,redHorizontal,p,39,20,female,2021-02-21_16h21.50.229,exp11,2020.2.6,Win32,60,IwAR0ad7ImPw7teSdjRuB99MCN_LumoqcKlP9KUUMQo9Xobyu7cH986u0aFtg,,,,,,,,,,,
,,,,,,,,,,,,,,a,1,0.54714,space,0.035815,0,146,146,152,1,0_targ_10_dist_red/trial3.png,,,0,10,redHorizontal,a,39,20,female,2021-02-21_16h21.50.229,exp11,2020.2.6,Win32,60,IwAR0ad7ImPw7teSdjRuB99MCN_LumoqcKlP9KUUMQo9Xobyu7cH986u0aFtg,,,,,,,,,,,
,,,,,,,,,,,,,,a,1,0.642665,space,0.051455,0,147,147,197,1,0_targ_16_dist_red/trial23.png,,,0,16,redHorizontal,a,39,20,female,2021-02-21_16h21.50.229,exp11,2020.2.6,Win32,60,IwAR0ad7ImPw7teSdjRuB99MCN_LumoqcKlP9KUUMQo9Xobyu7cH986u0aFtg,,,,,,,,,,,
,,,,,,,,,,,,,,a,1,0.482645,space,0.05386,0,148,148,159,1,0_targ_10_dist_red/trial10.png,,,0,10,redHorizontal,a,39,20,female,2021-02-21_16h21.50.229,exp11,2020.2.6,Win32,60,IwAR0ad7ImPw7teSdjRuB99MCN_LumoqcKlP9KUUMQo9Xobyu7cH986u0aFtg,,,,,,,,,,,
,,,,,,,,,,,,,,p,1,0.60484,space,0.018805,0,149,149,29,1,3_dist_red/trial5.png,,,1,3,redHorizontal,p,39,20,female,2021-02-21_16h21.50.229,exp11,2020.2.6,Win32,60,IwAR0ad7ImPw7teSdjRuB99MCN_LumoqcKlP9KUUMQo9Xobyu7cH986u0aFtg,,,,,,,,,,,
,,,,,,,,,,,,,,a,1,0.57391,space,0.049325,0,150,150,185,1,0_targ_16_dist_red/trial11.png,,,0,16,redHorizontal,a,39,20,female,2021-02-21_16h21.50.229,exp11,2020.2.6,Win32,60,IwAR0ad7ImPw7teSdjRuB99MCN_LumoqcKlP9KUUMQo9Xobyu7cH986u0aFtg,,,,,,,,,,,
,,,,,,,,,,,,,,a,1,0.58774,space,0.058405,0,151,151,119,1,0_targ_1_dist_red/trial20.png,,,0,1,redHorizontal,a,39,20,female,2021-02-21_16h21.50.229,exp11,2020.2.6,Win32,60,IwAR0ad7ImPw7teSdjRuB99MCN_LumoqcKlP9KUUMQo9Xobyu7cH986u0aFtg,,,,,,,,,,,
,,,,,,,,,,,,,,p,1,0.49595,space,0.0648,0,152,152,22,1,0_dist_red/trial23.png,,,1,0,redHorizontal,p,39,20,female,2021-02-21_16h21.50.229,exp11,2020.2.6,Win32,60,IwAR0ad7ImPw7teSdjRuB99MCN_LumoqcKlP9KUUMQo9Xobyu7cH986u0aFtg,,,,,,,,,,,
,,,,,,,,,,,,,,a,1,0.593525,space,0.05237,0,153,153,178,1,0_targ_16_dist_red/trial4.png,,,0,16,redHorizontal,a,39,20,female,2021-02-21_16h21.50.229,exp11,2020.2.6,Win32,60,IwAR0ad7ImPw7teSdjRuB99MCN_LumoqcKlP9KUUMQo9Xobyu7cH986u0aFtg,,,,,,,,,,,
,,,,,,,,,,,,,,a,1,0.52629,space,0.05119,0,154,154,108,1,0_targ_1_dist_red/trial9.png,,,0,1,redHorizontal,a,39,20,female,2021-02-21_16h21.50.229,exp11,2020.2.6,Win32,60,IwAR0ad7ImPw7teSdjRuB99MCN_LumoqcKlP9KUUMQo9Xobyu7cH986u0aFtg,,,,,,,,,,,
,,,,,,,,,,,,,,p,1,0.480435,space,0.033115,0,155,155,15,1,0_dist_red/trial16.png,,,1,0,redHorizontal,p,39,20,female,2021-02-21_16h21.50.229,exp11,2020.2.6,Win32,60,IwAR0ad7ImPw7teSdjRuB99MCN_LumoqcKlP9KUUMQo9Xobyu7cH986u0aFtg,,,,,,,,,,,
,,,,,,,,,,,,,,p,1,0.79692,space,0.102505,0,156,156,75,1,15_dist_red/trial1.png,,,1,15,redHorizontal,p,39,20,female,2021-02-21_16h21.50.229,exp11,2020.2.6,Win32,60,IwAR0ad7ImPw7teSdjRuB99MCN_LumoqcKlP9KUUMQo9Xobyu7cH986u0aFtg,,,,,,,,,,,
,,,,,,,,,,,,,,a,1,0.683385,space,0.00181,0,157,157,199,1,0_targ_16_dist_red/trial25.png,,,0,16,redHorizontal,a,39,20,female,2021-02-21_16h21.50.229,exp11,2020.2.6,Win32,60,IwAR0ad7ImPw7teSdjRuB99MCN_LumoqcKlP9KUUMQo9Xobyu7cH986u0aFtg,,,,,,,,,,,
,,,,,,,,,,,,,,a,1,0.458705,space,0.06738,0,158,158,143,1,0_targ_4_dist_red/trial19.png,,,0,4,redHorizontal,a,39,20,female,2021-02-21_16h21.50.229,exp11,2020.2.6,Win32,60,IwAR0ad7ImPw7teSdjRuB99MCN_LumoqcKlP9KUUMQo9Xobyu7cH986u0aFtg,,,,,,,,,,,
,,,,,,,,,,,,,,p,1,0.92505,space,0.03746,0,159,159,27,1,3_dist_red/trial3.png,,,1,3,redHorizontal,p,39,20,female,2021-02-21_16h21.50.229,exp11,2020.2.6,Win32,60,IwAR0ad7ImPw7teSdjRuB99MCN_LumoqcKlP9KUUMQo9Xobyu7cH986u0aFtg,,,,,,,,,,,
,,,,,,,,,,,,,,p,1,0.495675,space,0.03634,0,160,160,28,1,3_dist_red/trial4.png,,,1,3,redHorizontal,p,39,20,female,2021-02-21_16h21.50.229,exp11,2020.2.6,Win32,60,IwAR0ad7ImPw7teSdjRuB99MCN_LumoqcKlP9KUUMQo9Xobyu7cH986u0aFtg,,,,,,,,,,,
,,,,,,,,,,,,,,p,1,0.73824,space,0.085265,0,161,161,90,1,15_dist_red/trial16.png,,,1,15,redHorizontal,p,39,20,female,2021-02-21_16h21.50.229,exp11,2020.2.6,Win32,60,IwAR0ad7ImPw7teSdjRuB99MCN_LumoqcKlP9KUUMQo9Xobyu7cH986u0aFtg,,,,,,,,,,,
,,,,,,,,,,,,,,p,1,0.53716,space,0.05067,0,162,162,56,1,9_dist_red/trial7.png,,,1,9,redHorizontal,p,39,20,female,2021-02-21_16h21.50.229,exp11,2020.2.6,Win32,60,IwAR0ad7ImPw7teSdjRuB99MCN_LumoqcKlP9KUUMQo9Xobyu7cH986u0aFtg,,,,,,,,,,,
,,,,,,,,,,,,,,p,1,0.42594,space,0.102895,0,163,163,12,1,0_dist_red/trial13.png,,,1,0,redHorizontal,p,39,20,female,2021-02-21_16h21.50.229,exp11,2020.2.6,Win32,60,IwAR0ad7ImPw7teSdjRuB99MCN_LumoqcKlP9KUUMQo9Xobyu7cH986u0aFtg,,,,,,,,,,,
,,,,,,,,,,,,,,p,1,0.678235,space,0.06789,0,164,164,34,1,3_dist_red/trial10.png,,,1,3,redHorizontal,p,39,20,female,2021-02-21_16h21.50.229,exp11,2020.2.6,Win32,60,IwAR0ad7ImPw7teSdjRuB99MCN_LumoqcKlP9KUUMQo9Xobyu7cH986u0aFtg,,,,,,,,,,,
,,,,,,,,,,,,,,a,1,0.62422,space,0.051715,0,165,165,142,1,0_targ_4_dist_red/trial18.png,,,0,4,redHorizontal,a,39,20,female,2021-02-21_16h21.50.229,exp11,2020.2.6,Win32,60,IwAR0ad7ImPw7teSdjRuB99MCN_LumoqcKlP9KUUMQo9Xobyu7cH986u0aFtg,,,,,,,,,,,
,,,,,,,,,,,,,,a,1,0.661855,space,0.077905,0,166,166,130,1,0_targ_4_dist_red/trial6.png,,,0,4,redHorizontal,a,39,20,female,2021-02-21_16h21.50.229,exp11,2020.2.6,Win32,60,IwAR0ad7ImPw7teSdjRuB99MCN_LumoqcKlP9KUUMQo9Xobyu7cH986u0aFtg,,,,,,,,,,,
,,,,,,,,,,,,,,a,1,0.647295,space,0.13281,0,167,167,120,1,0_targ_1_dist_red/trial21.png,,,0,1,redHorizontal,a,39,20,female,2021-02-21_16h21.50.229,exp11,2020.2.6,Win32,60,IwAR0ad7ImPw7teSdjRuB99MCN_LumoqcKlP9KUUMQo9Xobyu7cH986u0aFtg,,,,,,,,,,,
,,,,,,,,,,,,,,p,1,0.6959,space,0.032975,0,168,168,21,1,0_dist_red/trial22.png,,,1,0,redHorizontal,p,39,20,female,2021-02-21_16h21.50.229,exp11,2020.2.6,Win32,60,IwAR0ad7ImPw7teSdjRuB99MCN_LumoqcKlP9KUUMQo9Xobyu7cH986u0aFtg,,,,,,,,,,,
,,,,,,,,,,,,,,p,1,0.542365,space,0.050785,0,169,169,60,1,9_dist_red/trial11.png,,,1,9,redHorizontal,p,39,20,female,2021-02-21_16h21.50.229,exp11,2020.2.6,Win32,60,IwAR0ad7ImPw7teSdjRuB99MCN_LumoqcKlP9KUUMQo9Xobyu7cH986u0aFtg,,,,,,,,,,,
,,,,,,,,,,,,,,p,1,0.56006,space,0.05054,0,170,170,42,1,3_dist_red/trial18.png,,,1,3,redHorizontal,p,39,20,female,2021-02-21_16h21.50.229,exp11,2020.2.6,Win32,60,IwAR0ad7ImPw7teSdjRuB99MCN_LumoqcKlP9KUUMQo9Xobyu7cH986u0aFtg,,,,,,,,,,,
,,,,,,,,,,,,,,a,1,0.594765,space,0.036865,0,171,171,174,1,0_targ_10_dist_red/trial25.png,,,0,10,redHorizontal,a,39,20,female,2021-02-21_16h21.50.229,exp11,2020.2.6,Win32,60,IwAR0ad7ImPw7teSdjRuB99MCN_LumoqcKlP9KUUMQo9Xobyu7cH986u0aFtg,,,,,,,,,,,
,,,,,,,,,,,,,,p,1,0.54278,space,0.05117,0,172,172,18,1,0_dist_red/trial19.png,,,1,0,redHorizontal,p,39,20,female,2021-02-21_16h21.50.229,exp11,2020.2.6,Win32,60,IwAR0ad7ImPw7teSdjRuB99MCN_LumoqcKlP9KUUMQo9Xobyu7cH986u0aFtg,,,,,,,,,,,
,,,,,,,,,,,,,,p,1,0.58862,space,0.04957,0,173,173,50,1,9_dist_red/trial1.png,,,1,9,redHorizontal,p,39,20,female,2021-02-21_16h21.50.229,exp11,2020.2.6,Win32,60,IwAR0ad7ImPw7teSdjRuB99MCN_LumoqcKlP9KUUMQo9Xobyu7cH986u0aFtg,,,,,,,,,,,
,,,,,,,,,,,,,,p,0,0.58084,space,0.42068,0,174,174,139,1,0_targ_4_dist_red/trial15.png,,,0,4,redHorizontal,a,39,20,female,2021-02-21_16h21.50.229,exp11,2020.2.6,Win32,60,IwAR0ad7ImPw7teSdjRuB99MCN_LumoqcKlP9KUUMQo9Xobyu7cH986u0aFtg,,,,,,,,,,,
,,,,,,,,,,,,,,p,1,0.58511,space,0.00212,0,175,175,99,1,15_dist_red/trial25.png,,,1,15,redHorizontal,p,39,20,female,2021-02-21_16h21.50.229,exp11,2020.2.6,Win32,60,IwAR0ad7ImPw7teSdjRuB99MCN_LumoqcKlP9KUUMQo9Xobyu7cH986u0aFtg,,,,,,,,,,,
,,,,,,,,,,,,,,p,1,0.508815,space,0.052045,0,176,176,76,1,15_dist_red/trial2.png,,,1,15,redHorizontal,p,39,20,female,2021-02-21_16h21.50.229,exp11,2020.2.6,Win32,60,IwAR0ad7ImPw7teSdjRuB99MCN_LumoqcKlP9KUUMQo9Xobyu7cH986u0aFtg,,,,,,,,,,,
,,,,,,,,,,,,,,p,1,0.52756,space,0.014085,0,177,177,51,1,9_dist_red/trial2.png,,,1,9,redHorizontal,p,39,20,female,2021-02-21_16h21.50.229,exp11,2020.2.6,Win32,60,IwAR0ad7ImPw7teSdjRuB99MCN_LumoqcKlP9KUUMQo9Xobyu7cH986u0aFtg,,,,,,,,,,,
,,,,,,,,,,,,,,p,1,0.47424,space,0.042515,0,178,178,79,1,15_dist_red/trial5.png,,,1,15,redHorizontal,p,39,20,female,2021-02-21_16h21.50.229,exp11,2020.2.6,Win32,60,IwAR0ad7ImPw7teSdjRuB99MCN_LumoqcKlP9KUUMQo9Xobyu7cH986u0aFtg,,,,,,,,,,,
,,,,,,,,,,,,,,p,1,0.47212,space,0.019275,0,179,179,64,1,9_dist_red/trial15.png,,,1,9,redHorizontal,p,39,20,female,2021-02-21_16h21.50.229,exp11,2020.2.6,Win32,60,IwAR0ad7ImPw7teSdjRuB99MCN_LumoqcKlP9KUUMQo9Xobyu7cH986u0aFtg,,,,,,,,,,,
,,,,,,,,,,,,,,p,1,0.508815,space,0.03493,0,180,180,39,1,3_dist_red/trial15.png,,,1,3,redHorizontal,p,39,20,female,2021-02-21_16h21.50.229,exp11,2020.2.6,Win32,60,IwAR0ad7ImPw7teSdjRuB99MCN_LumoqcKlP9KUUMQo9Xobyu7cH986u0aFtg,,,,,,,,,,,
,,,,,,,,,,,,,,a,1,0.590825,space,0.00868,0,181,181,126,1,0_targ_4_dist_red/trial2.png,,,0,4,redHorizontal,a,39,20,female,2021-02-21_16h21.50.229,exp11,2020.2.6,Win32,60,IwAR0ad7ImPw7teSdjRuB99MCN_LumoqcKlP9KUUMQo9Xobyu7cH986u0aFtg,,,,,,,,,,,
,,,,,,,,,,,,,,p,1,0.60546,space,0.05945,0,182,182,3,1,0_dist_red/trial4.png,,,1,0,redHorizontal,p,39,20,female,2021-02-21_16h21.50.229,exp11,2020.2.6,Win32,60,IwAR0ad7ImPw7teSdjRuB99MCN_LumoqcKlP9KUUMQo9Xobyu7cH986u0aFtg,,,,,,,,,,,
,,,,,,,,,,,,,,p,1,0.51769,space,0.0846,0,183,183,70,1,9_dist_red/trial21.png,,,1,9,redHorizontal,p,39,20,female,2021-02-21_16h21.50.229,exp11,2020.2.6,Win32,60,IwAR0ad7ImPw7teSdjRuB99MCN_LumoqcKlP9KUUMQo9Xobyu7cH986u0aFtg,,,,,,,,,,,
,,,,,,,,,,,,,,a,0,0.66991,space,1.314985,0,184,184,31,1,3_dist_red/trial7.png,,,1,3,redHorizontal,p,39,20,female,2021-02-21_16h21.50.229,exp11,2020.2.6,Win32,60,IwAR0ad7ImPw7teSdjRuB99MCN_LumoqcKlP9KUUMQo9Xobyu7cH986u0aFtg,,,,,,,,,,,
,,,,,,,,,,,,,,p,1,0.7719,space,0.046545,0,185,185,84,1,15_dist_red/trial10.png,,,1,15,redHorizontal,p,39,20,female,2021-02-21_16h21.50.229,exp11,2020.2.6,Win32,60,IwAR0ad7ImPw7teSdjRuB99MCN_LumoqcKlP9KUUMQo9Xobyu7cH986u0aFtg,,,,,,,,,,,
,,,,,,,,,,,,,,p,1,0.5901,space,0.0842,0,186,186,25,1,3_dist_red/trial1.png,,,1,3,redHorizontal,p,39,20,female,2021-02-21_16h21.50.229,exp11,2020.2.6,Win32,60,IwAR0ad7ImPw7teSdjRuB99MCN_LumoqcKlP9KUUMQo9Xobyu7cH986u0aFtg,,,,,,,,,,,
,,,,,,,,,,,,,,a,1,0.66816,space,0.15466,0,187,187,121,1,0_targ_1_dist_red/trial22.png,,,0,1,redHorizontal,a,39,20,female,2021-02-21_16h21.50.229,exp11,2020.2.6,Win32,60,IwAR0ad7ImPw7teSdjRuB99MCN_LumoqcKlP9KUUMQo9Xobyu7cH986u0aFtg,,,,,,,,,,,
,,,,,,,,,,,,,,p,1,0.501395,space,0.05188,0,188,188,52,1,9_dist_red/trial3.png,,,1,9,redHorizontal,p,39,20,female,2021-02-21_16h21.50.229,exp11,2020.2.6,Win32,60,IwAR0ad7ImPw7teSdjRuB99MCN_LumoqcKlP9KUUMQo9Xobyu7cH986u0aFtg,,,,,,,,,,,
,,,,,,,,,,,,,,a,1,0.56521,space,0.040035,0,189,189,140,1,0_targ_4_dist_red/trial6.png,,,0,4,redHorizontal,a,39,20,female,2021-02-21_16h21.50.229,exp11,2020.2.6,Win32,60,IwAR0ad7ImPw7teSdjRuB99MCN_LumoqcKlP9KUUMQo9Xobyu7cH986u0aFtg,,,,,,,,,,,
,,,,,,,,,,,,,,a,1,0.657335,space,0.034545,0,190,190,169,1,0_targ_10_dist_red/trial20.png,,,0,10,redHorizontal,a,39,20,female,2021-02-21_16h21.50.229,exp11,2020.2.6,Win32,60,IwAR0ad7ImPw7teSdjRuB99MCN_LumoqcKlP9KUUMQo9Xobyu7cH986u0aFtg,,,,,,,,,,,
,,,,,,,,,,,,,,p,1,0.482815,space,0.002785,0,191,191,19,1,0_dist_red/trial20.png,,,1,0,redHorizontal,p,39,20,female,2021-02-21_16h21.50.229,exp11,2020.2.6,Win32,60,IwAR0ad7ImPw7teSdjRuB99MCN_LumoqcKlP9KUUMQo9Xobyu7cH986u0aFtg,,,,,,,,,,,
,,,,,,,,,,,,,,a,1,0.570035,space,0.108195,0,192,192,103,1,0_targ_1_dist_red/trial4.png,,,0,1,redHorizontal,a,39,20,female,2021-02-21_16h21.50.229,exp11,2020.2.6,Win32,60,IwAR0ad7ImPw7teSdjRuB99MCN_LumoqcKlP9KUUMQo9Xobyu7cH986u0aFtg,,,,,,,,,,,
,,,,,,,,,,,,,,p,1,0.42957,space,0.009635,0,193,193,47,1,3_dist_red/trial23.png,,,1,3,redHorizontal,p,39,20,female,2021-02-21_16h21.50.229,exp11,2020.2.6,Win32,60,IwAR0ad7ImPw7teSdjRuB99MCN_LumoqcKlP9KUUMQo9Xobyu7cH986u0aFtg,,,,,,,,,,,
,,,,,,,,,,,,,,a,1,0.540385,space,0.038105,0,194,194,132,1,0_targ_4_dist_red/trial8.png,,,0,4,redHorizontal,a,39,20,female,2021-02-21_16h21.50.229,exp11,2020.2.6,Win32,60,IwAR0ad7ImPw7teSdjRuB99MCN_LumoqcKlP9KUUMQo9Xobyu7cH986u0aFtg,,,,,,,,,,,
,,,,,,,,,,,,,,p,1,0.515875,space,1.704435,0,195,195,6,1,0_dist_red/trial7.png,,,1,0,redHorizontal,p,39,20,female,2021-02-21_16h21.50.229,exp11,2020.2.6,Win32,60,IwAR0ad7ImPw7teSdjRuB99MCN_LumoqcKlP9KUUMQo9Xobyu7cH986u0aFtg,,,,,,,,,,,
,,,,,,,,,,,,,,p,1,0.686395,space,0.06874,0,196,196,71,1,9_dist_red/trial22.png,,,1,9,redHorizontal,p,39,20,female,2021-02-21_16h21.50.229,exp11,2020.2.6,Win32,60,IwAR0ad7ImPw7teSdjRuB99MCN_LumoqcKlP9KUUMQo9Xobyu7cH986u0aFtg,,,,,,,,,,,
,,,,,,,,,,,,,,p,1,0.658905,space,0.06174,0,197,197,57,1,9_dist_red/trial8.png,,,1,9,redHorizontal,p,39,20,female,2021-02-21_16h21.50.229,exp11,2020.2.6,Win32,60,IwAR0ad7ImPw7teSdjRuB99MCN_LumoqcKlP9KUUMQo9Xobyu7cH986u0aFtg,,,,,,,,,,,
,,,,,,,,,,,,,,a,1,0.665315,space,0.11618,0,198,198,194,1,0_targ_16_dist_red/trial20.png,,,0,16,redHorizontal,a,39,20,female,2021-02-21_16h21.50.229,exp11,2020.2.6,Win32,60,IwAR0ad7ImPw7teSdjRuB99MCN_LumoqcKlP9KUUMQo9Xobyu7cH986u0aFtg,,,,,,,,,,,
,,,,,,,,,,,,,,a,1,0.849285,space,0.03598,0,199,199,176,1,0_targ_16_dist_red/trial2.png,,,0,16,redHorizontal,a,39,20,female,2021-02-21_16h21.50.229,exp11,2020.2.6,Win32,60,IwAR0ad7ImPw7teSdjRuB99MCN_LumoqcKlP9KUUMQo9Xobyu7cH986u0aFtg,,,,,,,,,,,
,,,,,,,,,,,,,,,,,,,,,,,,,,,,,,,39,20,female,2021-02-21_16h21.50.229,exp11,2020.2.6,Win32,60,IwAR0ad7ImPw7teSdjRuB99MCN_LumoqcKlP9KUUMQo9Xobyu7cH986u0aFtg,0,1,1,1,1,conRed.xlsx,red horizontal,Look for red horizontal bar (target) and indicate if it is present or absent in the array. If red horizontal target is present press 'p' and if absent press 'a'. Press SPACE to start.,,,
