key_resp_6.keys,key_resp_6.rt,key_resp_7.keys,key_resp_7.rt,key_resp_8.keys,key_resp_8.rt,key_resp_10.keys,key_resp_10.rt,key_resp_9.keys,key_resp_9.rt,key_resp_3.keys,key_resp_3.rt,key_resp_5.keys,key_resp_5.rt,key_resp.keys,key_resp.corr,key_resp.rt,key_resp_4.keys,key_resp_4.rt,trials.thisRepN,trials.thisTrialN,trials.thisN,trials.thisIndex,trials.ran,ImageFile,tarPos,tarSize,targPres,numDist,targetName,correctAns,participant,age,sex,date,expName,psychopyVersion,OS,frameRate,trials_2.thisRepN,trials_2.thisTrialN,trials_2.thisN,trials_2.thisIndex,trials_2.ran,condsFile,targName,instructionText,colTarget,sizeTarg,posit
space,3.65,space,14.347,space,7.011,space,14.105,space,2.564,space,10.685,space,8.208,a,1,1.898,space,3.169,0,0,0,122,1,0_targ_1_dist_green/trial23.png,,,0,1,greenverival,a,41,58,M,2021-03-02_08h15.18.580,exp11,2020.2.6,MacIntel,60,,,,,,,,,,,
,,,,,,,,,,,,,,p,1,1.567,space,1.027,0,1,1,88,1,15_dist_green/trial14.png,,,1,15,greenverival,p,41,58,M,2021-03-02_08h15.18.580,exp11,2020.2.6,MacIntel,60,,,,,,,,,,,
,,,,,,,,,,,,,,p,0,0.654,space,1.585,0,2,2,103,1,0_targ_1_dist_green/trial4.png,,,0,1,greenverival,a,41,58,M,2021-03-02_08h15.18.580,exp11,2020.2.6,MacIntel,60,,,,,,,,,,,
,,,,,,,,,,,,,,a,1,2.077,space,1.701,0,3,3,114,1,0_targ_1_dist_green/trial15.png,,,0,1,greenverival,a,41,58,M,2021-03-02_08h15.18.580,exp11,2020.2.6,MacIntel,60,,,,,,,,,,,
,,,,,,,,,,,,,,p,0,1.409,space,2,0,4,4,185,1,0_targ_16_dist_green/trial11.png,,,0,16,greenverival,a,41,58,M,2021-03-02_08h15.18.580,exp11,2020.2.6,MacIntel,60,,,,,,,,,,,
,,,,,,,,,,,,,,p,1,1.366,space,0.775,0,5,5,61,1,9_dist_green/trial12.png,,,1,9,greenverival,p,41,58,M,2021-03-02_08h15.18.580,exp11,2020.2.6,MacIntel,60,,,,,,,,,,,
,,,,,,,,,,,,,,a,1,1.808,space,1.07,0,6,6,182,1,0_targ_16_dist_green/trial8.png,,,0,16,greenverival,a,41,58,M,2021-03-02_08h15.18.580,exp11,2020.2.6,MacIntel,60,,,,,,,,,,,
,,,,,,,,,,,,,,a,1,1.126,space,0.868,0,7,7,140,1,0_targ_4_dist_green/trial6.png,,,0,4,greenverival,a,41,58,M,2021-03-02_08h15.18.580,exp11,2020.2.6,MacIntel,60,,,,,,,,,,,
,,,,,,,,,,,,,,p,1,0.95,space,2.016,0,8,8,20,1,0_dist_green/trial21.png,,,1,0,greenverival,p,41,58,M,2021-03-02_08h15.18.580,exp11,2020.2.6,MacIntel,60,,,,,,,,,,,
,,,,,,,,,,,,,,p,1,1.403,space,1.85,0,9,9,95,1,15_dist_green/trial21.png,,,1,15,greenverival,p,41,58,M,2021-03-02_08h15.18.580,exp11,2020.2.6,MacIntel,60,,,,,,,,,,,
,,,,,,,,,,,,,,p,1,0.829,space,0.757,0,10,10,46,1,3_dist_green/trial22.png,,,1,3,greenverival,p,41,58,M,2021-03-02_08h15.18.580,exp11,2020.2.6,MacIntel,60,,,,,,,,,,,
,,,,,,,,,,,,,,p,1,0.874,space,0.624,0,11,11,71,1,9_dist_green/trial22.png,,,1,9,greenverival,p,41,58,M,2021-03-02_08h15.18.580,exp11,2020.2.6,MacIntel,60,,,,,,,,,,,
,,,,,,,,,,,,,,p,1,0.679,space,0.604,0,12,12,44,1,3_dist_green/trial20.png,,,1,3,greenverival,p,41,58,M,2021-03-02_08h15.18.580,exp11,2020.2.6,MacIntel,60,,,,,,,,,,,
,,,,,,,,,,,,,,a,1,1.17,space,0.868,0,13,13,167,1,0_targ_10_dist_green/trial18.png,,,0,10,greenverival,a,41,58,M,2021-03-02_08h15.18.580,exp11,2020.2.6,MacIntel,60,,,,,,,,,,,
,,,,,,,,,,,,,,p,1,0.814,space,1.128,0,14,14,0,1,0_dist_green/trial1.png,,,1,0,greenverival,p,41,58,M,2021-03-02_08h15.18.580,exp11,2020.2.6,MacIntel,60,,,,,,,,,,,
,,,,,,,,,,,,,,a,1,1.071,space,1.452,0,15,15,118,1,0_targ_1_dist_green/trial19.png,,,0,1,greenverival,a,41,58,M,2021-03-02_08h15.18.580,exp11,2020.2.6,MacIntel,60,,,,,,,,,,,
,,,,,,,,,,,,,,a,1,0.988,space,0.792,0,16,16,130,1,0_targ_4_dist_green/trial6.png,,,0,4,greenverival,a,41,58,M,2021-03-02_08h15.18.580,exp11,2020.2.6,MacIntel,60,,,,,,,,,,,
,,,,,,,,,,,,,,p,1,0.694,space,1.734,0,17,17,86,1,15_dist_green/trial12.png,,,1,15,greenverival,p,41,58,M,2021-03-02_08h15.18.580,exp11,2020.2.6,MacIntel,60,,,,,,,,,,,
,,,,,,,,,,,,,,a,1,1.354,space,1.279,0,18,18,188,1,0_targ_16_dist_green/trial14.png,,,0,16,greenverival,a,41,58,M,2021-03-02_08h15.18.580,exp11,2020.2.6,MacIntel,60,,,,,,,,,,,
,,,,,,,,,,,,,,a,1,1.03,space,0.926,0,19,19,109,1,0_targ_1_dist_green/trial10.png,,,0,1,greenverival,a,41,58,M,2021-03-02_08h15.18.580,exp11,2020.2.6,MacIntel,60,,,,,,,,,,,
,,,,,,,,,,,,,,p,1,0.809,space,1.619,0,20,20,43,1,3_dist_green/trial19.png,,,1,3,greenverival,p,41,58,M,2021-03-02_08h15.18.580,exp11,2020.2.6,MacIntel,60,,,,,,,,,,,
,,,,,,,,,,,,,,a,1,1.072,space,0.756,0,21,21,195,1,0_targ_16_dist_green/trial21.png,,,0,16,greenverival,a,41,58,M,2021-03-02_08h15.18.580,exp11,2020.2.6,MacIntel,60,,,,,,,,,,,
,,,,,,,,,,,,,,p,1,0.954,space,2.492,0,22,22,10,1,0_dist_green/trial11.png,,,1,0,greenverival,p,41,58,M,2021-03-02_08h15.18.580,exp11,2020.2.6,MacIntel,60,,,,,,,,,,,
,,,,,,,,,,,,,,a,1,1.286,space,1.287,0,23,23,144,1,0_targ_4_dist_green/trial20.png,,,0,4,greenverival,a,41,58,M,2021-03-02_08h15.18.580,exp11,2020.2.6,MacIntel,60,,,,,,,,,,,
,,,,,,,,,,,,,,p,1,0.758,space,1.391,0,24,24,52,1,9_dist_green/trial3.png,,,1,9,greenverival,p,41,58,M,2021-03-02_08h15.18.580,exp11,2020.2.6,MacIntel,60,,,,,,,,,,,
,,,,,,,,,,,,,,a,1,1.048,space,0.755,0,25,25,199,1,0_targ_16_dist_green/trial25.png,,,0,16,greenverival,a,41,58,M,2021-03-02_08h15.18.580,exp11,2020.2.6,MacIntel,60,,,,,,,,,,,
,,,,,,,,,,,,,,p,1,1.463,space,0.754,0,26,26,49,1,3_dist_green/trial25.png,,,1,3,greenverival,p,41,58,M,2021-03-02_08h15.18.580,exp11,2020.2.6,MacIntel,60,,,,,,,,,,,
,,,,,,,,,,,,,,a,1,1.169,space,0.7,0,27,27,193,1,0_targ_16_dist_green/trial19.png,,,0,16,greenverival,a,41,58,M,2021-03-02_08h15.18.580,exp11,2020.2.6,MacIntel,60,,,,,,,,,,,
,,,,,,,,,,,,,,p,1,0.713,space,0.771,0,28,28,78,1,15_dist_green/trial4.png,,,1,15,greenverival,p,41,58,M,2021-03-02_08h15.18.580,exp11,2020.2.6,MacIntel,60,,,,,,,,,,,
,,,,,,,,,,,,,,a,1,0.891,space,0.756,0,29,29,101,1,0_targ_1_dist_green/trial2.png,,,0,1,greenverival,a,41,58,M,2021-03-02_08h15.18.580,exp11,2020.2.6,MacIntel,60,,,,,,,,,,,
,,,,,,,,,,,,,,p,0,0.954,space,0.662,0,30,30,150,1,0_targ_10_dist_green/trial1.png,,,0,10,greenverival,a,41,58,M,2021-03-02_08h15.18.580,exp11,2020.2.6,MacIntel,60,,,,,,,,,,,
,,,,,,,,,,,,,,a,1,0.951,space,1.758,0,31,31,104,1,0_targ_1_dist_green/trial5.png,,,0,1,greenverival,a,41,58,M,2021-03-02_08h15.18.580,exp11,2020.2.6,MacIntel,60,,,,,,,,,,,
,,,,,,,,,,,,,,p,1,0.789,space,1.037,0,32,32,62,1,9_dist_green/trial13.png,,,1,9,greenverival,p,41,58,M,2021-03-02_08h15.18.580,exp11,2020.2.6,MacIntel,60,,,,,,,,,,,
,,,,,,,,,,,,,,p,1,1.103,space,0.748,0,33,33,26,1,3_dist_green/trial2.png,,,1,3,greenverival,p,41,58,M,2021-03-02_08h15.18.580,exp11,2020.2.6,MacIntel,60,,,,,,,,,,,
,,,,,,,,,,,,,,a,1,0.888,space,0.656,0,34,34,121,1,0_targ_1_dist_green/trial22.png,,,0,1,greenverival,a,41,58,M,2021-03-02_08h15.18.580,exp11,2020.2.6,MacIntel,60,,,,,,,,,,,
,,,,,,,,,,,,,,p,1,1.371,space,1.408,0,35,35,51,1,9_dist_green/trial2.png,,,1,9,greenverival,p,41,58,M,2021-03-02_08h15.18.580,exp11,2020.2.6,MacIntel,60,,,,,,,,,,,
,,,,,,,,,,,,,,p,1,1.709,space,1.071,0,36,36,56,1,9_dist_green/trial7.png,,,1,9,greenverival,p,41,58,M,2021-03-02_08h15.18.580,exp11,2020.2.6,MacIntel,60,,,,,,,,,,,
,,,,,,,,,,,,,,p,1,0.967,space,0.915,0,37,37,94,1,15_dist_green/trial20.png,,,1,15,greenverival,p,41,58,M,2021-03-02_08h15.18.580,exp11,2020.2.6,MacIntel,60,,,,,,,,,,,
,,,,,,,,,,,,,,p,1,0.59,space,0.641,0,38,38,39,1,3_dist_green/trial15.png,,,1,3,greenverival,p,41,58,M,2021-03-02_08h15.18.580,exp11,2020.2.6,MacIntel,60,,,,,,,,,,,
,,,,,,,,,,,,,,p,1,0.656,space,0.582,0,39,39,27,1,3_dist_green/trial3.png,,,1,3,greenverival,p,41,58,M,2021-03-02_08h15.18.580,exp11,2020.2.6,MacIntel,60,,,,,,,,,,,
,,,,,,,,,,,,,,p,1,0.614,space,0.623,0,40,40,24,1,0_dist_green/trial25.png,,,1,0,greenverival,p,41,58,M,2021-03-02_08h15.18.580,exp11,2020.2.6,MacIntel,60,,,,,,,,,,,
,,,,,,,,,,,,,,a,1,1.149,space,0.731,0,41,41,177,1,0_targ_16_dist_green/trial3.png,,,0,16,greenverival,a,41,58,M,2021-03-02_08h15.18.580,exp11,2020.2.6,MacIntel,60,,,,,,,,,,,
,,,,,,,,,,,,,,a,1,0.872,space,0.605,0,42,42,153,1,0_targ_10_dist_green/trial4.png,,,0,10,greenverival,a,41,58,M,2021-03-02_08h15.18.580,exp11,2020.2.6,MacIntel,60,,,,,,,,,,,
,,,,,,,,,,,,,,a,1,0.737,space,0.586,0,43,43,128,1,0_targ_4_dist_green/trial4.png,,,0,4,greenverival,a,41,58,M,2021-03-02_08h15.18.580,exp11,2020.2.6,MacIntel,60,,,,,,,,,,,
,,,,,,,,,,,,,,a,1,1.13,space,0.713,0,44,44,116,1,0_targ_1_dist_green/trial17.png,,,0,1,greenverival,a,41,58,M,2021-03-02_08h15.18.580,exp11,2020.2.6,MacIntel,60,,,,,,,,,,,
,,,,,,,,,,,,,,a,1,0.892,space,0.658,0,45,45,111,1,0_targ_1_dist_green/trial12.png,,,0,1,greenverival,a,41,58,M,2021-03-02_08h15.18.580,exp11,2020.2.6,MacIntel,60,,,,,,,,,,,
,,,,,,,,,,,,,,p,1,0.854,space,0.812,0,46,46,76,1,15_dist_green/trial2.png,,,1,15,greenverival,p,41,58,M,2021-03-02_08h15.18.580,exp11,2020.2.6,MacIntel,60,,,,,,,,,,,
,,,,,,,,,,,,,,a,1,1.05,space,0.546,0,47,47,120,1,0_targ_1_dist_green/trial21.png,,,0,1,greenverival,a,41,58,M,2021-03-02_08h15.18.580,exp11,2020.2.6,MacIntel,60,,,,,,,,,,,
,,,,,,,,,,,,,,p,1,0.817,space,0.659,0,48,48,11,1,0_dist_green/trial12.png,,,1,0,greenverival,p,41,58,M,2021-03-02_08h15.18.580,exp11,2020.2.6,MacIntel,60,,,,,,,,,,,
,,,,,,,,,,,,,,a,1,1.133,space,1.202,0,49,49,110,1,0_targ_1_dist_green/trial11.png,,,0,1,greenverival,a,41,58,M,2021-03-02_08h15.18.580,exp11,2020.2.6,MacIntel,60,,,,,,,,,,,
,,,,,,,,,,,,,,p,1,0.811,space,1.493,0,50,50,87,1,15_dist_green/trial13.png,,,1,15,greenverival,p,41,58,M,2021-03-02_08h15.18.580,exp11,2020.2.6,MacIntel,60,,,,,,,,,,,
,,,,,,,,,,,,,,p,1,1.206,space,0.852,0,51,51,91,1,15_dist_green/trial17.png,,,1,15,greenverival,p,41,58,M,2021-03-02_08h15.18.580,exp11,2020.2.6,MacIntel,60,,,,,,,,,,,
,,,,,,,,,,,,,,p,1,1.911,space,0.735,0,52,52,36,1,3_dist_green/trial12.png,,,1,3,greenverival,p,41,58,M,2021-03-02_08h15.18.580,exp11,2020.2.6,MacIntel,60,,,,,,,,,,,
,,,,,,,,,,,,,,a,1,1.232,space,0.624,0,53,53,186,1,0_targ_16_dist_green/trial12.png,,,0,16,greenverival,a,41,58,M,2021-03-02_08h15.18.580,exp11,2020.2.6,MacIntel,60,,,,,,,,,,,
,,,,,,,,,,,,,,p,1,0.715,space,0.626,0,54,54,14,1,0_dist_green/trial15.png,,,1,0,greenverival,p,41,58,M,2021-03-02_08h15.18.580,exp11,2020.2.6,MacIntel,60,,,,,,,,,,,
,,,,,,,,,,,,,,a,1,0.847,space,0.7,0,55,55,100,1,0_targ_1_dist_green/trial1.png,,,0,1,greenverival,a,41,58,M,2021-03-02_08h15.18.580,exp11,2020.2.6,MacIntel,60,,,,,,,,,,,
,,,,,,,,,,,,,,a,1,1.151,space,0.526,0,56,56,159,1,0_targ_10_dist_green/trial10.png,,,0,10,greenverival,a,41,58,M,2021-03-02_08h15.18.580,exp11,2020.2.6,MacIntel,60,,,,,,,,,,,
,,,,,,,,,,,,,,p,1,0.927,space,0.846,0,57,57,54,1,9_dist_green/trial5.png,,,1,9,greenverival,p,41,58,M,2021-03-02_08h15.18.580,exp11,2020.2.6,MacIntel,60,,,,,,,,,,,
,,,,,,,,,,,,,,a,1,1.091,space,0.682,0,58,58,170,1,0_targ_10_dist_green/trial21.png,,,0,10,greenverival,a,41,58,M,2021-03-02_08h15.18.580,exp11,2020.2.6,MacIntel,60,,,,,,,,,,,
,,,,,,,,,,,,,,p,1,2.089,space,0.846,0,59,59,90,1,15_dist_green/trial16.png,,,1,15,greenverival,p,41,58,M,2021-03-02_08h15.18.580,exp11,2020.2.6,MacIntel,60,,,,,,,,,,,
,,,,,,,,,,,,,,p,1,2.566,space,0.675,0,60,60,98,1,15_dist_green/trial24.png,,,1,15,greenverival,p,41,58,M,2021-03-02_08h15.18.580,exp11,2020.2.6,MacIntel,60,,,,,,,,,,,
,,,,,,,,,,,,,,a,1,1.115,space,0.739,0,61,61,179,1,0_targ_16_dist_green/trial5.png,,,0,16,greenverival,a,41,58,M,2021-03-02_08h15.18.580,exp11,2020.2.6,MacIntel,60,,,,,,,,,,,
,,,,,,,,,,,,,,p,1,0.656,space,0.626,0,62,62,59,1,9_dist_green/trial10.png,,,1,9,greenverival,p,41,58,M,2021-03-02_08h15.18.580,exp11,2020.2.6,MacIntel,60,,,,,,,,,,,
,,,,,,,,,,,,,,a,1,1.031,space,0.438,0,63,63,174,1,0_targ_10_dist_green/trial25.png,,,0,10,greenverival,a,41,58,M,2021-03-02_08h15.18.580,exp11,2020.2.6,MacIntel,60,,,,,,,,,,,
,,,,,,,,,,,,,,a,1,0.859,space,0.36,0,64,64,129,1,0_targ_4_dist_green/trial5.png,,,0,4,greenverival,a,41,58,M,2021-03-02_08h15.18.580,exp11,2020.2.6,MacIntel,60,,,,,,,,,,,
,,,,,,,,,,,,,,p,1,0.639,space,0.83,0,65,65,9,1,0_dist_green/trial10.png,,,1,0,greenverival,p,41,58,M,2021-03-02_08h15.18.580,exp11,2020.2.6,MacIntel,60,,,,,,,,,,,
,,,,,,,,,,,,,,p,1,0.952,space,0.363,0,66,66,8,1,0_dist_green/trial9.png,,,1,0,greenverival,p,41,58,M,2021-03-02_08h15.18.580,exp11,2020.2.6,MacIntel,60,,,,,,,,,,,
,,,,,,,,,,,,,,p,1,1.117,space,0.341,0,67,67,31,1,3_dist_green/trial7.png,,,1,3,greenverival,p,41,58,M,2021-03-02_08h15.18.580,exp11,2020.2.6,MacIntel,60,,,,,,,,,,,
,,,,,,,,,,,,,,p,1,1.009,space,0.282,0,68,68,63,1,9_dist_green/trial14.png,,,1,9,greenverival,p,41,58,M,2021-03-02_08h15.18.580,exp11,2020.2.6,MacIntel,60,,,,,,,,,,,
,,,,,,,,,,,,,,a,1,1.289,space,0.492,0,69,69,161,1,0_targ_10_dist_green/trial12.png,,,0,10,greenverival,a,41,58,M,2021-03-02_08h15.18.580,exp11,2020.2.6,MacIntel,60,,,,,,,,,,,
,,,,,,,,,,,,,,p,1,1.051,space,0.398,0,70,70,65,1,9_dist_green/trial16.png,,,1,9,greenverival,p,41,58,M,2021-03-02_08h15.18.580,exp11,2020.2.6,MacIntel,60,,,,,,,,,,,
,,,,,,,,,,,,,,a,1,0.835,space,0.372,0,71,71,142,1,0_targ_4_dist_green/trial18.png,,,0,4,greenverival,a,41,58,M,2021-03-02_08h15.18.580,exp11,2020.2.6,MacIntel,60,,,,,,,,,,,
,,,,,,,,,,,,,,p,1,0.69,space,0.593,0,72,72,3,1,0_dist_green/trial4.png,,,1,0,greenverival,p,41,58,M,2021-03-02_08h15.18.580,exp11,2020.2.6,MacIntel,60,,,,,,,,,,,
,,,,,,,,,,,,,,a,1,2.081,space,0.364,0,73,73,125,1,0_targ_4_dist_green/trial1.png,,,0,4,greenverival,a,41,58,M,2021-03-02_08h15.18.580,exp11,2020.2.6,MacIntel,60,,,,,,,,,,,
,,,,,,,,,,,,,,p,1,0.872,space,1.732,0,74,74,73,1,9_dist_green/trial24.png,,,1,9,greenverival,p,41,58,M,2021-03-02_08h15.18.580,exp11,2020.2.6,MacIntel,60,,,,,,,,,,,
,,,,,,,,,,,,,,a,1,0.876,space,0.36,0,75,75,127,1,0_targ_4_dist_green/trial3.png,,,0,4,greenverival,a,41,58,M,2021-03-02_08h15.18.580,exp11,2020.2.6,MacIntel,60,,,,,,,,,,,
,,,,,,,,,,,,,,a,1,0.596,space,0.379,0,76,76,138,1,0_targ_4_dist_green/trial14.png,,,0,4,greenverival,a,41,58,M,2021-03-02_08h15.18.580,exp11,2020.2.6,MacIntel,60,,,,,,,,,,,
,,,,,,,,,,,,,,a,1,0.696,space,0.435,0,77,77,163,1,0_targ_10_dist_green/trial14.png,,,0,10,greenverival,a,41,58,M,2021-03-02_08h15.18.580,exp11,2020.2.6,MacIntel,60,,,,,,,,,,,
,,,,,,,,,,,,,,p,1,0.539,space,0.661,0,78,78,23,1,0_dist_green/trial24.png,,,1,0,greenverival,p,41,58,M,2021-03-02_08h15.18.580,exp11,2020.2.6,MacIntel,60,,,,,,,,,,,
,,,,,,,,,,,,,,p,1,0.918,space,0.363,0,79,79,7,1,0_dist_green/trial8.png,,,1,0,greenverival,p,41,58,M,2021-03-02_08h15.18.580,exp11,2020.2.6,MacIntel,60,,,,,,,,,,,
,,,,,,,,,,,,,,p,1,0.833,space,0.377,0,80,80,66,1,9_dist_green/trial17.png,,,1,9,greenverival,p,41,58,M,2021-03-02_08h15.18.580,exp11,2020.2.6,MacIntel,60,,,,,,,,,,,
,,,,,,,,,,,,,,p,1,0.616,space,0.342,0,81,81,40,1,3_dist_green/trial16.png,,,1,3,greenverival,p,41,58,M,2021-03-02_08h15.18.580,exp11,2020.2.6,MacIntel,60,,,,,,,,,,,
,,,,,,,,,,,,,,p,1,0.637,space,0.377,0,82,82,92,1,15_dist_green/trial18.png,,,1,15,greenverival,p,41,58,M,2021-03-02_08h15.18.580,exp11,2020.2.6,MacIntel,60,,,,,,,,,,,
,,,,,,,,,,,,,,a,1,0.733,space,0.397,0,83,83,146,1,0_targ_4_dist_green/trial22.png,,,0,4,greenverival,a,41,58,M,2021-03-02_08h15.18.580,exp11,2020.2.6,MacIntel,60,,,,,,,,,,,
,,,,,,,,,,,,,,a,1,1.331,space,0.323,0,84,84,141,1,0_targ_4_dist_green/trial17.png,,,0,4,greenverival,a,41,58,M,2021-03-02_08h15.18.580,exp11,2020.2.6,MacIntel,60,,,,,,,,,,,
,,,,,,,,,,,,,,p,0,0.835,space,0.057,0,85,85,112,1,0_targ_1_dist_green/trial13.png,,,0,1,greenverival,a,41,58,M,2021-03-02_08h15.18.580,exp11,2020.2.6,MacIntel,60,,,,,,,,,,,
,,,,,,,,,,,,,,a,1,1.19,space,1.076,0,86,86,162,1,0_targ_10_dist_green/trial13.png,,,0,10,greenverival,a,41,58,M,2021-03-02_08h15.18.580,exp11,2020.2.6,MacIntel,60,,,,,,,,,,,
,,,,,,,,,,,,,,p,1,1.467,space,0.657,0,87,87,80,1,15_dist_green/trial6.png,,,1,15,greenverival,p,41,58,M,2021-03-02_08h15.18.580,exp11,2020.2.6,MacIntel,60,,,,,,,,,,,
,,,,,,,,,,,,,,a,1,1.092,space,0.358,0,88,88,119,1,0_targ_1_dist_green/trial20.png,,,0,1,greenverival,a,41,58,M,2021-03-02_08h15.18.580,exp11,2020.2.6,MacIntel,60,,,,,,,,,,,
,,,,,,,,,,,,,,a,1,0.717,space,0.341,0,89,89,143,1,0_targ_4_dist_green/trial19.png,,,0,4,greenverival,a,41,58,M,2021-03-02_08h15.18.580,exp11,2020.2.6,MacIntel,60,,,,,,,,,,,
,,,,,,,,,,,,,,p,1,0.775,space,0.774,0,90,90,28,1,3_dist_green/trial4.png,,,1,3,greenverival,p,41,58,M,2021-03-02_08h15.18.580,exp11,2020.2.6,MacIntel,60,,,,,,,,,,,
,,,,,,,,,,,,,,p,1,0.797,space,0.361,0,91,91,50,1,9_dist_green/trial1.png,,,1,9,greenverival,p,41,58,M,2021-03-02_08h15.18.580,exp11,2020.2.6,MacIntel,60,,,,,,,,,,,
,,,,,,,,,,,,,,a,1,1.108,space,0.449,0,92,92,166,1,0_targ_10_dist_green/trial17.png,,,0,10,greenverival,a,41,58,M,2021-03-02_08h15.18.580,exp11,2020.2.6,MacIntel,60,,,,,,,,,,,
,,,,,,,,,,,,,,p,1,0.701,space,0.338,0,93,93,58,1,9_dist_green/trial9.png,,,1,9,greenverival,p,41,58,M,2021-03-02_08h15.18.580,exp11,2020.2.6,MacIntel,60,,,,,,,,,,,
,,,,,,,,,,,,,,a,1,0.756,space,0.415,0,94,94,137,1,0_targ_4_dist_green/trial13.png,,,0,4,greenverival,a,41,58,M,2021-03-02_08h15.18.580,exp11,2020.2.6,MacIntel,60,,,,,,,,,,,
,,,,,,,,,,,,,,p,1,0.757,space,0.306,0,95,95,37,1,3_dist_green/trial13.png,,,1,3,greenverival,p,41,58,M,2021-03-02_08h15.18.580,exp11,2020.2.6,MacIntel,60,,,,,,,,,,,
,,,,,,,,,,,,,,p,1,0.996,space,0.379,0,96,96,72,1,9_dist_green/trial23.png,,,1,9,greenverival,p,41,58,M,2021-03-02_08h15.18.580,exp11,2020.2.6,MacIntel,60,,,,,,,,,,,
,,,,,,,,,,,,,,p,1,0.91,space,0.245,0,97,97,38,1,3_dist_green/trial14.png,,,1,3,greenverival,p,41,58,M,2021-03-02_08h15.18.580,exp11,2020.2.6,MacIntel,60,,,,,,,,,,,
,,,,,,,,,,,,,,p,1,0.972,space,0.361,0,98,98,96,1,15_dist_green/trial22.png,,,1,15,greenverival,p,41,58,M,2021-03-02_08h15.18.580,exp11,2020.2.6,MacIntel,60,,,,,,,,,,,
,,,,,,,,,,,,,,p,1,1.865,space,0.339,0,99,99,4,1,0_dist_green/trial5.png,,,1,0,greenverival,p,41,58,M,2021-03-02_08h15.18.580,exp11,2020.2.6,MacIntel,60,,,,,,,,,,,
,,,,,,,,,,,,,,p,1,1.112,space,0.396,0,100,100,67,1,9_dist_green/trial18.png,,,1,9,greenverival,p,41,58,M,2021-03-02_08h15.18.580,exp11,2020.2.6,MacIntel,60,,,,,,,,,,,
,,,,,,,,,,,,,,a,1,1.069,space,6.202,0,101,101,147,1,0_targ_4_dist_green/trial23.png,,,0,4,greenverival,a,41,58,M,2021-03-02_08h15.18.580,exp11,2020.2.6,MacIntel,60,,,,,,,,,,,
,,,,,,,,,,,,,,a,1,1.271,space,0.737,0,102,102,184,1,0_targ_16_dist_green/trial10.png,,,0,16,greenverival,a,41,58,M,2021-03-02_08h15.18.580,exp11,2020.2.6,MacIntel,60,,,,,,,,,,,
,,,,,,,,,,,,,,a,1,0.94,space,0.431,0,103,103,151,1,0_targ_10_dist_green/trial2.png,,,0,10,greenverival,a,41,58,M,2021-03-02_08h15.18.580,exp11,2020.2.6,MacIntel,60,,,,,,,,,,,
,,,,,,,,,,,,,,a,1,0.776,space,0.322,0,104,104,149,1,0_targ_4_dist_green/trial25.png,,,0,4,greenverival,a,41,58,M,2021-03-02_08h15.18.580,exp11,2020.2.6,MacIntel,60,,,,,,,,,,,
,,,,,,,,,,,,,,a,1,0.797,space,0.527,0,105,105,123,1,0_targ_1_dist_green/trial24.png,,,0,1,greenverival,a,41,58,M,2021-03-02_08h15.18.580,exp11,2020.2.6,MacIntel,60,,,,,,,,,,,
,,,,,,,,,,,,,,p,1,0.995,space,0.435,0,106,106,70,1,9_dist_green/trial21.png,,,1,9,greenverival,p,41,58,M,2021-03-02_08h15.18.580,exp11,2020.2.6,MacIntel,60,,,,,,,,,,,
,,,,,,,,,,,,,,p,1,0.894,space,0.757,0,107,107,57,1,9_dist_green/trial8.png,,,1,9,greenverival,p,41,58,M,2021-03-02_08h15.18.580,exp11,2020.2.6,MacIntel,60,,,,,,,,,,,
,,,,,,,,,,,,,,p,1,1.173,space,0.455,0,108,108,21,1,0_dist_green/trial22.png,,,1,0,greenverival,p,41,58,M,2021-03-02_08h15.18.580,exp11,2020.2.6,MacIntel,60,,,,,,,,,,,
,,,,,,,,,,,,,,a,1,1.259,space,0.755,0,109,109,198,1,0_targ_16_dist_green/trial24.png,,,0,16,greenverival,a,41,58,M,2021-03-02_08h15.18.580,exp11,2020.2.6,MacIntel,60,,,,,,,,,,,
,,,,,,,,,,,,,,a,1,0.913,space,0.793,0,110,110,181,1,0_targ_16_dist_green/trial7.png,,,0,16,greenverival,a,41,58,M,2021-03-02_08h15.18.580,exp11,2020.2.6,MacIntel,60,,,,,,,,,,,
,,,,,,,,,,,,,,a,1,0.758,space,0.342,0,111,111,131,1,0_targ_4_dist_green/trial7.png,,,0,4,greenverival,a,41,58,M,2021-03-02_08h15.18.580,exp11,2020.2.6,MacIntel,60,,,,,,,,,,,
,,,,,,,,,,,,,,a,1,0.631,space,0.282,0,112,112,106,1,0_targ_1_dist_green/trial7.png,,,0,1,greenverival,a,41,58,M,2021-03-02_08h15.18.580,exp11,2020.2.6,MacIntel,60,,,,,,,,,,,
,,,,,,,,,,,,,,p,1,1.267,space,0.34,0,113,113,97,1,15_dist_green/trial23.png,,,1,15,greenverival,p,41,58,M,2021-03-02_08h15.18.580,exp11,2020.2.6,MacIntel,60,,,,,,,,,,,
,,,,,,,,,,,,,,p,1,0.876,space,0.304,0,114,114,30,1,3_dist_green/trial6.png,,,1,3,greenverival,p,41,58,M,2021-03-02_08h15.18.580,exp11,2020.2.6,MacIntel,60,,,,,,,,,,,
,,,,,,,,,,,,,,p,1,0.735,space,0.341,0,115,115,5,1,0_dist_green/trial6.png,,,1,0,greenverival,p,41,58,M,2021-03-02_08h15.18.580,exp11,2020.2.6,MacIntel,60,,,,,,,,,,,
,,,,,,,,,,,,,,p,1,0.957,space,0.339,0,116,116,64,1,9_dist_green/trial15.png,,,1,9,greenverival,p,41,58,M,2021-03-02_08h15.18.580,exp11,2020.2.6,MacIntel,60,,,,,,,,,,,
,,,,,,,,,,,,,,a,1,1.116,space,0.397,0,117,117,165,1,0_targ_10_dist_green/trial16.png,,,0,10,greenverival,a,41,58,M,2021-03-02_08h15.18.580,exp11,2020.2.6,MacIntel,60,,,,,,,,,,,
,,,,,,,,,,,,,,a,1,0.76,space,0.396,0,118,118,134,1,0_targ_4_dist_green/trial10.png,,,0,4,greenverival,a,41,58,M,2021-03-02_08h15.18.580,exp11,2020.2.6,MacIntel,60,,,,,,,,,,,
,,,,,,,,,,,,,,a,1,0.976,space,0.341,0,119,119,135,1,0_targ_4_dist_green/trial11.png,,,0,4,greenverival,a,41,58,M,2021-03-02_08h15.18.580,exp11,2020.2.6,MacIntel,60,,,,,,,,,,,
,,,,,,,,,,,,,,a,1,0.751,space,0.338,0,120,120,132,1,0_targ_4_dist_green/trial8.png,,,0,4,greenverival,a,41,58,M,2021-03-02_08h15.18.580,exp11,2020.2.6,MacIntel,60,,,,,,,,,,,
,,,,,,,,,,,,,,a,1,1.177,space,0.322,0,121,121,197,1,0_targ_16_dist_green/trial23.png,,,0,16,greenverival,a,41,58,M,2021-03-02_08h15.18.580,exp11,2020.2.6,MacIntel,60,,,,,,,,,,,
,,,,,,,,,,,,,,p,1,1.308,space,0.397,0,122,122,41,1,3_dist_green/trial17.png,,,1,3,greenverival,p,41,58,M,2021-03-02_08h15.18.580,exp11,2020.2.6,MacIntel,60,,,,,,,,,,,
,,,,,,,,,,,,,,p,1,0.836,space,0.304,0,123,123,25,1,3_dist_green/trial1.png,,,1,3,greenverival,p,41,58,M,2021-03-02_08h15.18.580,exp11,2020.2.6,MacIntel,60,,,,,,,,,,,
,,,,,,,,,,,,,,p,1,0.639,space,0.245,0,124,124,99,1,15_dist_green/trial25.png,,,1,15,greenverival,p,41,58,M,2021-03-02_08h15.18.580,exp11,2020.2.6,MacIntel,60,,,,,,,,,,,
,,,,,,,,,,,,,,p,1,0.58,space,0.303,0,125,125,33,1,3_dist_green/trial9.png,,,1,3,greenverival,p,41,58,M,2021-03-02_08h15.18.580,exp11,2020.2.6,MacIntel,60,,,,,,,,,,,
,,,,,,,,,,,,,,p,1,0.575,space,0.302,0,126,126,29,1,3_dist_green/trial5.png,,,1,3,greenverival,p,41,58,M,2021-03-02_08h15.18.580,exp11,2020.2.6,MacIntel,60,,,,,,,,,,,
,,,,,,,,,,,,,,p,1,0.638,space,0.23,0,127,127,55,1,9_dist_green/trial6.png,,,1,9,greenverival,p,41,58,M,2021-03-02_08h15.18.580,exp11,2020.2.6,MacIntel,60,,,,,,,,,,,
,,,,,,,,,,,,,,p,1,0.683,space,0.284,0,128,128,32,1,3_dist_green/trial8.png,,,1,3,greenverival,p,41,58,M,2021-03-02_08h15.18.580,exp11,2020.2.6,MacIntel,60,,,,,,,,,,,
,,,,,,,,,,,,,,p,1,0.776,space,0.268,0,129,129,45,1,3_dist_green/trial21.png,,,1,3,greenverival,p,41,58,M,2021-03-02_08h15.18.580,exp11,2020.2.6,MacIntel,60,,,,,,,,,,,
,,,,,,,,,,,,,,a,1,0.954,space,0.339,0,130,130,139,1,0_targ_4_dist_green/trial15.png,,,0,4,greenverival,a,41,58,M,2021-03-02_08h15.18.580,exp11,2020.2.6,MacIntel,60,,,,,,,,,,,
,,,,,,,,,,,,,,a,1,0.756,space,0.34,0,131,131,172,1,0_targ_10_dist_green/trial23.png,,,0,10,greenverival,a,41,58,M,2021-03-02_08h15.18.580,exp11,2020.2.6,MacIntel,60,,,,,,,,,,,
,,,,,,,,,,,,,,a,1,0.762,space,0.284,0,132,132,154,1,0_targ_10_dist_green/trial5.png,,,0,10,greenverival,a,41,58,M,2021-03-02_08h15.18.580,exp11,2020.2.6,MacIntel,60,,,,,,,,,,,
,,,,,,,,,,,,,,p,1,0.897,space,0.303,0,133,133,69,1,9_dist_green/trial20.png,,,1,9,greenverival,p,41,58,M,2021-03-02_08h15.18.580,exp11,2020.2.6,MacIntel,60,,,,,,,,,,,
,,,,,,,,,,,,,,p,1,0.752,space,0.302,0,134,134,12,1,0_dist_green/trial13.png,,,1,0,greenverival,p,41,58,M,2021-03-02_08h15.18.580,exp11,2020.2.6,MacIntel,60,,,,,,,,,,,
,,,,,,,,,,,,,,a,1,0.832,space,0.342,0,135,135,148,1,0_targ_4_dist_green/trial24.png,,,0,4,greenverival,a,41,58,M,2021-03-02_08h15.18.580,exp11,2020.2.6,MacIntel,60,,,,,,,,,,,
,,,,,,,,,,,,,,a,1,3.098,space,0.434,0,136,136,108,1,0_targ_1_dist_green/trial9.png,,,0,1,greenverival,a,41,58,M,2021-03-02_08h15.18.580,exp11,2020.2.6,MacIntel,60,,,,,,,,,,,
,,,,,,,,,,,,,,a,1,0.752,space,0.303,0,137,137,115,1,0_targ_1_dist_green/trial6.png,,,0,1,greenverival,a,41,58,M,2021-03-02_08h15.18.580,exp11,2020.2.6,MacIntel,60,,,,,,,,,,,
,,,,,,,,,,,,,,a,1,0.596,space,0.322,0,138,138,126,1,0_targ_4_dist_green/trial2.png,,,0,4,greenverival,a,41,58,M,2021-03-02_08h15.18.580,exp11,2020.2.6,MacIntel,60,,,,,,,,,,,
,,,,,,,,,,,,,,a,1,0.74,space,0.323,0,139,139,105,1,0_targ_1_dist_green/trial6.png,,,0,1,greenverival,a,41,58,M,2021-03-02_08h15.18.580,exp11,2020.2.6,MacIntel,60,,,,,,,,,,,
,,,,,,,,,,,,,,p,1,0.694,space,0.283,0,140,140,18,1,0_dist_green/trial19.png,,,1,0,greenverival,p,41,58,M,2021-03-02_08h15.18.580,exp11,2020.2.6,MacIntel,60,,,,,,,,,,,
,,,,,,,,,,,,,,p,1,0.955,space,0.342,0,141,141,83,1,15_dist_green/trial9.png,,,1,15,greenverival,p,41,58,M,2021-03-02_08h15.18.580,exp11,2020.2.6,MacIntel,60,,,,,,,,,,,
,,,,,,,,,,,,,,p,1,1.13,space,0.266,0,142,142,2,1,0_dist_green/trial3.png,,,1,0,greenverival,p,41,58,M,2021-03-02_08h15.18.580,exp11,2020.2.6,MacIntel,60,,,,,,,,,,,
,,,,,,,,,,,,,,a,1,0.933,space,0.303,0,143,143,160,1,0_targ_10_dist_green/trial11.png,,,0,10,greenverival,a,41,58,M,2021-03-02_08h15.18.580,exp11,2020.2.6,MacIntel,60,,,,,,,,,,,
,,,,,,,,,,,,,,a,1,1.246,space,0.285,0,144,144,194,1,0_targ_16_dist_green/trial20.png,,,0,16,greenverival,a,41,58,M,2021-03-02_08h15.18.580,exp11,2020.2.6,MacIntel,60,,,,,,,,,,,
,,,,,,,,,,,,,,p,1,0.659,space,0.263,0,145,145,19,1,0_dist_green/trial20.png,,,1,0,greenverival,p,41,58,M,2021-03-02_08h15.18.580,exp11,2020.2.6,MacIntel,60,,,,,,,,,,,
,,,,,,,,,,,,,,p,1,1.279,space,0.718,0,146,146,79,1,15_dist_green/trial5.png,,,1,15,greenverival,p,41,58,M,2021-03-02_08h15.18.580,exp11,2020.2.6,MacIntel,60,,,,,,,,,,,
,,,,,,,,,,,,,,a,1,0.969,space,0.695,0,147,147,117,1,0_targ_1_dist_green/trial18.png,,,0,1,greenverival,a,41,58,M,2021-03-02_08h15.18.580,exp11,2020.2.6,MacIntel,60,,,,,,,,,,,
,,,,,,,,,,,,,,a,1,1.29,space,0.302,0,148,148,189,1,0_targ_16_dist_green/trial15.png,,,0,16,greenverival,a,41,58,M,2021-03-02_08h15.18.580,exp11,2020.2.6,MacIntel,60,,,,,,,,,,,
,,,,,,,,,,,,,,a,1,0.735,space,0.287,0,149,149,156,1,0_targ_10_dist_green/trial7.png,,,0,10,greenverival,a,41,58,M,2021-03-02_08h15.18.580,exp11,2020.2.6,MacIntel,60,,,,,,,,,,,
,,,,,,,,,,,,,,p,1,0.976,space,0.677,0,150,150,74,1,9_dist_green/trial25.png,,,1,9,greenverival,p,41,58,M,2021-03-02_08h15.18.580,exp11,2020.2.6,MacIntel,60,,,,,,,,,,,
,,,,,,,,,,,,,,a,0,1.604,space,0.432,0,151,151,82,1,15_dist_green/trial8.png,,,1,15,greenverival,p,41,58,M,2021-03-02_08h15.18.580,exp11,2020.2.6,MacIntel,60,,,,,,,,,,,
,,,,,,,,,,,,,,a,1,1.115,space,0.321,0,152,152,190,1,0_targ_16_dist_green/trial16.png,,,0,16,greenverival,a,41,58,M,2021-03-02_08h15.18.580,exp11,2020.2.6,MacIntel,60,,,,,,,,,,,
,,,,,,,,,,,,,,p,1,0.994,space,0.305,0,153,153,22,1,0_dist_green/trial23.png,,,1,0,greenverival,p,41,58,M,2021-03-02_08h15.18.580,exp11,2020.2.6,MacIntel,60,,,,,,,,,,,
,,,,,,,,,,,,,,a,1,1.169,space,0.321,0,154,154,171,1,0_targ_10_dist_green/trial22.png,,,0,10,greenverival,a,41,58,M,2021-03-02_08h15.18.580,exp11,2020.2.6,MacIntel,60,,,,,,,,,,,
,,,,,,,,,,,,,,p,1,0.938,space,0.38,0,155,155,35,1,3_dist_green/trial11.png,,,1,3,greenverival,p,41,58,M,2021-03-02_08h15.18.580,exp11,2020.2.6,MacIntel,60,,,,,,,,,,,
,,,,,,,,,,,,,,a,1,0.852,space,0.32,0,156,156,145,1,0_targ_4_dist_green/trial21.png,,,0,4,greenverival,a,41,58,M,2021-03-02_08h15.18.580,exp11,2020.2.6,MacIntel,60,,,,,,,,,,,
,,,,,,,,,,,,,,a,0,0.836,space,0.753,0,157,157,85,1,15_dist_green/trial11.png,,,1,15,greenverival,p,41,58,M,2021-03-02_08h15.18.580,exp11,2020.2.6,MacIntel,60,,,,,,,,,,,
,,,,,,,,,,,,,,a,1,0.939,space,0.379,0,158,158,133,1,0_targ_4_dist_green/trial9.png,,,0,4,greenverival,a,41,58,M,2021-03-02_08h15.18.580,exp11,2020.2.6,MacIntel,60,,,,,,,,,,,
,,,,,,,,,,,,,,a,1,1.649,space,0.418,0,159,159,113,1,0_targ_1_dist_green/trial14.png,,,0,1,greenverival,a,41,58,M,2021-03-02_08h15.18.580,exp11,2020.2.6,MacIntel,60,,,,,,,,,,,
,,,,,,,,,,,,,,a,1,1.179,space,0.374,0,160,160,196,1,0_targ_16_dist_green/trial22.png,,,0,16,greenverival,a,41,58,M,2021-03-02_08h15.18.580,exp11,2020.2.6,MacIntel,60,,,,,,,,,,,
,,,,,,,,,,,,,,p,1,0.636,space,0.401,0,161,161,68,1,9_dist_green/trial19.png,,,1,9,greenverival,p,41,58,M,2021-03-02_08h15.18.580,exp11,2020.2.6,MacIntel,60,,,,,,,,,,,
,,,,,,,,,,,,,,p,1,0.481,space,0.321,0,162,162,16,1,0_dist_green/trial17.png,,,1,0,greenverival,p,41,58,M,2021-03-02_08h15.18.580,exp11,2020.2.6,MacIntel,60,,,,,,,,,,,
,,,,,,,,,,,,,,p,1,0.521,space,0.323,0,163,163,47,1,3_dist_green/trial23.png,,,1,3,greenverival,p,41,58,M,2021-03-02_08h15.18.580,exp11,2020.2.6,MacIntel,60,,,,,,,,,,,
,,,,,,,,,,,,,,a,1,0.921,space,0.398,0,164,164,169,1,0_targ_10_dist_green/trial20.png,,,0,10,greenverival,a,41,58,M,2021-03-02_08h15.18.580,exp11,2020.2.6,MacIntel,60,,,,,,,,,,,
,,,,,,,,,,,,,,p,1,0.761,space,0.358,0,165,165,15,1,0_dist_green/trial16.png,,,1,0,greenverival,p,41,58,M,2021-03-02_08h15.18.580,exp11,2020.2.6,MacIntel,60,,,,,,,,,,,
,,,,,,,,,,,,,,a,1,1.138,space,0.305,0,166,166,152,1,0_targ_10_dist_green/trial3.png,,,0,10,greenverival,a,41,58,M,2021-03-02_08h15.18.580,exp11,2020.2.6,MacIntel,60,,,,,,,,,,,
,,,,,,,,,,,,,,p,1,0.938,space,0.358,0,167,167,81,1,15_dist_green/trial7.png,,,1,15,greenverival,p,41,58,M,2021-03-02_08h15.18.580,exp11,2020.2.6,MacIntel,60,,,,,,,,,,,
,,,,,,,,,,,,,,a,1,1.278,space,0.379,0,168,168,187,1,0_targ_16_dist_green/trial13.png,,,0,16,greenverival,a,41,58,M,2021-03-02_08h15.18.580,exp11,2020.2.6,MacIntel,60,,,,,,,,,,,
,,,,,,,,,,,,,,a,1,0.838,space,0.605,0,169,169,102,1,0_targ_1_dist_green/trial3.png,,,0,1,greenverival,a,41,58,M,2021-03-02_08h15.18.580,exp11,2020.2.6,MacIntel,60,,,,,,,,,,,
,,,,,,,,,,,,,,p,1,0.875,space,0.359,0,170,170,89,1,15_dist_green/trial15.png,,,1,15,greenverival,p,41,58,M,2021-03-02_08h15.18.580,exp11,2020.2.6,MacIntel,60,,,,,,,,,,,
,,,,,,,,,,,,,,p,1,0.816,space,0.42,0,171,171,60,1,9_dist_green/trial11.png,,,1,9,greenverival,p,41,58,M,2021-03-02_08h15.18.580,exp11,2020.2.6,MacIntel,60,,,,,,,,,,,
,,,,,,,,,,,,,,p,1,0.899,space,0.396,0,172,172,17,1,0_dist_green/trial18.png,,,1,0,greenverival,p,41,58,M,2021-03-02_08h15.18.580,exp11,2020.2.6,MacIntel,60,,,,,,,,,,,
,,,,,,,,,,,,,,a,1,0.881,space,0.344,0,173,173,107,1,0_targ_1_dist_green/trial8.png,,,0,1,greenverival,a,41,58,M,2021-03-02_08h15.18.580,exp11,2020.2.6,MacIntel,60,,,,,,,,,,,
,,,,,,,,,,,,,,a,1,0.823,space,0.324,0,174,174,158,1,0_targ_10_dist_green/trial9.png,,,0,10,greenverival,a,41,58,M,2021-03-02_08h15.18.580,exp11,2020.2.6,MacIntel,60,,,,,,,,,,,
,,,,,,,,,,,,,,a,1,1.076,space,0.282,0,175,175,180,1,0_targ_16_dist_green/trial6.png,,,0,16,greenverival,a,41,58,M,2021-03-02_08h15.18.580,exp11,2020.2.6,MacIntel,60,,,,,,,,,,,
,,,,,,,,,,,,,,p,1,1.056,space,0.359,0,176,176,53,1,9_dist_green/trial4.png,,,1,9,greenverival,p,41,58,M,2021-03-02_08h15.18.580,exp11,2020.2.6,MacIntel,60,,,,,,,,,,,
,,,,,,,,,,,,,,a,0,0.701,space,2.178,0,177,177,34,1,3_dist_green/trial10.png,,,1,3,greenverival,p,41,58,M,2021-03-02_08h15.18.580,exp11,2020.2.6,MacIntel,60,,,,,,,,,,,
,,,,,,,,,,,,,,a,1,1.06,space,0.379,0,178,178,175,1,0_targ_16_dist_green/trial1.png,,,0,16,greenverival,a,41,58,M,2021-03-02_08h15.18.580,exp11,2020.2.6,MacIntel,60,,,,,,,,,,,
,,,,,,,,,,,,,,a,1,0.921,space,0.512,0,179,179,183,1,0_targ_16_dist_green/trial9.png,,,0,16,greenverival,a,41,58,M,2021-03-02_08h15.18.580,exp11,2020.2.6,MacIntel,60,,,,,,,,,,,
,,,,,,,,,,,,,,p,1,0.615,space,0.4,0,180,180,42,1,3_dist_green/trial18.png,,,1,3,greenverival,p,41,58,M,2021-03-02_08h15.18.580,exp11,2020.2.6,MacIntel,60,,,,,,,,,,,
,,,,,,,,,,,,,,a,1,0.734,space,0.36,0,181,181,124,1,0_targ_1_dist_green/trial25.png,,,0,1,greenverival,a,41,58,M,2021-03-02_08h15.18.580,exp11,2020.2.6,MacIntel,60,,,,,,,,,,,
,,,,,,,,,,,,,,p,1,0.658,space,0.359,0,182,182,1,1,0_dist_green/trial2.png,,,1,0,greenverival,p,41,58,M,2021-03-02_08h15.18.580,exp11,2020.2.6,MacIntel,60,,,,,,,,,,,
,,,,,,,,,,,,,,p,1,1.386,space,0.396,0,183,183,13,1,0_dist_green/trial14.png,,,1,0,greenverival,p,41,58,M,2021-03-02_08h15.18.580,exp11,2020.2.6,MacIntel,60,,,,,,,,,,,
,,,,,,,,,,,,,,p,1,0.741,space,0.342,0,184,184,6,1,0_dist_green/trial7.png,,,1,0,greenverival,p,41,58,M,2021-03-02_08h15.18.580,exp11,2020.2.6,MacIntel,60,,,,,,,,,,,
,,,,,,,,,,,,,,p,1,0.6,space,0.29,0,185,185,84,1,15_dist_green/trial10.png,,,1,15,greenverival,p,41,58,M,2021-03-02_08h15.18.580,exp11,2020.2.6,MacIntel,60,,,,,,,,,,,
,,,,,,,,,,,,,,a,1,0.863,space,0.613,0,186,186,176,1,0_targ_16_dist_green/trial2.png,,,0,16,greenverival,a,41,58,M,2021-03-02_08h15.18.580,exp11,2020.2.6,MacIntel,60,,,,,,,,,,,
,,,,,,,,,,,,,,a,1,1.16,space,0.551,0,187,187,191,1,0_targ_16_dist_green/trial17.png,,,0,16,greenverival,a,41,58,M,2021-03-02_08h15.18.580,exp11,2020.2.6,MacIntel,60,,,,,,,,,,,
,,,,,,,,,,,,,,p,1,1.122,space,0.4,0,188,188,93,1,15_dist_green/trial19.png,,,1,15,greenverival,p,41,58,M,2021-03-02_08h15.18.580,exp11,2020.2.6,MacIntel,60,,,,,,,,,,,
,,,,,,,,,,,,,,a,1,1.303,space,0.551,0,189,189,192,1,0_targ_16_dist_green/trial18.png,,,0,16,greenverival,a,41,58,M,2021-03-02_08h15.18.580,exp11,2020.2.6,MacIntel,60,,,,,,,,,,,
,,,,,,,,,,,,,,p,1,0.863,space,0.461,0,190,190,75,1,15_dist_green/trial1.png,,,1,15,greenverival,p,41,58,M,2021-03-02_08h15.18.580,exp11,2020.2.6,MacIntel,60,,,,,,,,,,,
,,,,,,,,,,,,,,a,1,1.962,space,0.592,0,191,191,168,1,0_targ_10_dist_green/trial19.png,,,0,10,greenverival,a,41,58,M,2021-03-02_08h15.18.580,exp11,2020.2.6,MacIntel,60,,,,,,,,,,,
,,,,,,,,,,,,,,a,1,2.48,space,0.873,0,192,192,173,1,0_targ_10_dist_green/trial24.png,,,0,10,greenverival,a,41,58,M,2021-03-02_08h15.18.580,exp11,2020.2.6,MacIntel,60,,,,,,,,,,,
,,,,,,,,,,,,,,p,1,0.723,space,0.402,0,193,193,48,1,3_dist_green/trial24.png,,,1,3,greenverival,p,41,58,M,2021-03-02_08h15.18.580,exp11,2020.2.6,MacIntel,60,,,,,,,,,,,
,,,,,,,,,,,,,,p,1,0.902,space,0.303,0,194,194,77,1,15_dist_green/trial3.png,,,1,15,greenverival,p,41,58,M,2021-03-02_08h15.18.580,exp11,2020.2.6,MacIntel,60,,,,,,,,,,,
,,,,,,,,,,,,,,a,1,1.101,space,0.478,0,195,195,155,1,0_targ_10_dist_green/trial6.png,,,0,10,greenverival,a,41,58,M,2021-03-02_08h15.18.580,exp11,2020.2.6,MacIntel,60,,,,,,,,,,,
,,,,,,,,,,,,,,a,1,0.939,space,0.417,0,196,196,157,1,0_targ_10_dist_green/trial8.png,,,0,10,greenverival,a,41,58,M,2021-03-02_08h15.18.580,exp11,2020.2.6,MacIntel,60,,,,,,,,,,,
,,,,,,,,,,,,,,a,1,0.819,space,0.326,0,197,197,178,1,0_targ_16_dist_green/trial4.png,,,0,16,greenverival,a,41,58,M,2021-03-02_08h15.18.580,exp11,2020.2.6,MacIntel,60,,,,,,,,,,,
,,,,,,,,,,,,,,a,1,0.681,space,0.339,0,198,198,136,1,0_targ_4_dist_green/trial12.png,,,0,4,greenverival,a,41,58,M,2021-03-02_08h15.18.580,exp11,2020.2.6,MacIntel,60,,,,,,,,,,,
,,,,,,,,,,,,,,a,1,0.88,space,0.32,0,199,199,164,1,0_targ_10_dist_green/trial15.png,,,0,10,greenverival,a,41,58,M,2021-03-02_08h15.18.580,exp11,2020.2.6,MacIntel,60,,,,,,,,,,,
,,,,,,,,,,,,,,,,,,,,,,,,,,,,,,,41,58,M,2021-03-02_08h15.18.580,exp11,2020.2.6,MacIntel,60,0,0,0,0,1,conGreen.xlsx,green vertical,Look for green vertical bar (target) and indicate if it is present or absent in the array. If green vertical target is present press 'p' and if absent press 'a'. Press SPACE to start.,,,
,,,,,,,,,,space,14.045,space,3.705,p,0,4.184,space,0.228,0,0,0,103,1,0_targ_1_dist_red/trial4.png,,,0,1,redHorizontal,a,41,58,M,2021-03-02_08h15.18.580,exp11,2020.2.6,MacIntel,60,,,,,,,,,,,
,,,,,,,,,,,,,,a,1,3.414,space,1.558,0,1,1,172,1,0_targ_10_dist_red/trial23.png,,,0,10,redHorizontal,a,41,58,M,2021-03-02_08h15.18.580,exp11,2020.2.6,MacIntel,60,,,,,,,,,,,
,,,,,,,,,,,,,,a,1,0.795,space,0.457,0,2,2,128,1,0_targ_4_dist_red/trial4.png,,,0,4,redHorizontal,a,41,58,M,2021-03-02_08h15.18.580,exp11,2020.2.6,MacIntel,60,,,,,,,,,,,
,,,,,,,,,,,,,,a,1,1.372,space,0.511,0,3,3,122,1,0_targ_1_dist_red/trial23.png,,,0,1,redHorizontal,a,41,58,M,2021-03-02_08h15.18.580,exp11,2020.2.6,MacIntel,60,,,,,,,,,,,
,,,,,,,,,,,,,,a,0,1.408,space,0.077,0,4,4,74,1,9_dist_red/trial25.png,,,1,9,redHorizontal,p,41,58,M,2021-03-02_08h15.18.580,exp11,2020.2.6,MacIntel,60,,,,,,,,,,,
,,,,,,,,,,,,,,a,1,1.157,space,0.814,0,5,5,138,1,0_targ_4_dist_red/trial14.png,,,0,4,redHorizontal,a,41,58,M,2021-03-02_08h15.18.580,exp11,2020.2.6,MacIntel,60,,,,,,,,,,,
,,,,,,,,,,,,,,a,1,0.932,space,0.419,0,6,6,126,1,0_targ_4_dist_red/trial2.png,,,0,4,redHorizontal,a,41,58,M,2021-03-02_08h15.18.580,exp11,2020.2.6,MacIntel,60,,,,,,,,,,,
,,,,,,,,,,,,,,a,1,0.795,space,0.416,0,7,7,150,1,0_targ_10_dist_red/trial1.png,,,0,10,redHorizontal,a,41,58,M,2021-03-02_08h15.18.580,exp11,2020.2.6,MacIntel,60,,,,,,,,,,,
,,,,,,,,,,,,,,a,1,1.887,space,0.509,0,8,8,168,1,0_targ_10_dist_red/trial19.png,,,0,10,redHorizontal,a,41,58,M,2021-03-02_08h15.18.580,exp11,2020.2.6,MacIntel,60,,,,,,,,,,,
,,,,,,,,,,,,,,a,1,1.277,space,0.401,0,9,9,117,1,0_targ_1_dist_red/trial18.png,,,0,1,redHorizontal,a,41,58,M,2021-03-02_08h15.18.580,exp11,2020.2.6,MacIntel,60,,,,,,,,,,,
,,,,,,,,,,,,,,p,1,0.831,space,0.417,0,10,10,40,1,3_dist_red/trial16.png,,,1,3,redHorizontal,p,41,58,M,2021-03-02_08h15.18.580,exp11,2020.2.6,MacIntel,60,,,,,,,,,,,
,,,,,,,,,,,,,,a,1,0.976,space,0.456,0,11,11,159,1,0_targ_10_dist_red/trial10.png,,,0,10,redHorizontal,a,41,58,M,2021-03-02_08h15.18.580,exp11,2020.2.6,MacIntel,60,,,,,,,,,,,
,,,,,,,,,,,,,,p,1,0.895,space,0.376,0,12,12,63,1,9_dist_red/trial14.png,,,1,9,redHorizontal,p,41,58,M,2021-03-02_08h15.18.580,exp11,2020.2.6,MacIntel,60,,,,,,,,,,,
,,,,,,,,,,,,,,a,1,1.016,space,0.432,0,13,13,114,1,0_targ_1_dist_red/trial15.png,,,0,1,redHorizontal,a,41,58,M,2021-03-02_08h15.18.580,exp11,2020.2.6,MacIntel,60,,,,,,,,,,,
,,,,,,,,,,,,,,p,1,0.831,space,0.302,0,14,14,94,1,15_dist_red/trial20.png,,,1,15,redHorizontal,p,41,58,M,2021-03-02_08h15.18.580,exp11,2020.2.6,MacIntel,60,,,,,,,,,,,
,,,,,,,,,,,,,,a,1,1.256,space,0.341,0,15,15,107,1,0_targ_1_dist_red/trial8.png,,,0,1,redHorizontal,a,41,58,M,2021-03-02_08h15.18.580,exp11,2020.2.6,MacIntel,60,,,,,,,,,,,
,,,,,,,,,,,,,,a,1,0.897,space,0.377,0,16,16,189,1,0_targ_16_dist_red/trial15.png,,,0,16,redHorizontal,a,41,58,M,2021-03-02_08h15.18.580,exp11,2020.2.6,MacIntel,60,,,,,,,,,,,
,,,,,,,,,,,,,,a,0,0.894,space,0.511,0,17,17,25,1,3_dist_red/trial1.png,,,1,3,redHorizontal,p,41,58,M,2021-03-02_08h15.18.580,exp11,2020.2.6,MacIntel,60,,,,,,,,,,,
,,,,,,,,,,,,,,p,1,0.902,space,0.867,0,18,18,86,1,15_dist_red/trial12.png,,,1,15,redHorizontal,p,41,58,M,2021-03-02_08h15.18.580,exp11,2020.2.6,MacIntel,60,,,,,,,,,,,
,,,,,,,,,,,,,,p,1,0.88,space,0.4,0,19,19,18,1,0_dist_red/trial19.png,,,1,0,redHorizontal,p,41,58,M,2021-03-02_08h15.18.580,exp11,2020.2.6,MacIntel,60,,,,,,,,,,,
,,,,,,,,,,,,,,a,1,1.291,space,1.204,0,20,20,163,1,0_targ_10_dist_red/trial14.png,,,0,10,redHorizontal,a,41,58,M,2021-03-02_08h15.18.580,exp11,2020.2.6,MacIntel,60,,,,,,,,,,,
,,,,,,,,,,,,,,a,1,1.175,space,0.704,0,21,21,175,1,0_targ_16_dist_red/trial1.png,,,0,16,redHorizontal,a,41,58,M,2021-03-02_08h15.18.580,exp11,2020.2.6,MacIntel,60,,,,,,,,,,,
,,,,,,,,,,,,,,a,1,1.046,space,0.401,0,22,22,147,1,0_targ_4_dist_red/trial23.png,,,0,4,redHorizontal,a,41,58,M,2021-03-02_08h15.18.580,exp11,2020.2.6,MacIntel,60,,,,,,,,,,,
,,,,,,,,,,,,,,a,1,1.551,space,0.507,0,23,23,176,1,0_targ_16_dist_red/trial2.png,,,0,16,redHorizontal,a,41,58,M,2021-03-02_08h15.18.580,exp11,2020.2.6,MacIntel,60,,,,,,,,,,,
,,,,,,,,,,,,,,a,1,0.838,space,1.332,0,24,24,104,1,0_targ_1_dist_red/trial5.png,,,0,1,redHorizontal,a,41,58,M,2021-03-02_08h15.18.580,exp11,2020.2.6,MacIntel,60,,,,,,,,,,,
,,,,,,,,,,,,,,a,0,1.038,space,3.03,0,25,25,97,1,15_dist_red/trial23.png,,,1,15,redHorizontal,p,41,58,M,2021-03-02_08h15.18.580,exp11,2020.2.6,MacIntel,60,,,,,,,,,,,
,,,,,,,,,,,,,,p,1,1.478,space,1.553,0,26,26,49,1,3_dist_red/trial25.png,,,1,3,redHorizontal,p,41,58,M,2021-03-02_08h15.18.580,exp11,2020.2.6,MacIntel,60,,,,,,,,,,,
,,,,,,,,,,,,,,a,0,1.342,space,2.962,0,27,27,84,1,15_dist_red/trial10.png,,,1,15,redHorizontal,p,41,58,M,2021-03-02_08h15.18.580,exp11,2020.2.6,MacIntel,60,,,,,,,,,,,
,,,,,,,,,,,,,,p,1,1.538,space,0.912,0,28,28,98,1,15_dist_red/trial24.png,,,1,15,redHorizontal,p,41,58,M,2021-03-02_08h15.18.580,exp11,2020.2.6,MacIntel,60,,,,,,,,,,,
,,,,,,,,,,,,,,a,1,1.839,space,0.709,0,29,29,116,1,0_targ_1_dist_red/trial17.png,,,0,1,redHorizontal,a,41,58,M,2021-03-02_08h15.18.580,exp11,2020.2.6,MacIntel,60,,,,,,,,,,,
,,,,,,,,,,,,,,p,1,1.304,space,0.701,0,30,30,54,1,9_dist_red/trial5.png,,,1,9,redHorizontal,p,41,58,M,2021-03-02_08h15.18.580,exp11,2020.2.6,MacIntel,60,,,,,,,,,,,
,,,,,,,,,,,,,,p,1,0.943,space,0.325,0,31,31,13,1,0_dist_red/trial14.png,,,1,0,redHorizontal,p,41,58,M,2021-03-02_08h15.18.580,exp11,2020.2.6,MacIntel,60,,,,,,,,,,,
,,,,,,,,,,,,,,a,1,0.681,space,0.518,0,32,32,111,1,0_targ_1_dist_red/trial12.png,,,0,1,redHorizontal,a,41,58,M,2021-03-02_08h15.18.580,exp11,2020.2.6,MacIntel,60,,,,,,,,,,,
,,,,,,,,,,,,,,p,1,0.76,space,0.399,0,33,33,16,1,0_dist_red/trial17.png,,,1,0,redHorizontal,p,41,58,M,2021-03-02_08h15.18.580,exp11,2020.2.6,MacIntel,60,,,,,,,,,,,
,,,,,,,,,,,,,,p,1,1.082,space,0.356,0,34,34,51,1,9_dist_red/trial2.png,,,1,9,redHorizontal,p,41,58,M,2021-03-02_08h15.18.580,exp11,2020.2.6,MacIntel,60,,,,,,,,,,,
,,,,,,,,,,,,,,a,1,1.042,space,0.709,0,35,35,158,1,0_targ_10_dist_red/trial9.png,,,0,10,redHorizontal,a,41,58,M,2021-03-02_08h15.18.580,exp11,2020.2.6,MacIntel,60,,,,,,,,,,,
,,,,,,,,,,,,,,p,1,0.682,space,0.397,0,36,36,82,1,15_dist_red/trial8.png,,,1,15,redHorizontal,p,41,58,M,2021-03-02_08h15.18.580,exp11,2020.2.6,MacIntel,60,,,,,,,,,,,
,,,,,,,,,,,,,,a,0,1.46,space,0.281,0,37,37,90,1,15_dist_red/trial16.png,,,1,15,redHorizontal,p,41,58,M,2021-03-02_08h15.18.580,exp11,2020.2.6,MacIntel,60,,,,,,,,,,,
,,,,,,,,,,,,,,a,1,1.155,space,0.607,0,38,38,177,1,0_targ_16_dist_red/trial3.png,,,0,16,redHorizontal,a,41,58,M,2021-03-02_08h15.18.580,exp11,2020.2.6,MacIntel,60,,,,,,,,,,,
,,,,,,,,,,,,,,p,1,0.953,space,0.344,0,39,39,14,1,0_dist_red/trial15.png,,,1,0,redHorizontal,p,41,58,M,2021-03-02_08h15.18.580,exp11,2020.2.6,MacIntel,60,,,,,,,,,,,
,,,,,,,,,,,,,,p,1,0.876,space,0.423,0,40,40,64,1,9_dist_red/trial15.png,,,1,9,redHorizontal,p,41,58,M,2021-03-02_08h15.18.580,exp11,2020.2.6,MacIntel,60,,,,,,,,,,,
,,,,,,,,,,,,,,p,1,1.018,space,0.438,0,41,41,43,1,3_dist_red/trial19.png,,,1,3,redHorizontal,p,41,58,M,2021-03-02_08h15.18.580,exp11,2020.2.6,MacIntel,60,,,,,,,,,,,
,,,,,,,,,,,,,,a,1,1.4,space,0.358,0,42,42,183,1,0_targ_16_dist_red/trial9.png,,,0,16,redHorizontal,a,41,58,M,2021-03-02_08h15.18.580,exp11,2020.2.6,MacIntel,60,,,,,,,,,,,
,,,,,,,,,,,,,,a,1,3.03,space,0.813,0,43,43,120,1,0_targ_1_dist_red/trial21.png,,,0,1,redHorizontal,a,41,58,M,2021-03-02_08h15.18.580,exp11,2020.2.6,MacIntel,60,,,,,,,,,,,
,,,,,,,,,,,,,,a,1,0.795,space,0.4,0,44,44,100,1,0_targ_1_dist_red/trial1.png,,,0,1,redHorizontal,a,41,58,M,2021-03-02_08h15.18.580,exp11,2020.2.6,MacIntel,60,,,,,,,,,,,
,,,,,,,,,,,,,,p,1,0.919,space,0.647,0,45,45,68,1,9_dist_red/trial19.png,,,1,9,redHorizontal,p,41,58,M,2021-03-02_08h15.18.580,exp11,2020.2.6,MacIntel,60,,,,,,,,,,,
,,,,,,,,,,,,,,p,1,0.797,space,0.36,0,46,46,39,1,3_dist_red/trial15.png,,,1,3,redHorizontal,p,41,58,M,2021-03-02_08h15.18.580,exp11,2020.2.6,MacIntel,60,,,,,,,,,,,
,,,,,,,,,,,,,,p,1,0.762,space,0.45,0,47,47,77,1,15_dist_red/trial3.png,,,1,15,redHorizontal,p,41,58,M,2021-03-02_08h15.18.580,exp11,2020.2.6,MacIntel,60,,,,,,,,,,,
,,,,,,,,,,,,,,p,1,0.892,space,0.376,0,48,48,91,1,15_dist_red/trial17.png,,,1,15,redHorizontal,p,41,58,M,2021-03-02_08h15.18.580,exp11,2020.2.6,MacIntel,60,,,,,,,,,,,
,,,,,,,,,,,,,,a,1,0.815,space,0.624,0,49,49,140,1,0_targ_4_dist_red/trial6.png,,,0,4,redHorizontal,a,41,58,M,2021-03-02_08h15.18.580,exp11,2020.2.6,MacIntel,60,,,,,,,,,,,
,,,,,,,,,,,,,,a,1,0.936,space,0.418,0,50,50,134,1,0_targ_4_dist_red/trial10.png,,,0,4,redHorizontal,a,41,58,M,2021-03-02_08h15.18.580,exp11,2020.2.6,MacIntel,60,,,,,,,,,,,
,,,,,,,,,,,,,,a,1,0.977,space,0.402,0,51,51,144,1,0_targ_4_dist_red/trial20.png,,,0,4,redHorizontal,a,41,58,M,2021-03-02_08h15.18.580,exp11,2020.2.6,MacIntel,60,,,,,,,,,,,
,,,,,,,,,,,,,,a,1,0.837,space,0.434,0,52,52,124,1,0_targ_1_dist_red/trial25.png,,,0,1,redHorizontal,a,41,58,M,2021-03-02_08h15.18.580,exp11,2020.2.6,MacIntel,60,,,,,,,,,,,
,,,,,,,,,,,,,,a,1,0.612,space,0.399,0,53,53,129,1,0_targ_4_dist_red/trial5.png,,,0,4,redHorizontal,a,41,58,M,2021-03-02_08h15.18.580,exp11,2020.2.6,MacIntel,60,,,,,,,,,,,
,,,,,,,,,,,,,,p,1,0.519,space,0.398,0,54,54,44,1,3_dist_red/trial20.png,,,1,3,redHorizontal,p,41,58,M,2021-03-02_08h15.18.580,exp11,2020.2.6,MacIntel,60,,,,,,,,,,,
,,,,,,,,,,,,,,a,1,0.893,space,0.434,0,55,55,149,1,0_targ_4_dist_red/trial25.png,,,0,4,redHorizontal,a,41,58,M,2021-03-02_08h15.18.580,exp11,2020.2.6,MacIntel,60,,,,,,,,,,,
,,,,,,,,,,,,,,p,1,0.856,space,0.795,0,56,56,2,1,0_dist_red/trial3.png,,,1,0,redHorizontal,p,41,58,M,2021-03-02_08h15.18.580,exp11,2020.2.6,MacIntel,60,,,,,,,,,,,
,,,,,,,,,,,,,,a,1,0.895,space,0.361,0,57,57,119,1,0_targ_1_dist_red/trial20.png,,,0,1,redHorizontal,a,41,58,M,2021-03-02_08h15.18.580,exp11,2020.2.6,MacIntel,60,,,,,,,,,,,
,,,,,,,,,,,,,,p,1,0.755,space,0.345,0,58,58,60,1,9_dist_red/trial11.png,,,1,9,redHorizontal,p,41,58,M,2021-03-02_08h15.18.580,exp11,2020.2.6,MacIntel,60,,,,,,,,,,,
,,,,,,,,,,,,,,a,1,1.208,space,0.473,0,59,59,181,1,0_targ_16_dist_red/trial7.png,,,0,16,redHorizontal,a,41,58,M,2021-03-02_08h15.18.580,exp11,2020.2.6,MacIntel,60,,,,,,,,,,,
,,,,,,,,,,,,,,a,1,0.838,space,0.415,0,60,60,137,1,0_targ_4_dist_red/trial13.png,,,0,4,redHorizontal,a,41,58,M,2021-03-02_08h15.18.580,exp11,2020.2.6,MacIntel,60,,,,,,,,,,,
,,,,,,,,,,,,,,p,1,0.995,space,1.229,0,61,61,52,1,9_dist_red/trial3.png,,,1,9,redHorizontal,p,41,58,M,2021-03-02_08h15.18.580,exp11,2020.2.6,MacIntel,60,,,,,,,,,,,
,,,,,,,,,,,,,,p,1,1.054,space,0.491,0,62,62,99,1,15_dist_red/trial25.png,,,1,15,redHorizontal,p,41,58,M,2021-03-02_08h15.18.580,exp11,2020.2.6,MacIntel,60,,,,,,,,,,,
,,,,,,,,,,,,,,a,1,0.797,space,0.374,0,63,63,174,1,0_targ_10_dist_red/trial25.png,,,0,10,redHorizontal,a,41,58,M,2021-03-02_08h15.18.580,exp11,2020.2.6,MacIntel,60,,,,,,,,,,,
,,,,,,,,,,,,,,a,1,1.036,space,0.432,0,64,64,196,1,0_targ_16_dist_red/trial22.png,,,0,16,redHorizontal,a,41,58,M,2021-03-02_08h15.18.580,exp11,2020.2.6,MacIntel,60,,,,,,,,,,,
,,,,,,,,,,,,,,a,1,0.917,space,0.38,0,65,65,156,1,0_targ_10_dist_red/trial7.png,,,0,10,redHorizontal,a,41,58,M,2021-03-02_08h15.18.580,exp11,2020.2.6,MacIntel,60,,,,,,,,,,,
,,,,,,,,,,,,,,a,1,0.794,space,0.38,0,66,66,165,1,0_targ_10_dist_red/trial16.png,,,0,10,redHorizontal,a,41,58,M,2021-03-02_08h15.18.580,exp11,2020.2.6,MacIntel,60,,,,,,,,,,,
,,,,,,,,,,,,,,p,1,0.639,space,0.57,0,67,67,19,1,0_dist_red/trial20.png,,,1,0,redHorizontal,p,41,58,M,2021-03-02_08h15.18.580,exp11,2020.2.6,MacIntel,60,,,,,,,,,,,
,,,,,,,,,,,,,,p,1,1.571,space,0.585,0,68,68,96,1,15_dist_red/trial22.png,,,1,15,redHorizontal,p,41,58,M,2021-03-02_08h15.18.580,exp11,2020.2.6,MacIntel,60,,,,,,,,,,,
,,,,,,,,,,,,,,p,1,1.915,space,0.492,0,69,69,31,1,3_dist_red/trial7.png,,,1,3,redHorizontal,p,41,58,M,2021-03-02_08h15.18.580,exp11,2020.2.6,MacIntel,60,,,,,,,,,,,
,,,,,,,,,,,,,,p,1,1.136,space,0.359,0,70,70,47,1,3_dist_red/trial23.png,,,1,3,redHorizontal,p,41,58,M,2021-03-02_08h15.18.580,exp11,2020.2.6,MacIntel,60,,,,,,,,,,,
,,,,,,,,,,,,,,a,1,0.677,space,0.471,0,71,71,132,1,0_targ_4_dist_red/trial8.png,,,0,4,redHorizontal,a,41,58,M,2021-03-02_08h15.18.580,exp11,2020.2.6,MacIntel,60,,,,,,,,,,,
,,,,,,,,,,,,,,a,1,0.952,space,0.929,0,72,72,109,1,0_targ_1_dist_red/trial10.png,,,0,1,redHorizontal,a,41,58,M,2021-03-02_08h15.18.580,exp11,2020.2.6,MacIntel,60,,,,,,,,,,,
,,,,,,,,,,,,,,a,1,0.781,space,0.397,0,73,73,102,1,0_targ_1_dist_red/trial3.png,,,0,1,redHorizontal,a,41,58,M,2021-03-02_08h15.18.580,exp11,2020.2.6,MacIntel,60,,,,,,,,,,,
,,,,,,,,,,,,,,a,1,0.722,space,0.36,0,74,74,142,1,0_targ_4_dist_red/trial18.png,,,0,4,redHorizontal,a,41,58,M,2021-03-02_08h15.18.580,exp11,2020.2.6,MacIntel,60,,,,,,,,,,,
,,,,,,,,,,,,,,a,1,1.135,space,0.398,0,75,75,178,1,0_targ_16_dist_red/trial4.png,,,0,16,redHorizontal,a,41,58,M,2021-03-02_08h15.18.580,exp11,2020.2.6,MacIntel,60,,,,,,,,,,,
,,,,,,,,,,,,,,p,1,1.095,space,0.497,0,76,76,66,1,9_dist_red/trial17.png,,,1,9,redHorizontal,p,41,58,M,2021-03-02_08h15.18.580,exp11,2020.2.6,MacIntel,60,,,,,,,,,,,
,,,,,,,,,,,,,,a,1,1.615,space,0.435,0,77,77,195,1,0_targ_16_dist_red/trial21.png,,,0,16,redHorizontal,a,41,58,M,2021-03-02_08h15.18.580,exp11,2020.2.6,MacIntel,60,,,,,,,,,,,
,,,,,,,,,,,,,,a,0,0.882,space,1.505,0,78,78,28,1,3_dist_red/trial4.png,,,1,3,redHorizontal,p,41,58,M,2021-03-02_08h15.18.580,exp11,2020.2.6,MacIntel,60,,,,,,,,,,,
,,,,,,,,,,,,,,a,1,6.669,space,0.487,0,79,79,157,1,0_targ_10_dist_red/trial8.png,,,0,10,redHorizontal,a,41,58,M,2021-03-02_08h15.18.580,exp11,2020.2.6,MacIntel,60,,,,,,,,,,,
,,,,,,,,,,,,,,p,1,2.665,space,0.343,0,80,80,87,1,15_dist_red/trial13.png,,,1,15,redHorizontal,p,41,58,M,2021-03-02_08h15.18.580,exp11,2020.2.6,MacIntel,60,,,,,,,,,,,
,,,,,,,,,,,,,,p,1,1.938,space,1.039,0,81,81,24,1,0_dist_red/trial25.png,,,1,0,redHorizontal,p,41,58,M,2021-03-02_08h15.18.580,exp11,2020.2.6,MacIntel,60,,,,,,,,,,,
,,,,,,,,,,,,,,p,1,1.434,space,0.319,0,82,82,45,1,3_dist_red/trial21.png,,,1,3,redHorizontal,p,41,58,M,2021-03-02_08h15.18.580,exp11,2020.2.6,MacIntel,60,,,,,,,,,,,
,,,,,,,,,,,,,,p,1,0.901,space,0.306,0,83,83,1,1,0_dist_red/trial2.png,,,1,0,redHorizontal,p,41,58,M,2021-03-02_08h15.18.580,exp11,2020.2.6,MacIntel,60,,,,,,,,,,,
,,,,,,,,,,,,,,p,1,1.277,space,0.322,0,84,84,46,1,3_dist_red/trial22.png,,,1,3,redHorizontal,p,41,58,M,2021-03-02_08h15.18.580,exp11,2020.2.6,MacIntel,60,,,,,,,,,,,
,,,,,,,,,,,,,,a,1,1.057,space,0.345,0,85,85,173,1,0_targ_10_dist_red/trial24.png,,,0,10,redHorizontal,a,41,58,M,2021-03-02_08h15.18.580,exp11,2020.2.6,MacIntel,60,,,,,,,,,,,
,,,,,,,,,,,,,,a,1,0.897,space,0.381,0,86,86,115,1,0_targ_1_dist_red/trial6.png,,,0,1,redHorizontal,a,41,58,M,2021-03-02_08h15.18.580,exp11,2020.2.6,MacIntel,60,,,,,,,,,,,
,,,,,,,,,,,,,,p,1,0.997,space,0.514,0,87,87,62,1,9_dist_red/trial13.png,,,1,9,redHorizontal,p,41,58,M,2021-03-02_08h15.18.580,exp11,2020.2.6,MacIntel,60,,,,,,,,,,,
,,,,,,,,,,,,,,p,1,0.833,space,0.358,0,88,88,81,1,15_dist_red/trial7.png,,,1,15,redHorizontal,p,41,58,M,2021-03-02_08h15.18.580,exp11,2020.2.6,MacIntel,60,,,,,,,,,,,
,,,,,,,,,,,,,,p,1,0.678,space,0.34,0,89,89,36,1,3_dist_red/trial12.png,,,1,3,redHorizontal,p,41,58,M,2021-03-02_08h15.18.580,exp11,2020.2.6,MacIntel,60,,,,,,,,,,,
,,,,,,,,,,,,,,p,1,0.595,space,0.341,0,90,90,42,1,3_dist_red/trial18.png,,,1,3,redHorizontal,p,41,58,M,2021-03-02_08h15.18.580,exp11,2020.2.6,MacIntel,60,,,,,,,,,,,
,,,,,,,,,,,,,,p,1,0.797,space,0.319,0,91,91,30,1,3_dist_red/trial6.png,,,1,3,redHorizontal,p,41,58,M,2021-03-02_08h15.18.580,exp11,2020.2.6,MacIntel,60,,,,,,,,,,,
,,,,,,,,,,,,,,a,1,0.742,space,0.361,0,92,92,110,1,0_targ_1_dist_red/trial11.png,,,0,1,redHorizontal,a,41,58,M,2021-03-02_08h15.18.580,exp11,2020.2.6,MacIntel,60,,,,,,,,,,,
,,,,,,,,,,,,,,p,1,0.735,space,0.347,0,93,93,35,1,3_dist_red/trial11.png,,,1,3,redHorizontal,p,41,58,M,2021-03-02_08h15.18.580,exp11,2020.2.6,MacIntel,60,,,,,,,,,,,
,,,,,,,,,,,,,,a,1,2.103,space,0.357,0,94,94,180,1,0_targ_16_dist_red/trial6.png,,,0,16,redHorizontal,a,41,58,M,2021-03-02_08h15.18.580,exp11,2020.2.6,MacIntel,60,,,,,,,,,,,
,,,,,,,,,,,,,,p,1,0.64,space,0.318,0,95,95,61,1,9_dist_red/trial12.png,,,1,9,redHorizontal,p,41,58,M,2021-03-02_08h15.18.580,exp11,2020.2.6,MacIntel,60,,,,,,,,,,,
,,,,,,,,,,,,,,a,1,0.977,space,0.398,0,96,96,179,1,0_targ_16_dist_red/trial5.png,,,0,16,redHorizontal,a,41,58,M,2021-03-02_08h15.18.580,exp11,2020.2.6,MacIntel,60,,,,,,,,,,,
,,,,,,,,,,,,,,p,1,0.976,space,0.341,0,97,97,95,1,15_dist_red/trial21.png,,,1,15,redHorizontal,p,41,58,M,2021-03-02_08h15.18.580,exp11,2020.2.6,MacIntel,60,,,,,,,,,,,
,,,,,,,,,,,,,,a,1,0.816,space,0.358,0,98,98,130,1,0_targ_4_dist_red/trial6.png,,,0,4,redHorizontal,a,41,58,M,2021-03-02_08h15.18.580,exp11,2020.2.6,MacIntel,60,,,,,,,,,,,
,,,,,,,,,,,,,,p,1,1.219,space,0.282,0,99,99,75,1,15_dist_red/trial1.png,,,1,15,redHorizontal,p,41,58,M,2021-03-02_08h15.18.580,exp11,2020.2.6,MacIntel,60,,,,,,,,,,,
,,,,,,,,,,,,,,p,1,0.871,space,0.283,0,100,100,88,1,15_dist_red/trial14.png,,,1,15,redHorizontal,p,41,58,M,2021-03-02_08h15.18.580,exp11,2020.2.6,MacIntel,60,,,,,,,,,,,
,,,,,,,,,,,,,,a,1,0.796,space,0.381,0,101,101,141,1,0_targ_4_dist_red/trial17.png,,,0,4,redHorizontal,a,41,58,M,2021-03-02_08h15.18.580,exp11,2020.2.6,MacIntel,60,,,,,,,,,,,
,,,,,,,,,,,,,,a,1,1.243,space,0.359,0,102,102,192,1,0_targ_16_dist_red/trial18.png,,,0,16,redHorizontal,a,41,58,M,2021-03-02_08h15.18.580,exp11,2020.2.6,MacIntel,60,,,,,,,,,,,
,,,,,,,,,,,,,,p,0,0.738,space,0.454,0,103,103,127,1,0_targ_4_dist_red/trial3.png,,,0,4,redHorizontal,a,41,58,M,2021-03-02_08h15.18.580,exp11,2020.2.6,MacIntel,60,,,,,,,,,,,
,,,,,,,,,,,,,,p,1,0.738,space,0.394,0,104,104,0,1,0_dist_red/trial1.png,,,1,0,redHorizontal,p,41,58,M,2021-03-02_08h15.18.580,exp11,2020.2.6,MacIntel,60,,,,,,,,,,,
,,,,,,,,,,,,,,p,1,0.957,space,0.269,0,105,105,9,1,0_dist_red/trial10.png,,,1,0,redHorizontal,p,41,58,M,2021-03-02_08h15.18.580,exp11,2020.2.6,MacIntel,60,,,,,,,,,,,
,,,,,,,,,,,,,,a,1,0.874,space,0.415,0,106,106,125,1,0_targ_4_dist_red/trial1.png,,,0,4,redHorizontal,a,41,58,M,2021-03-02_08h15.18.580,exp11,2020.2.6,MacIntel,60,,,,,,,,,,,
,,,,,,,,,,,,,,a,1,1.342,space,0.341,0,107,107,188,1,0_targ_16_dist_red/trial14.png,,,0,16,redHorizontal,a,41,58,M,2021-03-02_08h15.18.580,exp11,2020.2.6,MacIntel,60,,,,,,,,,,,
,,,,,,,,,,,,,,a,0,1.119,space,2.209,0,108,108,79,1,15_dist_red/trial5.png,,,1,15,redHorizontal,p,41,58,M,2021-03-02_08h15.18.580,exp11,2020.2.6,MacIntel,60,,,,,,,,,,,
,,,,,,,,,,,,,,p,1,0.824,space,0.322,0,109,109,26,1,3_dist_red/trial2.png,,,1,3,redHorizontal,p,41,58,M,2021-03-02_08h15.18.580,exp11,2020.2.6,MacIntel,60,,,,,,,,,,,
,,,,,,,,,,,,,,a,1,1.896,space,0.4,0,110,110,194,1,0_targ_16_dist_red/trial20.png,,,0,16,redHorizontal,a,41,58,M,2021-03-02_08h15.18.580,exp11,2020.2.6,MacIntel,60,,,,,,,,,,,
,,,,,,,,,,,,,,p,1,0.718,space,0.321,0,111,111,57,1,9_dist_red/trial8.png,,,1,9,redHorizontal,p,41,58,M,2021-03-02_08h15.18.580,exp11,2020.2.6,MacIntel,60,,,,,,,,,,,
,,,,,,,,,,,,,,a,0,0.856,space,3.046,0,112,112,48,1,3_dist_red/trial24.png,,,1,3,redHorizontal,p,41,58,M,2021-03-02_08h15.18.580,exp11,2020.2.6,MacIntel,60,,,,,,,,,,,
,,,,,,,,,,,,,,p,1,1.671,space,1.025,0,113,113,69,1,9_dist_red/trial20.png,,,1,9,redHorizontal,p,41,58,M,2021-03-02_08h15.18.580,exp11,2020.2.6,MacIntel,60,,,,,,,,,,,
,,,,,,,,,,,,,,a,0,1.116,space,2.504,0,114,114,55,1,9_dist_red/trial6.png,,,1,9,redHorizontal,p,41,58,M,2021-03-02_08h15.18.580,exp11,2020.2.6,MacIntel,60,,,,,,,,,,,
,,,,,,,,,,,,,,a,1,1.237,space,0.458,0,115,115,166,1,0_targ_10_dist_red/trial17.png,,,0,10,redHorizontal,a,41,58,M,2021-03-02_08h15.18.580,exp11,2020.2.6,MacIntel,60,,,,,,,,,,,
,,,,,,,,,,,,,,a,1,0.701,space,0.398,0,116,116,162,1,0_targ_10_dist_red/trial13.png,,,0,10,redHorizontal,a,41,58,M,2021-03-02_08h15.18.580,exp11,2020.2.6,MacIntel,60,,,,,,,,,,,
,,,,,,,,,,,,,,p,1,0.684,space,0.648,0,117,117,4,1,0_dist_red/trial5.png,,,1,0,redHorizontal,p,41,58,M,2021-03-02_08h15.18.580,exp11,2020.2.6,MacIntel,60,,,,,,,,,,,
,,,,,,,,,,,,,,a,1,1.076,space,0.858,0,118,118,171,1,0_targ_10_dist_red/trial22.png,,,0,10,redHorizontal,a,41,58,M,2021-03-02_08h15.18.580,exp11,2020.2.6,MacIntel,60,,,,,,,,,,,
,,,,,,,,,,,,,,p,1,0.68,space,0.441,0,119,119,15,1,0_dist_red/trial16.png,,,1,0,redHorizontal,p,41,58,M,2021-03-02_08h15.18.580,exp11,2020.2.6,MacIntel,60,,,,,,,,,,,
,,,,,,,,,,,,,,p,1,1.199,space,1.023,0,120,120,11,1,0_dist_red/trial12.png,,,1,0,redHorizontal,p,41,58,M,2021-03-02_08h15.18.580,exp11,2020.2.6,MacIntel,60,,,,,,,,,,,
,,,,,,,,,,,,,,a,1,1.438,space,0.588,0,121,121,197,1,0_targ_16_dist_red/trial23.png,,,0,16,redHorizontal,a,41,58,M,2021-03-02_08h15.18.580,exp11,2020.2.6,MacIntel,60,,,,,,,,,,,
,,,,,,,,,,,,,,p,0,0.741,space,0.398,0,122,122,105,1,0_targ_1_dist_red/trial6.png,,,0,1,redHorizontal,a,41,58,M,2021-03-02_08h15.18.580,exp11,2020.2.6,MacIntel,60,,,,,,,,,,,
,,,,,,,,,,,,,,p,1,0.949,space,0.344,0,123,123,7,1,0_dist_red/trial8.png,,,1,0,redHorizontal,p,41,58,M,2021-03-02_08h15.18.580,exp11,2020.2.6,MacIntel,60,,,,,,,,,,,
,,,,,,,,,,,,,,p,1,0.782,space,0.304,0,124,124,72,1,9_dist_red/trial23.png,,,1,9,redHorizontal,p,41,58,M,2021-03-02_08h15.18.580,exp11,2020.2.6,MacIntel,60,,,,,,,,,,,
,,,,,,,,,,,,,,p,1,0.658,space,0.301,0,125,125,5,1,0_dist_red/trial6.png,,,1,0,redHorizontal,p,41,58,M,2021-03-02_08h15.18.580,exp11,2020.2.6,MacIntel,60,,,,,,,,,,,
,,,,,,,,,,,,,,a,1,1.046,space,0.482,0,126,126,123,1,0_targ_1_dist_red/trial24.png,,,0,1,redHorizontal,a,41,58,M,2021-03-02_08h15.18.580,exp11,2020.2.6,MacIntel,60,,,,,,,,,,,
,,,,,,,,,,,,,,p,1,1.098,space,0.377,0,127,127,76,1,15_dist_red/trial2.png,,,1,15,redHorizontal,p,41,58,M,2021-03-02_08h15.18.580,exp11,2020.2.6,MacIntel,60,,,,,,,,,,,
,,,,,,,,,,,,,,a,1,1.158,space,0.378,0,128,128,191,1,0_targ_16_dist_red/trial17.png,,,0,16,redHorizontal,a,41,58,M,2021-03-02_08h15.18.580,exp11,2020.2.6,MacIntel,60,,,,,,,,,,,
,,,,,,,,,,,,,,p,1,0.758,space,0.379,0,129,129,32,1,3_dist_red/trial8.png,,,1,3,redHorizontal,p,41,58,M,2021-03-02_08h15.18.580,exp11,2020.2.6,MacIntel,60,,,,,,,,,,,
,,,,,,,,,,,,,,p,1,1.004,space,0.361,0,130,130,70,1,9_dist_red/trial21.png,,,1,9,redHorizontal,p,41,58,M,2021-03-02_08h15.18.580,exp11,2020.2.6,MacIntel,60,,,,,,,,,,,
,,,,,,,,,,,,,,p,1,0.721,space,0.323,0,131,131,27,1,3_dist_red/trial3.png,,,1,3,redHorizontal,p,41,58,M,2021-03-02_08h15.18.580,exp11,2020.2.6,MacIntel,60,,,,,,,,,,,
,,,,,,,,,,,,,,a,1,0.759,space,0.459,0,132,132,133,1,0_targ_4_dist_red/trial9.png,,,0,4,redHorizontal,a,41,58,M,2021-03-02_08h15.18.580,exp11,2020.2.6,MacIntel,60,,,,,,,,,,,
,,,,,,,,,,,,,,p,1,1.001,space,0.377,0,133,133,50,1,9_dist_red/trial1.png,,,1,9,redHorizontal,p,41,58,M,2021-03-02_08h15.18.580,exp11,2020.2.6,MacIntel,60,,,,,,,,,,,
,,,,,,,,,,,,,,p,1,1.236,space,0.383,0,134,134,12,1,0_dist_red/trial13.png,,,1,0,redHorizontal,p,41,58,M,2021-03-02_08h15.18.580,exp11,2020.2.6,MacIntel,60,,,,,,,,,,,
,,,,,,,,,,,,,,a,1,0.818,space,0.584,0,135,135,113,1,0_targ_1_dist_red/trial14.png,,,0,1,redHorizontal,a,41,58,M,2021-03-02_08h15.18.580,exp11,2020.2.6,MacIntel,60,,,,,,,,,,,
,,,,,,,,,,,,,,a,1,1.22,space,0.343,0,136,136,148,1,0_targ_4_dist_red/trial24.png,,,0,4,redHorizontal,a,41,58,M,2021-03-02_08h15.18.580,exp11,2020.2.6,MacIntel,60,,,,,,,,,,,
,,,,,,,,,,,,,,p,1,1.046,space,1.023,0,137,137,93,1,15_dist_red/trial19.png,,,1,15,redHorizontal,p,41,58,M,2021-03-02_08h15.18.580,exp11,2020.2.6,MacIntel,60,,,,,,,,,,,
,,,,,,,,,,,,,,p,1,1.099,space,0.301,0,138,138,21,1,0_dist_red/trial22.png,,,1,0,redHorizontal,p,41,58,M,2021-03-02_08h15.18.580,exp11,2020.2.6,MacIntel,60,,,,,,,,,,,
,,,,,,,,,,,,,,a,1,0.839,space,0.815,0,139,139,146,1,0_targ_4_dist_red/trial22.png,,,0,4,redHorizontal,a,41,58,M,2021-03-02_08h15.18.580,exp11,2020.2.6,MacIntel,60,,,,,,,,,,,
,,,,,,,,,,,,,,p,1,0.822,space,0.359,0,140,140,3,1,0_dist_red/trial4.png,,,1,0,redHorizontal,p,41,58,M,2021-03-02_08h15.18.580,exp11,2020.2.6,MacIntel,60,,,,,,,,,,,
,,,,,,,,,,,,,,a,1,1.338,space,0.609,0,141,141,199,1,0_targ_16_dist_red/trial25.png,,,0,16,redHorizontal,a,41,58,M,2021-03-02_08h15.18.580,exp11,2020.2.6,MacIntel,60,,,,,,,,,,,
,,,,,,,,,,,,,,p,1,0.877,space,0.401,0,142,142,20,1,0_dist_red/trial21.png,,,1,0,redHorizontal,p,41,58,M,2021-03-02_08h15.18.580,exp11,2020.2.6,MacIntel,60,,,,,,,,,,,
,,,,,,,,,,,,,,a,1,1.001,space,0.455,0,143,143,186,1,0_targ_16_dist_red/trial12.png,,,0,16,redHorizontal,a,41,58,M,2021-03-02_08h15.18.580,exp11,2020.2.6,MacIntel,60,,,,,,,,,,,
,,,,,,,,,,,,,,a,0,3.497,space,0.038,0,144,144,80,1,15_dist_red/trial6.png,,,1,15,redHorizontal,p,41,58,M,2021-03-02_08h15.18.580,exp11,2020.2.6,MacIntel,60,,,,,,,,,,,
,,,,,,,,,,,,,,a,1,0.989,space,0.401,0,145,145,153,1,0_targ_10_dist_red/trial4.png,,,0,10,redHorizontal,a,41,58,M,2021-03-02_08h15.18.580,exp11,2020.2.6,MacIntel,60,,,,,,,,,,,
,,,,,,,,,,,,,,a,1,0.738,space,0.418,0,146,146,131,1,0_targ_4_dist_red/trial7.png,,,0,4,redHorizontal,a,41,58,M,2021-03-02_08h15.18.580,exp11,2020.2.6,MacIntel,60,,,,,,,,,,,
,,,,,,,,,,,,,,a,1,0.601,space,0.381,0,147,147,136,1,0_targ_4_dist_red/trial12.png,,,0,4,redHorizontal,a,41,58,M,2021-03-02_08h15.18.580,exp11,2020.2.6,MacIntel,60,,,,,,,,,,,
,,,,,,,,,,,,,,p,1,0.479,space,0.341,0,148,148,83,1,15_dist_red/trial9.png,,,1,15,redHorizontal,p,41,58,M,2021-03-02_08h15.18.580,exp11,2020.2.6,MacIntel,60,,,,,,,,,,,
,,,,,,,,,,,,,,p,1,0.599,space,0.302,0,149,149,41,1,3_dist_red/trial17.png,,,1,3,redHorizontal,p,41,58,M,2021-03-02_08h15.18.580,exp11,2020.2.6,MacIntel,60,,,,,,,,,,,
,,,,,,,,,,,,,,a,1,0.696,space,0.436,0,150,150,112,1,0_targ_1_dist_red/trial13.png,,,0,1,redHorizontal,a,41,58,M,2021-03-02_08h15.18.580,exp11,2020.2.6,MacIntel,60,,,,,,,,,,,
,,,,,,,,,,,,,,p,0,1.421,space,3.077,0,151,151,187,1,0_targ_16_dist_red/trial13.png,,,0,16,redHorizontal,a,41,58,M,2021-03-02_08h15.18.580,exp11,2020.2.6,MacIntel,60,,,,,,,,,,,
,,,,,,,,,,,,,,a,1,0.721,space,0.648,0,152,152,135,1,0_targ_4_dist_red/trial11.png,,,0,4,redHorizontal,a,41,58,M,2021-03-02_08h15.18.580,exp11,2020.2.6,MacIntel,60,,,,,,,,,,,
,,,,,,,,,,,,,,a,1,1.295,space,0.362,0,153,153,121,1,0_targ_1_dist_red/trial22.png,,,0,1,redHorizontal,a,41,58,M,2021-03-02_08h15.18.580,exp11,2020.2.6,MacIntel,60,,,,,,,,,,,
,,,,,,,,,,,,,,p,1,1.653,space,0.892,0,154,154,58,1,9_dist_red/trial9.png,,,1,9,redHorizontal,p,41,58,M,2021-03-02_08h15.18.580,exp11,2020.2.6,MacIntel,60,,,,,,,,,,,
,,,,,,,,,,,,,,a,1,1.638,space,0.648,0,155,155,152,1,0_targ_10_dist_red/trial3.png,,,0,10,redHorizontal,a,41,58,M,2021-03-02_08h15.18.580,exp11,2020.2.6,MacIntel,60,,,,,,,,,,,
,,,,,,,,,,,,,,a,1,1.08,space,0.414,0,156,156,154,1,0_targ_10_dist_red/trial5.png,,,0,10,redHorizontal,a,41,58,M,2021-03-02_08h15.18.580,exp11,2020.2.6,MacIntel,60,,,,,,,,,,,
,,,,,,,,,,,,,,a,1,0.86,space,0.379,0,157,157,185,1,0_targ_16_dist_red/trial11.png,,,0,16,redHorizontal,a,41,58,M,2021-03-02_08h15.18.580,exp11,2020.2.6,MacIntel,60,,,,,,,,,,,
,,,,,,,,,,,,,,a,1,0.757,space,0.399,0,158,158,108,1,0_targ_1_dist_red/trial9.png,,,0,1,redHorizontal,a,41,58,M,2021-03-02_08h15.18.580,exp11,2020.2.6,MacIntel,60,,,,,,,,,,,
,,,,,,,,,,,,,,p,1,0.853,space,0.398,0,159,159,67,1,9_dist_red/trial18.png,,,1,9,redHorizontal,p,41,58,M,2021-03-02_08h15.18.580,exp11,2020.2.6,MacIntel,60,,,,,,,,,,,
,,,,,,,,,,,,,,p,1,1.176,space,0.363,0,160,160,59,1,9_dist_red/trial10.png,,,1,9,redHorizontal,p,41,58,M,2021-03-02_08h15.18.580,exp11,2020.2.6,MacIntel,60,,,,,,,,,,,
,,,,,,,,,,,,,,p,1,0.9,space,0.344,0,161,161,17,1,0_dist_red/trial18.png,,,1,0,redHorizontal,p,41,58,M,2021-03-02_08h15.18.580,exp11,2020.2.6,MacIntel,60,,,,,,,,,,,
,,,,,,,,,,,,,,p,1,0.681,space,0.378,0,162,162,10,1,0_dist_red/trial11.png,,,1,0,redHorizontal,p,41,58,M,2021-03-02_08h15.18.580,exp11,2020.2.6,MacIntel,60,,,,,,,,,,,
,,,,,,,,,,,,,,p,1,0.638,space,0.324,0,163,163,38,1,3_dist_red/trial14.png,,,1,3,redHorizontal,p,41,58,M,2021-03-02_08h15.18.580,exp11,2020.2.6,MacIntel,60,,,,,,,,,,,
,,,,,,,,,,,,,,p,1,0.64,space,0.361,0,164,164,53,1,9_dist_red/trial4.png,,,1,9,redHorizontal,p,41,58,M,2021-03-02_08h15.18.580,exp11,2020.2.6,MacIntel,60,,,,,,,,,,,
,,,,,,,,,,,,,,p,1,0.639,space,0.419,0,165,165,89,1,15_dist_red/trial15.png,,,1,15,redHorizontal,p,41,58,M,2021-03-02_08h15.18.580,exp11,2020.2.6,MacIntel,60,,,,,,,,,,,
,,,,,,,,,,,,,,p,1,0.677,space,0.378,0,166,166,23,1,0_dist_red/trial24.png,,,1,0,redHorizontal,p,41,58,M,2021-03-02_08h15.18.580,exp11,2020.2.6,MacIntel,60,,,,,,,,,,,
,,,,,,,,,,,,,,p,1,0.618,space,0.323,0,167,167,92,1,15_dist_red/trial18.png,,,1,15,redHorizontal,p,41,58,M,2021-03-02_08h15.18.580,exp11,2020.2.6,MacIntel,60,,,,,,,,,,,
,,,,,,,,,,,,,,p,1,0.659,space,0.357,0,168,168,8,1,0_dist_red/trial9.png,,,1,0,redHorizontal,p,41,58,M,2021-03-02_08h15.18.580,exp11,2020.2.6,MacIntel,60,,,,,,,,,,,
,,,,,,,,,,,,,,a,1,0.838,space,0.326,0,169,169,101,1,0_targ_1_dist_red/trial2.png,,,0,1,redHorizontal,a,41,58,M,2021-03-02_08h15.18.580,exp11,2020.2.6,MacIntel,60,,,,,,,,,,,
,,,,,,,,,,,,,,p,1,1.094,space,0.34,0,170,170,73,1,9_dist_red/trial24.png,,,1,9,redHorizontal,p,41,58,M,2021-03-02_08h15.18.580,exp11,2020.2.6,MacIntel,60,,,,,,,,,,,
,,,,,,,,,,,,,,a,1,0.78,space,0.379,0,171,171,139,1,0_targ_4_dist_red/trial15.png,,,0,4,redHorizontal,a,41,58,M,2021-03-02_08h15.18.580,exp11,2020.2.6,MacIntel,60,,,,,,,,,,,
,,,,,,,,,,,,,,a,1,0.956,space,0.342,0,172,172,184,1,0_targ_16_dist_red/trial10.png,,,0,16,redHorizontal,a,41,58,M,2021-03-02_08h15.18.580,exp11,2020.2.6,MacIntel,60,,,,,,,,,,,
,,,,,,,,,,,,,,a,1,1.06,space,0.36,0,173,173,160,1,0_targ_10_dist_red/trial11.png,,,0,10,redHorizontal,a,41,58,M,2021-03-02_08h15.18.580,exp11,2020.2.6,MacIntel,60,,,,,,,,,,,
,,,,,,,,,,,,,,a,1,0.822,space,0.285,0,174,174,155,1,0_targ_10_dist_red/trial6.png,,,0,10,redHorizontal,a,41,58,M,2021-03-02_08h15.18.580,exp11,2020.2.6,MacIntel,60,,,,,,,,,,,
,,,,,,,,,,,,,,p,1,0.759,space,0.49,0,175,175,29,1,3_dist_red/trial5.png,,,1,3,redHorizontal,p,41,58,M,2021-03-02_08h15.18.580,exp11,2020.2.6,MacIntel,60,,,,,,,,,,,
,,,,,,,,,,,,,,a,1,1.329,space,0.284,0,176,176,169,1,0_targ_10_dist_red/trial20.png,,,0,10,redHorizontal,a,41,58,M,2021-03-02_08h15.18.580,exp11,2020.2.6,MacIntel,60,,,,,,,,,,,
,,,,,,,,,,,,,,a,1,0.895,space,0.413,0,177,177,161,1,0_targ_10_dist_red/trial12.png,,,0,10,redHorizontal,a,41,58,M,2021-03-02_08h15.18.580,exp11,2020.2.6,MacIntel,60,,,,,,,,,,,
,,,,,,,,,,,,,,p,1,0.86,space,0.341,0,178,178,56,1,9_dist_red/trial7.png,,,1,9,redHorizontal,p,41,58,M,2021-03-02_08h15.18.580,exp11,2020.2.6,MacIntel,60,,,,,,,,,,,
,,,,,,,,,,,,,,a,1,1.198,space,0.304,0,179,179,182,1,0_targ_16_dist_red/trial8.png,,,0,16,redHorizontal,a,41,58,M,2021-03-02_08h15.18.580,exp11,2020.2.6,MacIntel,60,,,,,,,,,,,
,,,,,,,,,,,,,,p,1,1.117,space,0.454,0,180,180,65,1,9_dist_red/trial16.png,,,1,9,redHorizontal,p,41,58,M,2021-03-02_08h15.18.580,exp11,2020.2.6,MacIntel,60,,,,,,,,,,,
,,,,,,,,,,,,,,a,1,1.39,space,0.303,0,181,181,198,1,0_targ_16_dist_red/trial24.png,,,0,16,redHorizontal,a,41,58,M,2021-03-02_08h15.18.580,exp11,2020.2.6,MacIntel,60,,,,,,,,,,,
,,,,,,,,,,,,,,a,1,0.824,space,0.303,0,182,182,164,1,0_targ_10_dist_red/trial15.png,,,0,10,redHorizontal,a,41,58,M,2021-03-02_08h15.18.580,exp11,2020.2.6,MacIntel,60,,,,,,,,,,,
,,,,,,,,,,,,,,p,1,1.057,space,0.493,0,183,183,78,1,15_dist_red/trial4.png,,,1,15,redHorizontal,p,41,58,M,2021-03-02_08h15.18.580,exp11,2020.2.6,MacIntel,60,,,,,,,,,,,
,,,,,,,,,,,,,,p,1,0.937,space,0.305,0,184,184,71,1,9_dist_red/trial22.png,,,1,9,redHorizontal,p,41,58,M,2021-03-02_08h15.18.580,exp11,2020.2.6,MacIntel,60,,,,,,,,,,,
,,,,,,,,,,,,,,p,1,0.556,space,0.307,0,185,185,37,1,3_dist_red/trial13.png,,,1,3,redHorizontal,p,41,58,M,2021-03-02_08h15.18.580,exp11,2020.2.6,MacIntel,60,,,,,,,,,,,
,,,,,,,,,,,,,,a,1,0.879,space,0.3,0,186,186,167,1,0_targ_10_dist_red/trial18.png,,,0,10,redHorizontal,a,41,58,M,2021-03-02_08h15.18.580,exp11,2020.2.6,MacIntel,60,,,,,,,,,,,
,,,,,,,,,,,,,,a,1,1.336,space,0.323,0,187,187,170,1,0_targ_10_dist_red/trial21.png,,,0,10,redHorizontal,a,41,58,M,2021-03-02_08h15.18.580,exp11,2020.2.6,MacIntel,60,,,,,,,,,,,
,,,,,,,,,,,,,,p,1,0.739,space,0.301,0,188,188,34,1,3_dist_red/trial10.png,,,1,3,redHorizontal,p,41,58,M,2021-03-02_08h15.18.580,exp11,2020.2.6,MacIntel,60,,,,,,,,,,,
,,,,,,,,,,,,,,a,1,1.501,space,0.318,0,189,189,193,1,0_targ_16_dist_red/trial19.png,,,0,16,redHorizontal,a,41,58,M,2021-03-02_08h15.18.580,exp11,2020.2.6,MacIntel,60,,,,,,,,,,,
,,,,,,,,,,,,,,a,1,1.001,space,0.322,0,190,190,145,1,0_targ_4_dist_red/trial21.png,,,0,4,redHorizontal,a,41,58,M,2021-03-02_08h15.18.580,exp11,2020.2.6,MacIntel,60,,,,,,,,,,,
,,,,,,,,,,,,,,a,1,0.658,space,0.361,0,191,191,143,1,0_targ_4_dist_red/trial19.png,,,0,4,redHorizontal,a,41,58,M,2021-03-02_08h15.18.580,exp11,2020.2.6,MacIntel,60,,,,,,,,,,,
,,,,,,,,,,,,,,p,1,0.663,space,0.27,0,192,192,6,1,0_dist_red/trial7.png,,,1,0,redHorizontal,p,41,58,M,2021-03-02_08h15.18.580,exp11,2020.2.6,MacIntel,60,,,,,,,,,,,
,,,,,,,,,,,,,,a,1,1.022,space,0.307,0,193,193,118,1,0_targ_1_dist_red/trial19.png,,,0,1,redHorizontal,a,41,58,M,2021-03-02_08h15.18.580,exp11,2020.2.6,MacIntel,60,,,,,,,,,,,
,,,,,,,,,,,,,,a,1,1.139,space,0.306,0,194,194,190,1,0_targ_16_dist_red/trial16.png,,,0,16,redHorizontal,a,41,58,M,2021-03-02_08h15.18.580,exp11,2020.2.6,MacIntel,60,,,,,,,,,,,
,,,,,,,,,,,,,,p,1,0.761,space,0.342,0,195,195,33,1,3_dist_red/trial9.png,,,1,3,redHorizontal,p,41,58,M,2021-03-02_08h15.18.580,exp11,2020.2.6,MacIntel,60,,,,,,,,,,,
,,,,,,,,,,,,,,p,1,1.281,space,0.325,0,196,196,85,1,15_dist_red/trial11.png,,,1,15,redHorizontal,p,41,58,M,2021-03-02_08h15.18.580,exp11,2020.2.6,MacIntel,60,,,,,,,,,,,
,,,,,,,,,,,,,,p,1,1.217,space,0.264,0,197,197,22,1,0_dist_red/trial23.png,,,1,0,redHorizontal,p,41,58,M,2021-03-02_08h15.18.580,exp11,2020.2.6,MacIntel,60,,,,,,,,,,,
,,,,,,,,,,,,,,a,1,1.02,space,0.479,0,198,198,106,1,0_targ_1_dist_red/trial7.png,,,0,1,redHorizontal,a,41,58,M,2021-03-02_08h15.18.580,exp11,2020.2.6,MacIntel,60,,,,,,,,,,,
,,,,,,,,,,,,,,a,1,0.919,space,0.305,0,199,199,151,1,0_targ_10_dist_red/trial2.png,,,0,10,redHorizontal,a,41,58,M,2021-03-02_08h15.18.580,exp11,2020.2.6,MacIntel,60,,,,,,,,,,,
,,,,,,,,,,,,,,,,,,,,,,,,,,,,,,,41,58,M,2021-03-02_08h15.18.580,exp11,2020.2.6,MacIntel,60,0,1,1,1,1,conRed.xlsx,red horizontal,Look for red horizontal bar (target) and indicate if it is present or absent in the array. If red horizontal target is present press 'p' and if absent press 'a'. Press SPACE to start.,,,
