key_resp_6.keys,key_resp_6.rt,key_resp_7.keys,key_resp_7.rt,key_resp_8.keys,key_resp_8.rt,key_resp_10.keys,key_resp_10.rt,key_resp_9.keys,key_resp_9.rt,key_resp_3.keys,key_resp_3.rt,key_resp_5.keys,key_resp_5.rt,key_resp.keys,key_resp.corr,key_resp.rt,key_resp_4.keys,key_resp_4.rt,trials.thisRepN,trials.thisTrialN,trials.thisN,trials.thisIndex,trials.ran,ImageFile,tarPos,tarSize,targPres,numDist,targetName,correctAns,participant,age,sex,date,expName,psychopyVersion,OS,frameRate,trials_2.thisRepN,trials_2.thisTrialN,trials_2.thisN,trials_2.thisIndex,trials_2.ran,condsFile,targName,instructionText,colTarget,sizeTarg,posit
space,6.101,space,9.388,space,5.117,space,17.388,space,7.421,space,15.292,space,26.438,a,1,3.587,space,10.077,0,0,0,170,1,0_targ_10_dist_green/trial21.png,,,0,10,greenverival,a,42,53,female,2021-03-02_09h26.20.781,exp11,2020.2.6,MacIntel,60,,,,,,,,,,,
,,,,,,,,,,,,,,p,1,1.124,space,1.146,0,1,1,7,1,0_dist_green/trial8.png,,,1,0,greenverival,p,42,53,female,2021-03-02_09h26.20.781,exp11,2020.2.6,MacIntel,60,,,,,,,,,,,
,,,,,,,,,,,,,,p,1,1.53,space,1.356,0,2,2,98,1,15_dist_green/trial24.png,,,1,15,greenverival,p,42,53,female,2021-03-02_09h26.20.781,exp11,2020.2.6,MacIntel,60,,,,,,,,,,,
,,,,,,,,,,,,,,p,1,1.321,space,1.026,0,3,3,45,1,3_dist_green/trial21.png,,,1,3,greenverival,p,42,53,female,2021-03-02_09h26.20.781,exp11,2020.2.6,MacIntel,60,,,,,,,,,,,
,,,,,,,,,,,,,,p,1,1.122,space,0.786,0,4,4,62,1,9_dist_green/trial13.png,,,1,9,greenverival,p,42,53,female,2021-03-02_09h26.20.781,exp11,2020.2.6,MacIntel,60,,,,,,,,,,,
,,,,,,,,,,,,,,a,1,1.829,space,2.123,0,5,5,153,1,0_targ_10_dist_green/trial4.png,,,0,10,greenverival,a,42,53,female,2021-03-02_09h26.20.781,exp11,2020.2.6,MacIntel,60,,,,,,,,,,,
,,,,,,,,,,,,,,a,1,1.037,space,1.105,0,6,6,122,1,0_targ_1_dist_green/trial23.png,,,0,1,greenverival,a,42,53,female,2021-03-02_09h26.20.781,exp11,2020.2.6,MacIntel,60,,,,,,,,,,,
,,,,,,,,,,,,,,p,1,1.109,space,1.542,0,7,7,50,1,9_dist_green/trial1.png,,,1,9,greenverival,p,42,53,female,2021-03-02_09h26.20.781,exp11,2020.2.6,MacIntel,60,,,,,,,,,,,
,,,,,,,,,,,,,,p,1,1.042,space,0.792,0,8,8,35,1,3_dist_green/trial11.png,,,1,3,greenverival,p,42,53,female,2021-03-02_09h26.20.781,exp11,2020.2.6,MacIntel,60,,,,,,,,,,,
,,,,,,,,,,,,,,p,1,1.086,space,0.921,0,9,9,61,1,9_dist_green/trial12.png,,,1,9,greenverival,p,42,53,female,2021-03-02_09h26.20.781,exp11,2020.2.6,MacIntel,60,,,,,,,,,,,
,,,,,,,,,,,,,,p,1,0.904,space,0.884,0,10,10,60,1,9_dist_green/trial11.png,,,1,9,greenverival,p,42,53,female,2021-03-02_09h26.20.781,exp11,2020.2.6,MacIntel,60,,,,,,,,,,,
,,,,,,,,,,,,,,p,1,1.523,space,0.808,0,11,11,92,1,15_dist_green/trial18.png,,,1,15,greenverival,p,42,53,female,2021-03-02_09h26.20.781,exp11,2020.2.6,MacIntel,60,,,,,,,,,,,
,,,,,,,,,,,,,,a,1,1.1,space,1.325,0,12,12,124,1,0_targ_1_dist_green/trial25.png,,,0,1,greenverival,a,42,53,female,2021-03-02_09h26.20.781,exp11,2020.2.6,MacIntel,60,,,,,,,,,,,
,,,,,,,,,,,,,,a,1,1.341,space,0.768,0,13,13,158,1,0_targ_10_dist_green/trial9.png,,,0,10,greenverival,a,42,53,female,2021-03-02_09h26.20.781,exp11,2020.2.6,MacIntel,60,,,,,,,,,,,
,,,,,,,,,,,,,,p,1,0.626,space,0.788,0,14,14,16,1,0_dist_green/trial17.png,,,1,0,greenverival,p,42,53,female,2021-03-02_09h26.20.781,exp11,2020.2.6,MacIntel,60,,,,,,,,,,,
,,,,,,,,,,,,,,a,1,1.34,space,0.539,0,15,15,191,1,0_targ_16_dist_green/trial17.png,,,0,16,greenverival,a,42,53,female,2021-03-02_09h26.20.781,exp11,2020.2.6,MacIntel,60,,,,,,,,,,,
,,,,,,,,,,,,,,p,1,1.09,space,0.607,0,16,16,23,1,0_dist_green/trial24.png,,,1,0,greenverival,p,42,53,female,2021-03-02_09h26.20.781,exp11,2020.2.6,MacIntel,60,,,,,,,,,,,
,,,,,,,,,,,,,,p,1,1.06,space,0.477,0,17,17,30,1,3_dist_green/trial6.png,,,1,3,greenverival,p,42,53,female,2021-03-02_09h26.20.781,exp11,2020.2.6,MacIntel,60,,,,,,,,,,,
,,,,,,,,,,,,,,a,1,0.954,space,0.54,0,18,18,176,1,0_targ_16_dist_green/trial2.png,,,0,16,greenverival,a,42,53,female,2021-03-02_09h26.20.781,exp11,2020.2.6,MacIntel,60,,,,,,,,,,,
,,,,,,,,,,,,,,a,1,1.086,space,0.256,0,19,19,193,1,0_targ_16_dist_green/trial19.png,,,0,16,greenverival,a,42,53,female,2021-03-02_09h26.20.781,exp11,2020.2.6,MacIntel,60,,,,,,,,,,,
,,,,,,,,,,,,,,p,1,1.573,space,0.293,0,20,20,87,1,15_dist_green/trial13.png,,,1,15,greenverival,p,42,53,female,2021-03-02_09h26.20.781,exp11,2020.2.6,MacIntel,60,,,,,,,,,,,
,,,,,,,,,,,,,,p,1,1.772,space,0.504,0,21,21,56,1,9_dist_green/trial7.png,,,1,9,greenverival,p,42,53,female,2021-03-02_09h26.20.781,exp11,2020.2.6,MacIntel,60,,,,,,,,,,,
,,,,,,,,,,,,,,p,1,1.005,space,0.656,0,22,22,64,1,9_dist_green/trial15.png,,,1,9,greenverival,p,42,53,female,2021-03-02_09h26.20.781,exp11,2020.2.6,MacIntel,60,,,,,,,,,,,
,,,,,,,,,,,,,,a,1,1.035,space,0.427,0,23,23,126,1,0_targ_4_dist_green/trial2.png,,,0,4,greenverival,a,42,53,female,2021-03-02_09h26.20.781,exp11,2020.2.6,MacIntel,60,,,,,,,,,,,
,,,,,,,,,,,,,,a,1,0.956,space,0.434,0,24,24,128,1,0_targ_4_dist_green/trial4.png,,,0,4,greenverival,a,42,53,female,2021-03-02_09h26.20.781,exp11,2020.2.6,MacIntel,60,,,,,,,,,,,
,,,,,,,,,,,,,,a,1,0.837,space,0.5,0,25,25,125,1,0_targ_4_dist_green/trial1.png,,,0,4,greenverival,a,42,53,female,2021-03-02_09h26.20.781,exp11,2020.2.6,MacIntel,60,,,,,,,,,,,
,,,,,,,,,,,,,,p,1,1.206,space,0.69,0,26,26,96,1,15_dist_green/trial22.png,,,1,15,greenverival,p,42,53,female,2021-03-02_09h26.20.781,exp11,2020.2.6,MacIntel,60,,,,,,,,,,,
,,,,,,,,,,,,,,a,1,0.934,space,0.658,0,27,27,156,1,0_targ_10_dist_green/trial7.png,,,0,10,greenverival,a,42,53,female,2021-03-02_09h26.20.781,exp11,2020.2.6,MacIntel,60,,,,,,,,,,,
,,,,,,,,,,,,,,p,1,0.852,space,0.623,0,28,28,25,1,3_dist_green/trial1.png,,,1,3,greenverival,p,42,53,female,2021-03-02_09h26.20.781,exp11,2020.2.6,MacIntel,60,,,,,,,,,,,
,,,,,,,,,,,,,,p,1,1.32,space,0.601,0,29,29,94,1,15_dist_green/trial20.png,,,1,15,greenverival,p,42,53,female,2021-03-02_09h26.20.781,exp11,2020.2.6,MacIntel,60,,,,,,,,,,,
,,,,,,,,,,,,,,p,1,0.859,space,0.712,0,30,30,13,1,0_dist_green/trial14.png,,,1,0,greenverival,p,42,53,female,2021-03-02_09h26.20.781,exp11,2020.2.6,MacIntel,60,,,,,,,,,,,
,,,,,,,,,,,,,,p,1,1.077,space,0.444,0,31,31,6,1,0_dist_green/trial7.png,,,1,0,greenverival,p,42,53,female,2021-03-02_09h26.20.781,exp11,2020.2.6,MacIntel,60,,,,,,,,,,,
,,,,,,,,,,,,,,a,1,0.741,space,0.456,0,32,32,106,1,0_targ_1_dist_green/trial7.png,,,0,1,greenverival,a,42,53,female,2021-03-02_09h26.20.781,exp11,2020.2.6,MacIntel,60,,,,,,,,,,,
,,,,,,,,,,,,,,a,1,1.138,space,0.644,0,33,33,172,1,0_targ_10_dist_green/trial23.png,,,0,10,greenverival,a,42,53,female,2021-03-02_09h26.20.781,exp11,2020.2.6,MacIntel,60,,,,,,,,,,,
,,,,,,,,,,,,,,a,1,1.227,space,0.57,0,34,34,159,1,0_targ_10_dist_green/trial10.png,,,0,10,greenverival,a,42,53,female,2021-03-02_09h26.20.781,exp11,2020.2.6,MacIntel,60,,,,,,,,,,,
,,,,,,,,,,,,,,p,1,0.953,space,0.518,0,35,35,84,1,15_dist_green/trial10.png,,,1,15,greenverival,p,42,53,female,2021-03-02_09h26.20.781,exp11,2020.2.6,MacIntel,60,,,,,,,,,,,
,,,,,,,,,,,,,,a,1,0.853,space,0.525,0,36,36,101,1,0_targ_1_dist_green/trial2.png,,,0,1,greenverival,a,42,53,female,2021-03-02_09h26.20.781,exp11,2020.2.6,MacIntel,60,,,,,,,,,,,
,,,,,,,,,,,,,,p,1,1.011,space,0.524,0,37,37,55,1,9_dist_green/trial6.png,,,1,9,greenverival,p,42,53,female,2021-03-02_09h26.20.781,exp11,2020.2.6,MacIntel,60,,,,,,,,,,,
,,,,,,,,,,,,,,a,1,1.055,space,0.453,0,38,38,143,1,0_targ_4_dist_green/trial19.png,,,0,4,greenverival,a,42,53,female,2021-03-02_09h26.20.781,exp11,2020.2.6,MacIntel,60,,,,,,,,,,,
,,,,,,,,,,,,,,a,1,1.022,space,0.509,0,39,39,151,1,0_targ_10_dist_green/trial2.png,,,0,10,greenverival,a,42,53,female,2021-03-02_09h26.20.781,exp11,2020.2.6,MacIntel,60,,,,,,,,,,,
,,,,,,,,,,,,,,p,1,0.751,space,0.568,0,40,40,1,1,0_dist_green/trial2.png,,,1,0,greenverival,p,42,53,female,2021-03-02_09h26.20.781,exp11,2020.2.6,MacIntel,60,,,,,,,,,,,
,,,,,,,,,,,,,,a,1,0.808,space,0.472,0,41,41,141,1,0_targ_4_dist_green/trial17.png,,,0,4,greenverival,a,42,53,female,2021-03-02_09h26.20.781,exp11,2020.2.6,MacIntel,60,,,,,,,,,,,
,,,,,,,,,,,,,,a,1,0.986,space,0.534,0,42,42,166,1,0_targ_10_dist_green/trial17.png,,,0,10,greenverival,a,42,53,female,2021-03-02_09h26.20.781,exp11,2020.2.6,MacIntel,60,,,,,,,,,,,
,,,,,,,,,,,,,,p,1,0.736,space,0.569,0,43,43,44,1,3_dist_green/trial20.png,,,1,3,greenverival,p,42,53,female,2021-03-02_09h26.20.781,exp11,2020.2.6,MacIntel,60,,,,,,,,,,,
,,,,,,,,,,,,,,p,1,1.144,space,0.396,0,44,44,66,1,9_dist_green/trial17.png,,,1,9,greenverival,p,42,53,female,2021-03-02_09h26.20.781,exp11,2020.2.6,MacIntel,60,,,,,,,,,,,
,,,,,,,,,,,,,,a,1,0.891,space,0.491,0,45,45,180,1,0_targ_16_dist_green/trial6.png,,,0,16,greenverival,a,42,53,female,2021-03-02_09h26.20.781,exp11,2020.2.6,MacIntel,60,,,,,,,,,,,
,,,,,,,,,,,,,,p,1,0.853,space,0.526,0,46,46,83,1,15_dist_green/trial9.png,,,1,15,greenverival,p,42,53,female,2021-03-02_09h26.20.781,exp11,2020.2.6,MacIntel,60,,,,,,,,,,,
,,,,,,,,,,,,,,p,1,0.755,space,0.544,0,47,47,68,1,9_dist_green/trial19.png,,,1,9,greenverival,p,42,53,female,2021-03-02_09h26.20.781,exp11,2020.2.6,MacIntel,60,,,,,,,,,,,
,,,,,,,,,,,,,,p,1,0.67,space,0.495,0,48,48,14,1,0_dist_green/trial15.png,,,1,0,greenverival,p,42,53,female,2021-03-02_09h26.20.781,exp11,2020.2.6,MacIntel,60,,,,,,,,,,,
,,,,,,,,,,,,,,a,1,0.766,space,0.46,0,49,49,134,1,0_targ_4_dist_green/trial10.png,,,0,4,greenverival,a,42,53,female,2021-03-02_09h26.20.781,exp11,2020.2.6,MacIntel,60,,,,,,,,,,,
,,,,,,,,,,,,,,p,1,0.836,space,0.452,0,50,50,71,1,9_dist_green/trial22.png,,,1,9,greenverival,p,42,53,female,2021-03-02_09h26.20.781,exp11,2020.2.6,MacIntel,60,,,,,,,,,,,
,,,,,,,,,,,,,,a,1,1.491,space,0.387,0,51,51,192,1,0_targ_16_dist_green/trial18.png,,,0,16,greenverival,a,42,53,female,2021-03-02_09h26.20.781,exp11,2020.2.6,MacIntel,60,,,,,,,,,,,
,,,,,,,,,,,,,,a,1,0.84,space,0.462,0,52,52,174,1,0_targ_10_dist_green/trial25.png,,,0,10,greenverival,a,42,53,female,2021-03-02_09h26.20.781,exp11,2020.2.6,MacIntel,60,,,,,,,,,,,
,,,,,,,,,,,,,,p,1,0.677,space,0.468,0,53,53,36,1,3_dist_green/trial12.png,,,1,3,greenverival,p,42,53,female,2021-03-02_09h26.20.781,exp11,2020.2.6,MacIntel,60,,,,,,,,,,,
,,,,,,,,,,,,,,p,1,0.975,space,0.446,0,54,54,93,1,15_dist_green/trial19.png,,,1,15,greenverival,p,42,53,female,2021-03-02_09h26.20.781,exp11,2020.2.6,MacIntel,60,,,,,,,,,,,
,,,,,,,,,,,,,,a,1,1.076,space,0.435,0,55,55,187,1,0_targ_16_dist_green/trial13.png,,,0,16,greenverival,a,42,53,female,2021-03-02_09h26.20.781,exp11,2020.2.6,MacIntel,60,,,,,,,,,,,
,,,,,,,,,,,,,,p,1,0.707,space,0.553,0,56,56,52,1,9_dist_green/trial3.png,,,1,9,greenverival,p,42,53,female,2021-03-02_09h26.20.781,exp11,2020.2.6,MacIntel,60,,,,,,,,,,,
,,,,,,,,,,,,,,a,1,0.852,space,0.59,0,57,57,171,1,0_targ_10_dist_green/trial22.png,,,0,10,greenverival,a,42,53,female,2021-03-02_09h26.20.781,exp11,2020.2.6,MacIntel,60,,,,,,,,,,,
,,,,,,,,,,,,,,a,1,1.02,space,0.536,0,58,58,181,1,0_targ_16_dist_green/trial7.png,,,0,16,greenverival,a,42,53,female,2021-03-02_09h26.20.781,exp11,2020.2.6,MacIntel,60,,,,,,,,,,,
,,,,,,,,,,,,,,a,1,1.357,space,0.491,0,59,59,185,1,0_targ_16_dist_green/trial11.png,,,0,16,greenverival,a,42,53,female,2021-03-02_09h26.20.781,exp11,2020.2.6,MacIntel,60,,,,,,,,,,,
,,,,,,,,,,,,,,p,1,0.591,space,0.443,0,60,60,19,1,0_dist_green/trial20.png,,,1,0,greenverival,p,42,53,female,2021-03-02_09h26.20.781,exp11,2020.2.6,MacIntel,60,,,,,,,,,,,
,,,,,,,,,,,,,,p,1,0.855,space,0.395,0,61,61,54,1,9_dist_green/trial5.png,,,1,9,greenverival,p,42,53,female,2021-03-02_09h26.20.781,exp11,2020.2.6,MacIntel,60,,,,,,,,,,,
,,,,,,,,,,,,,,a,1,1.84,space,0.401,0,62,62,198,1,0_targ_16_dist_green/trial24.png,,,0,16,greenverival,a,42,53,female,2021-03-02_09h26.20.781,exp11,2020.2.6,MacIntel,60,,,,,,,,,,,
,,,,,,,,,,,,,,a,1,1.105,space,0.49,0,63,63,190,1,0_targ_16_dist_green/trial16.png,,,0,16,greenverival,a,42,53,female,2021-03-02_09h26.20.781,exp11,2020.2.6,MacIntel,60,,,,,,,,,,,
,,,,,,,,,,,,,,p,1,0.656,space,0.493,0,64,64,39,1,3_dist_green/trial15.png,,,1,3,greenverival,p,42,53,female,2021-03-02_09h26.20.781,exp11,2020.2.6,MacIntel,60,,,,,,,,,,,
,,,,,,,,,,,,,,p,1,0.67,space,0.404,0,65,65,4,1,0_dist_green/trial5.png,,,1,0,greenverival,p,42,53,female,2021-03-02_09h26.20.781,exp11,2020.2.6,MacIntel,60,,,,,,,,,,,
,,,,,,,,,,,,,,p,1,0.557,space,0.518,0,66,66,8,1,0_dist_green/trial9.png,,,1,0,greenverival,p,42,53,female,2021-03-02_09h26.20.781,exp11,2020.2.6,MacIntel,60,,,,,,,,,,,
,,,,,,,,,,,,,,p,1,0.769,space,0.536,0,67,67,32,1,3_dist_green/trial8.png,,,1,3,greenverival,p,42,53,female,2021-03-02_09h26.20.781,exp11,2020.2.6,MacIntel,60,,,,,,,,,,,
,,,,,,,,,,,,,,a,1,0.801,space,0.369,0,68,68,131,1,0_targ_4_dist_green/trial7.png,,,0,4,greenverival,a,42,53,female,2021-03-02_09h26.20.781,exp11,2020.2.6,MacIntel,60,,,,,,,,,,,
,,,,,,,,,,,,,,a,1,0.77,space,0.338,0,69,69,149,1,0_targ_4_dist_green/trial25.png,,,0,4,greenverival,a,42,53,female,2021-03-02_09h26.20.781,exp11,2020.2.6,MacIntel,60,,,,,,,,,,,
,,,,,,,,,,,,,,a,1,0.836,space,0.352,0,70,70,107,1,0_targ_1_dist_green/trial8.png,,,0,1,greenverival,a,42,53,female,2021-03-02_09h26.20.781,exp11,2020.2.6,MacIntel,60,,,,,,,,,,,
,,,,,,,,,,,,,,p,1,0.806,space,0.494,0,71,71,85,1,15_dist_green/trial11.png,,,1,15,greenverival,p,42,53,female,2021-03-02_09h26.20.781,exp11,2020.2.6,MacIntel,60,,,,,,,,,,,
,,,,,,,,,,,,,,p,1,0.688,space,0.407,0,72,72,37,1,3_dist_green/trial13.png,,,1,3,greenverival,p,42,53,female,2021-03-02_09h26.20.781,exp11,2020.2.6,MacIntel,60,,,,,,,,,,,
,,,,,,,,,,,,,,a,1,0.86,space,0.574,0,73,73,114,1,0_targ_1_dist_green/trial15.png,,,0,1,greenverival,a,42,53,female,2021-03-02_09h26.20.781,exp11,2020.2.6,MacIntel,60,,,,,,,,,,,
,,,,,,,,,,,,,,p,1,0.97,space,0.409,0,74,74,42,1,3_dist_green/trial18.png,,,1,3,greenverival,p,42,53,female,2021-03-02_09h26.20.781,exp11,2020.2.6,MacIntel,60,,,,,,,,,,,
,,,,,,,,,,,,,,a,1,0.807,space,0.444,0,75,75,146,1,0_targ_4_dist_green/trial22.png,,,0,4,greenverival,a,42,53,female,2021-03-02_09h26.20.781,exp11,2020.2.6,MacIntel,60,,,,,,,,,,,
,,,,,,,,,,,,,,a,1,0.774,space,0.386,0,76,76,142,1,0_targ_4_dist_green/trial18.png,,,0,4,greenverival,a,42,53,female,2021-03-02_09h26.20.781,exp11,2020.2.6,MacIntel,60,,,,,,,,,,,
,,,,,,,,,,,,,,p,1,0.667,space,0.407,0,77,77,58,1,9_dist_green/trial9.png,,,1,9,greenverival,p,42,53,female,2021-03-02_09h26.20.781,exp11,2020.2.6,MacIntel,60,,,,,,,,,,,
,,,,,,,,,,,,,,a,1,1.254,space,0.451,0,78,78,164,1,0_targ_10_dist_green/trial15.png,,,0,10,greenverival,a,42,53,female,2021-03-02_09h26.20.781,exp11,2020.2.6,MacIntel,60,,,,,,,,,,,
,,,,,,,,,,,,,,a,1,0.851,space,0.452,0,79,79,199,1,0_targ_16_dist_green/trial25.png,,,0,16,greenverival,a,42,53,female,2021-03-02_09h26.20.781,exp11,2020.2.6,MacIntel,60,,,,,,,,,,,
,,,,,,,,,,,,,,a,1,0.872,space,0.41,0,80,80,152,1,0_targ_10_dist_green/trial3.png,,,0,10,greenverival,a,42,53,female,2021-03-02_09h26.20.781,exp11,2020.2.6,MacIntel,60,,,,,,,,,,,
,,,,,,,,,,,,,,a,1,0.759,space,0.469,0,81,81,136,1,0_targ_4_dist_green/trial12.png,,,0,4,greenverival,a,42,53,female,2021-03-02_09h26.20.781,exp11,2020.2.6,MacIntel,60,,,,,,,,,,,
,,,,,,,,,,,,,,a,1,0.859,space,0.988,0,82,82,104,1,0_targ_1_dist_green/trial5.png,,,0,1,greenverival,a,42,53,female,2021-03-02_09h26.20.781,exp11,2020.2.6,MacIntel,60,,,,,,,,,,,
,,,,,,,,,,,,,,a,1,0.754,space,0.468,0,83,83,148,1,0_targ_4_dist_green/trial24.png,,,0,4,greenverival,a,42,53,female,2021-03-02_09h26.20.781,exp11,2020.2.6,MacIntel,60,,,,,,,,,,,
,,,,,,,,,,,,,,a,0,1.106,space,1.278,0,84,84,79,1,15_dist_green/trial5.png,,,1,15,greenverival,p,42,53,female,2021-03-02_09h26.20.781,exp11,2020.2.6,MacIntel,60,,,,,,,,,,,
,,,,,,,,,,,,,,p,1,0.856,space,0.433,0,85,85,10,1,0_dist_green/trial11.png,,,1,0,greenverival,p,42,53,female,2021-03-02_09h26.20.781,exp11,2020.2.6,MacIntel,60,,,,,,,,,,,
,,,,,,,,,,,,,,p,1,1.25,space,1.257,0,86,86,5,1,0_dist_green/trial6.png,,,1,0,greenverival,p,42,53,female,2021-03-02_09h26.20.781,exp11,2020.2.6,MacIntel,60,,,,,,,,,,,
,,,,,,,,,,,,,,a,1,1.523,space,0.573,0,87,87,179,1,0_targ_16_dist_green/trial5.png,,,0,16,greenverival,a,42,53,female,2021-03-02_09h26.20.781,exp11,2020.2.6,MacIntel,60,,,,,,,,,,,
,,,,,,,,,,,,,,p,1,0.606,space,0.377,0,88,88,38,1,3_dist_green/trial14.png,,,1,3,greenverival,p,42,53,female,2021-03-02_09h26.20.781,exp11,2020.2.6,MacIntel,60,,,,,,,,,,,
,,,,,,,,,,,,,,p,1,0.593,space,0.607,0,89,89,20,1,0_dist_green/trial21.png,,,1,0,greenverival,p,42,53,female,2021-03-02_09h26.20.781,exp11,2020.2.6,MacIntel,60,,,,,,,,,,,
,,,,,,,,,,,,,,a,1,1.34,space,0.46,0,90,90,130,1,0_targ_4_dist_green/trial6.png,,,0,4,greenverival,a,42,53,female,2021-03-02_09h26.20.781,exp11,2020.2.6,MacIntel,60,,,,,,,,,,,
,,,,,,,,,,,,,,p,1,0.742,space,0.705,0,91,91,97,1,15_dist_green/trial23.png,,,1,15,greenverival,p,42,53,female,2021-03-02_09h26.20.781,exp11,2020.2.6,MacIntel,60,,,,,,,,,,,
,,,,,,,,,,,,,,p,1,0.69,space,0.637,0,92,92,17,1,0_dist_green/trial18.png,,,1,0,greenverival,p,42,53,female,2021-03-02_09h26.20.781,exp11,2020.2.6,MacIntel,60,,,,,,,,,,,
,,,,,,,,,,,,,,a,1,0.789,space,0.51,0,93,93,102,1,0_targ_1_dist_green/trial3.png,,,0,1,greenverival,a,42,53,female,2021-03-02_09h26.20.781,exp11,2020.2.6,MacIntel,60,,,,,,,,,,,
,,,,,,,,,,,,,,p,1,0.805,space,0.525,0,94,94,95,1,15_dist_green/trial21.png,,,1,15,greenverival,p,42,53,female,2021-03-02_09h26.20.781,exp11,2020.2.6,MacIntel,60,,,,,,,,,,,
,,,,,,,,,,,,,,a,1,0.774,space,0.493,0,95,95,115,1,0_targ_1_dist_green/trial6.png,,,0,1,greenverival,a,42,53,female,2021-03-02_09h26.20.781,exp11,2020.2.6,MacIntel,60,,,,,,,,,,,
,,,,,,,,,,,,,,a,1,1.026,space,0.576,0,96,96,168,1,0_targ_10_dist_green/trial19.png,,,0,10,greenverival,a,42,53,female,2021-03-02_09h26.20.781,exp11,2020.2.6,MacIntel,60,,,,,,,,,,,
,,,,,,,,,,,,,,p,0,1.242,space,2.716,0,97,97,110,1,0_targ_1_dist_green/trial11.png,,,0,1,greenverival,a,42,53,female,2021-03-02_09h26.20.781,exp11,2020.2.6,MacIntel,60,,,,,,,,,,,
,,,,,,,,,,,,,,a,1,1.992,space,0.682,0,98,98,167,1,0_targ_10_dist_green/trial18.png,,,0,10,greenverival,a,42,53,female,2021-03-02_09h26.20.781,exp11,2020.2.6,MacIntel,60,,,,,,,,,,,
,,,,,,,,,,,,,,a,1,0.757,space,0.486,0,99,99,100,1,0_targ_1_dist_green/trial1.png,,,0,1,greenverival,a,42,53,female,2021-03-02_09h26.20.781,exp11,2020.2.6,MacIntel,60,,,,,,,,,,,
,,,,,,,,,,,,,,a,1,1.026,space,0.477,0,100,100,165,1,0_targ_10_dist_green/trial16.png,,,0,10,greenverival,a,42,53,female,2021-03-02_09h26.20.781,exp11,2020.2.6,MacIntel,60,,,,,,,,,,,
,,,,,,,,,,,,,,p,1,0.96,space,1.059,0,101,101,70,1,9_dist_green/trial21.png,,,1,9,greenverival,p,42,53,female,2021-03-02_09h26.20.781,exp11,2020.2.6,MacIntel,60,,,,,,,,,,,
,,,,,,,,,,,,,,p,1,0.903,space,0.691,0,102,102,86,1,15_dist_green/trial12.png,,,1,15,greenverival,p,42,53,female,2021-03-02_09h26.20.781,exp11,2020.2.6,MacIntel,60,,,,,,,,,,,
,,,,,,,,,,,,,,p,1,0.691,space,0.419,0,103,103,24,1,0_dist_green/trial25.png,,,1,0,greenverival,p,42,53,female,2021-03-02_09h26.20.781,exp11,2020.2.6,MacIntel,60,,,,,,,,,,,
,,,,,,,,,,,,,,a,1,1.51,space,0.669,0,104,104,195,1,0_targ_16_dist_green/trial21.png,,,0,16,greenverival,a,42,53,female,2021-03-02_09h26.20.781,exp11,2020.2.6,MacIntel,60,,,,,,,,,,,
,,,,,,,,,,,,,,a,1,1.335,space,0.486,0,105,105,183,1,0_targ_16_dist_green/trial9.png,,,0,16,greenverival,a,42,53,female,2021-03-02_09h26.20.781,exp11,2020.2.6,MacIntel,60,,,,,,,,,,,
,,,,,,,,,,,,,,p,0,3.325,space,0.223,0,106,106,121,1,0_targ_1_dist_green/trial22.png,,,0,1,greenverival,a,42,53,female,2021-03-02_09h26.20.781,exp11,2020.2.6,MacIntel,60,,,,,,,,,,,
,,,,,,,,,,,,,,p,1,1.074,space,1.648,0,107,107,43,1,3_dist_green/trial19.png,,,1,3,greenverival,p,42,53,female,2021-03-02_09h26.20.781,exp11,2020.2.6,MacIntel,60,,,,,,,,,,,
,,,,,,,,,,,,,,p,1,2.678,space,0.755,0,108,108,65,1,9_dist_green/trial16.png,,,1,9,greenverival,p,42,53,female,2021-03-02_09h26.20.781,exp11,2020.2.6,MacIntel,60,,,,,,,,,,,
,,,,,,,,,,,,,,p,1,0.657,space,0.745,0,109,109,0,1,0_dist_green/trial1.png,,,1,0,greenverival,p,42,53,female,2021-03-02_09h26.20.781,exp11,2020.2.6,MacIntel,60,,,,,,,,,,,
,,,,,,,,,,,,,,p,1,0.658,space,0.953,0,110,110,2,1,0_dist_green/trial3.png,,,1,0,greenverival,p,42,53,female,2021-03-02_09h26.20.781,exp11,2020.2.6,MacIntel,60,,,,,,,,,,,
,,,,,,,,,,,,,,p,1,0.807,space,0.685,0,111,111,47,1,3_dist_green/trial23.png,,,1,3,greenverival,p,42,53,female,2021-03-02_09h26.20.781,exp11,2020.2.6,MacIntel,60,,,,,,,,,,,
,,,,,,,,,,,,,,a,1,0.751,space,1.279,0,112,112,129,1,0_targ_4_dist_green/trial5.png,,,0,4,greenverival,a,42,53,female,2021-03-02_09h26.20.781,exp11,2020.2.6,MacIntel,60,,,,,,,,,,,
,,,,,,,,,,,,,,p,1,0.904,space,0.712,0,113,113,90,1,15_dist_green/trial16.png,,,1,15,greenverival,p,42,53,female,2021-03-02_09h26.20.781,exp11,2020.2.6,MacIntel,60,,,,,,,,,,,
,,,,,,,,,,,,,,a,1,1.46,space,0.992,0,114,114,145,1,0_targ_4_dist_green/trial21.png,,,0,4,greenverival,a,42,53,female,2021-03-02_09h26.20.781,exp11,2020.2.6,MacIntel,60,,,,,,,,,,,
,,,,,,,,,,,,,,p,1,0.755,space,0.44,0,115,115,29,1,3_dist_green/trial5.png,,,1,3,greenverival,p,42,53,female,2021-03-02_09h26.20.781,exp11,2020.2.6,MacIntel,60,,,,,,,,,,,
,,,,,,,,,,,,,,p,1,1.01,space,1.243,0,116,116,53,1,9_dist_green/trial4.png,,,1,9,greenverival,p,42,53,female,2021-03-02_09h26.20.781,exp11,2020.2.6,MacIntel,60,,,,,,,,,,,
,,,,,,,,,,,,,,p,1,1.204,space,0.435,0,117,117,51,1,9_dist_green/trial2.png,,,1,9,greenverival,p,42,53,female,2021-03-02_09h26.20.781,exp11,2020.2.6,MacIntel,60,,,,,,,,,,,
,,,,,,,,,,,,,,a,1,0.72,space,0.603,0,118,118,103,1,0_targ_1_dist_green/trial4.png,,,0,1,greenverival,a,42,53,female,2021-03-02_09h26.20.781,exp11,2020.2.6,MacIntel,60,,,,,,,,,,,
,,,,,,,,,,,,,,p,1,0.768,space,0.488,0,119,119,89,1,15_dist_green/trial15.png,,,1,15,greenverival,p,42,53,female,2021-03-02_09h26.20.781,exp11,2020.2.6,MacIntel,60,,,,,,,,,,,
,,,,,,,,,,,,,,a,1,0.887,space,0.504,0,120,120,160,1,0_targ_10_dist_green/trial11.png,,,0,10,greenverival,a,42,53,female,2021-03-02_09h26.20.781,exp11,2020.2.6,MacIntel,60,,,,,,,,,,,
,,,,,,,,,,,,,,p,1,0.809,space,0.455,0,121,121,31,1,3_dist_green/trial7.png,,,1,3,greenverival,p,42,53,female,2021-03-02_09h26.20.781,exp11,2020.2.6,MacIntel,60,,,,,,,,,,,
,,,,,,,,,,,,,,p,1,0.773,space,0.477,0,122,122,57,1,9_dist_green/trial8.png,,,1,9,greenverival,p,42,53,female,2021-03-02_09h26.20.781,exp11,2020.2.6,MacIntel,60,,,,,,,,,,,
,,,,,,,,,,,,,,p,1,0.639,space,0.536,0,123,123,18,1,0_dist_green/trial19.png,,,1,0,greenverival,p,42,53,female,2021-03-02_09h26.20.781,exp11,2020.2.6,MacIntel,60,,,,,,,,,,,
,,,,,,,,,,,,,,p,1,0.834,space,0.422,0,124,124,28,1,3_dist_green/trial4.png,,,1,3,greenverival,p,42,53,female,2021-03-02_09h26.20.781,exp11,2020.2.6,MacIntel,60,,,,,,,,,,,
,,,,,,,,,,,,,,a,1,2.591,space,0.436,0,125,125,197,1,0_targ_16_dist_green/trial23.png,,,0,16,greenverival,a,42,53,female,2021-03-02_09h26.20.781,exp11,2020.2.6,MacIntel,60,,,,,,,,,,,
,,,,,,,,,,,,,,a,1,1.086,space,0.342,0,126,126,144,1,0_targ_4_dist_green/trial20.png,,,0,4,greenverival,a,42,53,female,2021-03-02_09h26.20.781,exp11,2020.2.6,MacIntel,60,,,,,,,,,,,
,,,,,,,,,,,,,,p,1,0.858,space,0.287,0,127,127,26,1,3_dist_green/trial2.png,,,1,3,greenverival,p,42,53,female,2021-03-02_09h26.20.781,exp11,2020.2.6,MacIntel,60,,,,,,,,,,,
,,,,,,,,,,,,,,a,1,0.942,space,0.455,0,128,128,177,1,0_targ_16_dist_green/trial3.png,,,0,16,greenverival,a,42,53,female,2021-03-02_09h26.20.781,exp11,2020.2.6,MacIntel,60,,,,,,,,,,,
,,,,,,,,,,,,,,p,1,0.692,space,0.404,0,129,129,88,1,15_dist_green/trial14.png,,,1,15,greenverival,p,42,53,female,2021-03-02_09h26.20.781,exp11,2020.2.6,MacIntel,60,,,,,,,,,,,
,,,,,,,,,,,,,,p,1,0.92,space,0.433,0,130,130,81,1,15_dist_green/trial7.png,,,1,15,greenverival,p,42,53,female,2021-03-02_09h26.20.781,exp11,2020.2.6,MacIntel,60,,,,,,,,,,,
,,,,,,,,,,,,,,a,1,0.803,space,0.394,0,131,131,132,1,0_targ_4_dist_green/trial8.png,,,0,4,greenverival,a,42,53,female,2021-03-02_09h26.20.781,exp11,2020.2.6,MacIntel,60,,,,,,,,,,,
,,,,,,,,,,,,,,p,1,0.941,space,0.594,0,132,132,41,1,3_dist_green/trial17.png,,,1,3,greenverival,p,42,53,female,2021-03-02_09h26.20.781,exp11,2020.2.6,MacIntel,60,,,,,,,,,,,
,,,,,,,,,,,,,,a,1,2.042,space,0.668,0,133,133,119,1,0_targ_1_dist_green/trial20.png,,,0,1,greenverival,a,42,53,female,2021-03-02_09h26.20.781,exp11,2020.2.6,MacIntel,60,,,,,,,,,,,
,,,,,,,,,,,,,,a,1,1.257,space,0.418,0,134,134,169,1,0_targ_10_dist_green/trial20.png,,,0,10,greenverival,a,42,53,female,2021-03-02_09h26.20.781,exp11,2020.2.6,MacIntel,60,,,,,,,,,,,
,,,,,,,,,,,,,,a,1,1.123,space,0.418,0,135,135,173,1,0_targ_10_dist_green/trial24.png,,,0,10,greenverival,a,42,53,female,2021-03-02_09h26.20.781,exp11,2020.2.6,MacIntel,60,,,,,,,,,,,
,,,,,,,,,,,,,,a,1,1.276,space,0.601,0,136,136,154,1,0_targ_10_dist_green/trial5.png,,,0,10,greenverival,a,42,53,female,2021-03-02_09h26.20.781,exp11,2020.2.6,MacIntel,60,,,,,,,,,,,
,,,,,,,,,,,,,,p,1,0.767,space,0.41,0,137,137,69,1,9_dist_green/trial20.png,,,1,9,greenverival,p,42,53,female,2021-03-02_09h26.20.781,exp11,2020.2.6,MacIntel,60,,,,,,,,,,,
,,,,,,,,,,,,,,p,1,0.67,space,0.426,0,138,138,22,1,0_dist_green/trial23.png,,,1,0,greenverival,p,42,53,female,2021-03-02_09h26.20.781,exp11,2020.2.6,MacIntel,60,,,,,,,,,,,
,,,,,,,,,,,,,,p,1,0.908,space,0.335,0,139,139,46,1,3_dist_green/trial22.png,,,1,3,greenverival,p,42,53,female,2021-03-02_09h26.20.781,exp11,2020.2.6,MacIntel,60,,,,,,,,,,,
,,,,,,,,,,,,,,p,1,0.856,space,0.439,0,140,140,27,1,3_dist_green/trial3.png,,,1,3,greenverival,p,42,53,female,2021-03-02_09h26.20.781,exp11,2020.2.6,MacIntel,60,,,,,,,,,,,
,,,,,,,,,,,,,,a,1,2.171,space,0.504,0,141,141,133,1,0_targ_4_dist_green/trial9.png,,,0,4,greenverival,a,42,53,female,2021-03-02_09h26.20.781,exp11,2020.2.6,MacIntel,60,,,,,,,,,,,
,,,,,,,,,,,,,,p,1,0.634,space,0.352,0,142,142,3,1,0_dist_green/trial4.png,,,1,0,greenverival,p,42,53,female,2021-03-02_09h26.20.781,exp11,2020.2.6,MacIntel,60,,,,,,,,,,,
,,,,,,,,,,,,,,a,1,1.573,space,0.454,0,143,143,140,1,0_targ_4_dist_green/trial6.png,,,0,4,greenverival,a,42,53,female,2021-03-02_09h26.20.781,exp11,2020.2.6,MacIntel,60,,,,,,,,,,,
,,,,,,,,,,,,,,p,1,0.702,space,0.403,0,144,144,49,1,3_dist_green/trial25.png,,,1,3,greenverival,p,42,53,female,2021-03-02_09h26.20.781,exp11,2020.2.6,MacIntel,60,,,,,,,,,,,
,,,,,,,,,,,,,,a,1,1.134,space,0.439,0,145,145,196,1,0_targ_16_dist_green/trial22.png,,,0,16,greenverival,a,42,53,female,2021-03-02_09h26.20.781,exp11,2020.2.6,MacIntel,60,,,,,,,,,,,
,,,,,,,,,,,,,,a,1,0.852,space,0.604,0,146,146,147,1,0_targ_4_dist_green/trial23.png,,,0,4,greenverival,a,42,53,female,2021-03-02_09h26.20.781,exp11,2020.2.6,MacIntel,60,,,,,,,,,,,
,,,,,,,,,,,,,,a,1,1.427,space,0.437,0,147,147,188,1,0_targ_16_dist_green/trial14.png,,,0,16,greenverival,a,42,53,female,2021-03-02_09h26.20.781,exp11,2020.2.6,MacIntel,60,,,,,,,,,,,
,,,,,,,,,,,,,,a,0,1.403,space,0.357,0,148,148,76,1,15_dist_green/trial2.png,,,1,15,greenverival,p,42,53,female,2021-03-02_09h26.20.781,exp11,2020.2.6,MacIntel,60,,,,,,,,,,,
,,,,,,,,,,,,,,p,1,0.802,space,0.447,0,149,149,91,1,15_dist_green/trial17.png,,,1,15,greenverival,p,42,53,female,2021-03-02_09h26.20.781,exp11,2020.2.6,MacIntel,60,,,,,,,,,,,
,,,,,,,,,,,,,,p,1,0.624,space,0.411,0,150,150,33,1,3_dist_green/trial9.png,,,1,3,greenverival,p,42,53,female,2021-03-02_09h26.20.781,exp11,2020.2.6,MacIntel,60,,,,,,,,,,,
,,,,,,,,,,,,,,p,1,0.676,space,0.408,0,151,151,82,1,15_dist_green/trial8.png,,,1,15,greenverival,p,42,53,female,2021-03-02_09h26.20.781,exp11,2020.2.6,MacIntel,60,,,,,,,,,,,
,,,,,,,,,,,,,,p,1,0.588,space,0.509,0,152,152,67,1,9_dist_green/trial18.png,,,1,9,greenverival,p,42,53,female,2021-03-02_09h26.20.781,exp11,2020.2.6,MacIntel,60,,,,,,,,,,,
,,,,,,,,,,,,,,a,1,1.422,space,0.828,0,153,153,189,1,0_targ_16_dist_green/trial15.png,,,0,16,greenverival,a,42,53,female,2021-03-02_09h26.20.781,exp11,2020.2.6,MacIntel,60,,,,,,,,,,,
,,,,,,,,,,,,,,p,1,0.824,space,0.453,0,154,154,77,1,15_dist_green/trial3.png,,,1,15,greenverival,p,42,53,female,2021-03-02_09h26.20.781,exp11,2020.2.6,MacIntel,60,,,,,,,,,,,
,,,,,,,,,,,,,,p,1,0.653,space,0.358,0,155,155,48,1,3_dist_green/trial24.png,,,1,3,greenverival,p,42,53,female,2021-03-02_09h26.20.781,exp11,2020.2.6,MacIntel,60,,,,,,,,,,,
,,,,,,,,,,,,,,a,1,0.977,space,0.387,0,156,156,161,1,0_targ_10_dist_green/trial12.png,,,0,10,greenverival,a,42,53,female,2021-03-02_09h26.20.781,exp11,2020.2.6,MacIntel,60,,,,,,,,,,,
,,,,,,,,,,,,,,p,0,1.306,space,1.973,0,157,157,120,1,0_targ_1_dist_green/trial21.png,,,0,1,greenverival,a,42,53,female,2021-03-02_09h26.20.781,exp11,2020.2.6,MacIntel,60,,,,,,,,,,,
,,,,,,,,,,,,,,p,1,1.269,space,0.844,0,158,158,11,1,0_dist_green/trial12.png,,,1,0,greenverival,p,42,53,female,2021-03-02_09h26.20.781,exp11,2020.2.6,MacIntel,60,,,,,,,,,,,
,,,,,,,,,,,,,,a,1,1.085,space,0.456,0,159,159,175,1,0_targ_16_dist_green/trial1.png,,,0,16,greenverival,a,42,53,female,2021-03-02_09h26.20.781,exp11,2020.2.6,MacIntel,60,,,,,,,,,,,
,,,,,,,,,,,,,,a,1,0.803,space,0.492,0,160,160,163,1,0_targ_10_dist_green/trial14.png,,,0,10,greenverival,a,42,53,female,2021-03-02_09h26.20.781,exp11,2020.2.6,MacIntel,60,,,,,,,,,,,
,,,,,,,,,,,,,,p,1,2.095,space,0.439,0,161,161,9,1,0_dist_green/trial10.png,,,1,0,greenverival,p,42,53,female,2021-03-02_09h26.20.781,exp11,2020.2.6,MacIntel,60,,,,,,,,,,,
,,,,,,,,,,,,,,a,1,0.857,space,0.41,0,162,162,157,1,0_targ_10_dist_green/trial8.png,,,0,10,greenverival,a,42,53,female,2021-03-02_09h26.20.781,exp11,2020.2.6,MacIntel,60,,,,,,,,,,,
,,,,,,,,,,,,,,a,1,1.124,space,0.435,0,163,163,112,1,0_targ_1_dist_green/trial13.png,,,0,1,greenverival,a,42,53,female,2021-03-02_09h26.20.781,exp11,2020.2.6,MacIntel,60,,,,,,,,,,,
,,,,,,,,,,,,,,a,1,1.034,space,0.501,0,164,164,162,1,0_targ_10_dist_green/trial13.png,,,0,10,greenverival,a,42,53,female,2021-03-02_09h26.20.781,exp11,2020.2.6,MacIntel,60,,,,,,,,,,,
,,,,,,,,,,,,,,a,1,1.125,space,0.679,0,165,165,182,1,0_targ_16_dist_green/trial8.png,,,0,16,greenverival,a,42,53,female,2021-03-02_09h26.20.781,exp11,2020.2.6,MacIntel,60,,,,,,,,,,,
,,,,,,,,,,,,,,p,1,0.774,space,0.528,0,166,166,59,1,9_dist_green/trial10.png,,,1,9,greenverival,p,42,53,female,2021-03-02_09h26.20.781,exp11,2020.2.6,MacIntel,60,,,,,,,,,,,
,,,,,,,,,,,,,,p,1,0.986,space,0.425,0,167,167,40,1,3_dist_green/trial16.png,,,1,3,greenverival,p,42,53,female,2021-03-02_09h26.20.781,exp11,2020.2.6,MacIntel,60,,,,,,,,,,,
,,,,,,,,,,,,,,a,1,1.543,space,0.385,0,168,168,139,1,0_targ_4_dist_green/trial15.png,,,0,4,greenverival,a,42,53,female,2021-03-02_09h26.20.781,exp11,2020.2.6,MacIntel,60,,,,,,,,,,,
,,,,,,,,,,,,,,p,1,0.751,space,0.354,0,169,169,12,1,0_dist_green/trial13.png,,,1,0,greenverival,p,42,53,female,2021-03-02_09h26.20.781,exp11,2020.2.6,MacIntel,60,,,,,,,,,,,
,,,,,,,,,,,,,,p,1,1.059,space,0.455,0,170,170,75,1,15_dist_green/trial1.png,,,1,15,greenverival,p,42,53,female,2021-03-02_09h26.20.781,exp11,2020.2.6,MacIntel,60,,,,,,,,,,,
,,,,,,,,,,,,,,p,1,1.434,space,0.386,0,171,171,73,1,9_dist_green/trial24.png,,,1,9,greenverival,p,42,53,female,2021-03-02_09h26.20.781,exp11,2020.2.6,MacIntel,60,,,,,,,,,,,
,,,,,,,,,,,,,,p,1,1.341,space,0.451,0,172,172,72,1,9_dist_green/trial23.png,,,1,9,greenverival,p,42,53,female,2021-03-02_09h26.20.781,exp11,2020.2.6,MacIntel,60,,,,,,,,,,,
,,,,,,,,,,,,,,a,1,0.876,space,0.502,0,173,173,108,1,0_targ_1_dist_green/trial9.png,,,0,1,greenverival,a,42,53,female,2021-03-02_09h26.20.781,exp11,2020.2.6,MacIntel,60,,,,,,,,,,,
,,,,,,,,,,,,,,p,1,1.578,space,0.444,0,174,174,78,1,15_dist_green/trial4.png,,,1,15,greenverival,p,42,53,female,2021-03-02_09h26.20.781,exp11,2020.2.6,MacIntel,60,,,,,,,,,,,
,,,,,,,,,,,,,,a,1,1.185,space,0.453,0,175,175,186,1,0_targ_16_dist_green/trial12.png,,,0,16,greenverival,a,42,53,female,2021-03-02_09h26.20.781,exp11,2020.2.6,MacIntel,60,,,,,,,,,,,
,,,,,,,,,,,,,,a,1,0.91,space,0.419,0,176,176,184,1,0_targ_16_dist_green/trial10.png,,,0,16,greenverival,a,42,53,female,2021-03-02_09h26.20.781,exp11,2020.2.6,MacIntel,60,,,,,,,,,,,
,,,,,,,,,,,,,,a,1,0.966,space,0.586,0,177,177,155,1,0_targ_10_dist_green/trial6.png,,,0,10,greenverival,a,42,53,female,2021-03-02_09h26.20.781,exp11,2020.2.6,MacIntel,60,,,,,,,,,,,
,,,,,,,,,,,,,,a,1,1.04,space,0.523,0,178,178,111,1,0_targ_1_dist_green/trial12.png,,,0,1,greenverival,a,42,53,female,2021-03-02_09h26.20.781,exp11,2020.2.6,MacIntel,60,,,,,,,,,,,
,,,,,,,,,,,,,,a,1,0.821,space,0.438,0,179,179,137,1,0_targ_4_dist_green/trial13.png,,,0,4,greenverival,a,42,53,female,2021-03-02_09h26.20.781,exp11,2020.2.6,MacIntel,60,,,,,,,,,,,
,,,,,,,,,,,,,,a,1,1.208,space,0.49,0,180,180,150,1,0_targ_10_dist_green/trial1.png,,,0,10,greenverival,a,42,53,female,2021-03-02_09h26.20.781,exp11,2020.2.6,MacIntel,60,,,,,,,,,,,
,,,,,,,,,,,,,,a,1,0.738,space,0.478,0,181,181,105,1,0_targ_1_dist_green/trial6.png,,,0,1,greenverival,a,42,53,female,2021-03-02_09h26.20.781,exp11,2020.2.6,MacIntel,60,,,,,,,,,,,
,,,,,,,,,,,,,,a,1,1.321,space,0.522,0,182,182,178,1,0_targ_16_dist_green/trial4.png,,,0,16,greenverival,a,42,53,female,2021-03-02_09h26.20.781,exp11,2020.2.6,MacIntel,60,,,,,,,,,,,
,,,,,,,,,,,,,,p,1,0.722,space,0.419,0,183,183,74,1,9_dist_green/trial25.png,,,1,9,greenverival,p,42,53,female,2021-03-02_09h26.20.781,exp11,2020.2.6,MacIntel,60,,,,,,,,,,,
,,,,,,,,,,,,,,a,1,0.852,space,0.418,0,184,184,118,1,0_targ_1_dist_green/trial19.png,,,0,1,greenverival,a,42,53,female,2021-03-02_09h26.20.781,exp11,2020.2.6,MacIntel,60,,,,,,,,,,,
,,,,,,,,,,,,,,p,1,0.704,space,0.378,0,185,185,34,1,3_dist_green/trial10.png,,,1,3,greenverival,p,42,53,female,2021-03-02_09h26.20.781,exp11,2020.2.6,MacIntel,60,,,,,,,,,,,
,,,,,,,,,,,,,,p,1,0.637,space,0.419,0,186,186,21,1,0_dist_green/trial22.png,,,1,0,greenverival,p,42,53,female,2021-03-02_09h26.20.781,exp11,2020.2.6,MacIntel,60,,,,,,,,,,,
,,,,,,,,,,,,,,p,1,0.919,space,0.403,0,187,187,80,1,15_dist_green/trial6.png,,,1,15,greenverival,p,42,53,female,2021-03-02_09h26.20.781,exp11,2020.2.6,MacIntel,60,,,,,,,,,,,
,,,,,,,,,,,,,,a,1,1.522,space,0.371,0,188,188,135,1,0_targ_4_dist_green/trial11.png,,,0,4,greenverival,a,42,53,female,2021-03-02_09h26.20.781,exp11,2020.2.6,MacIntel,60,,,,,,,,,,,
,,,,,,,,,,,,,,p,1,0.673,space,0.318,0,189,189,15,1,0_dist_green/trial16.png,,,1,0,greenverival,p,42,53,female,2021-03-02_09h26.20.781,exp11,2020.2.6,MacIntel,60,,,,,,,,,,,
,,,,,,,,,,,,,,a,1,0.839,space,0.393,0,190,190,138,1,0_targ_4_dist_green/trial14.png,,,0,4,greenverival,a,42,53,female,2021-03-02_09h26.20.781,exp11,2020.2.6,MacIntel,60,,,,,,,,,,,
,,,,,,,,,,,,,,a,1,1.025,space,0.436,0,191,191,109,1,0_targ_1_dist_green/trial10.png,,,0,1,greenverival,a,42,53,female,2021-03-02_09h26.20.781,exp11,2020.2.6,MacIntel,60,,,,,,,,,,,
,,,,,,,,,,,,,,a,1,0.92,space,0.352,0,192,192,123,1,0_targ_1_dist_green/trial24.png,,,0,1,greenverival,a,42,53,female,2021-03-02_09h26.20.781,exp11,2020.2.6,MacIntel,60,,,,,,,,,,,
,,,,,,,,,,,,,,p,1,0.756,space,0.387,0,193,193,63,1,9_dist_green/trial14.png,,,1,9,greenverival,p,42,53,female,2021-03-02_09h26.20.781,exp11,2020.2.6,MacIntel,60,,,,,,,,,,,
,,,,,,,,,,,,,,a,1,0.821,space,0.342,0,194,194,127,1,0_targ_4_dist_green/trial3.png,,,0,4,greenverival,a,42,53,female,2021-03-02_09h26.20.781,exp11,2020.2.6,MacIntel,60,,,,,,,,,,,
,,,,,,,,,,,,,,a,1,0.903,space,0.524,0,195,195,113,1,0_targ_1_dist_green/trial14.png,,,0,1,greenverival,a,42,53,female,2021-03-02_09h26.20.781,exp11,2020.2.6,MacIntel,60,,,,,,,,,,,
,,,,,,,,,,,,,,a,1,0.727,space,0.518,0,196,196,116,1,0_targ_1_dist_green/trial17.png,,,0,1,greenverival,a,42,53,female,2021-03-02_09h26.20.781,exp11,2020.2.6,MacIntel,60,,,,,,,,,,,
,,,,,,,,,,,,,,a,1,0.959,space,0.441,0,197,197,117,1,0_targ_1_dist_green/trial18.png,,,0,1,greenverival,a,42,53,female,2021-03-02_09h26.20.781,exp11,2020.2.6,MacIntel,60,,,,,,,,,,,
,,,,,,,,,,,,,,p,1,0.826,space,0.485,0,198,198,99,1,15_dist_green/trial25.png,,,1,15,greenverival,p,42,53,female,2021-03-02_09h26.20.781,exp11,2020.2.6,MacIntel,60,,,,,,,,,,,
,,,,,,,,,,,,,,a,1,1.41,space,0.452,0,199,199,194,1,0_targ_16_dist_green/trial20.png,,,0,16,greenverival,a,42,53,female,2021-03-02_09h26.20.781,exp11,2020.2.6,MacIntel,60,,,,,,,,,,,
,,,,,,,,,,,,,,,,,,,,,,,,,,,,,,,42,53,female,2021-03-02_09h26.20.781,exp11,2020.2.6,MacIntel,60,0,0,0,0,1,conGreen.xlsx,green vertical,Look for green vertical bar (target) and indicate if it is present or absent in the array. If green vertical target is present press 'p' and if absent press 'a'. Press SPACE to start.,,,
,,,,,,,,,,space,13.747,space,4.709,a,1,3.479,space,2.562,0,0,0,188,1,0_targ_16_dist_red/trial14.png,,,0,16,redHorizontal,a,42,53,female,2021-03-02_09h26.20.781,exp11,2020.2.6,MacIntel,60,,,,,,,,,,,
,,,,,,,,,,,,,,p,1,1.304,space,0.523,0,1,1,83,1,15_dist_red/trial9.png,,,1,15,redHorizontal,p,42,53,female,2021-03-02_09h26.20.781,exp11,2020.2.6,MacIntel,60,,,,,,,,,,,
,,,,,,,,,,,,,,a,1,2.455,space,0.637,0,2,2,137,1,0_targ_4_dist_red/trial13.png,,,0,4,redHorizontal,a,42,53,female,2021-03-02_09h26.20.781,exp11,2020.2.6,MacIntel,60,,,,,,,,,,,
,,,,,,,,,,,,,,a,0,0.772,space,2.758,0,3,3,24,1,0_dist_red/trial25.png,,,1,0,redHorizontal,p,42,53,female,2021-03-02_09h26.20.781,exp11,2020.2.6,MacIntel,60,,,,,,,,,,,
,,,,,,,,,,,,,,p,1,1.176,space,0.484,0,4,4,2,1,0_dist_red/trial3.png,,,1,0,redHorizontal,p,42,53,female,2021-03-02_09h26.20.781,exp11,2020.2.6,MacIntel,60,,,,,,,,,,,
,,,,,,,,,,,,,,p,1,1.412,space,0.536,0,5,5,32,1,3_dist_red/trial8.png,,,1,3,redHorizontal,p,42,53,female,2021-03-02_09h26.20.781,exp11,2020.2.6,MacIntel,60,,,,,,,,,,,
,,,,,,,,,,,,,,p,1,0.942,space,0.427,0,6,6,18,1,0_dist_red/trial19.png,,,1,0,redHorizontal,p,42,53,female,2021-03-02_09h26.20.781,exp11,2020.2.6,MacIntel,60,,,,,,,,,,,
,,,,,,,,,,,,,,p,1,0.541,space,0.536,0,7,7,19,1,0_dist_red/trial20.png,,,1,0,redHorizontal,p,42,53,female,2021-03-02_09h26.20.781,exp11,2020.2.6,MacIntel,60,,,,,,,,,,,
,,,,,,,,,,,,,,a,1,1.374,space,0.509,0,8,8,161,1,0_targ_10_dist_red/trial12.png,,,0,10,redHorizontal,a,42,53,female,2021-03-02_09h26.20.781,exp11,2020.2.6,MacIntel,60,,,,,,,,,,,
,,,,,,,,,,,,,,a,1,1.094,space,0.387,0,9,9,183,1,0_targ_16_dist_red/trial9.png,,,0,16,redHorizontal,a,42,53,female,2021-03-02_09h26.20.781,exp11,2020.2.6,MacIntel,60,,,,,,,,,,,
,,,,,,,,,,,,,,a,1,0.76,space,0.637,0,10,10,177,1,0_targ_16_dist_red/trial3.png,,,0,16,redHorizontal,a,42,53,female,2021-03-02_09h26.20.781,exp11,2020.2.6,MacIntel,60,,,,,,,,,,,
,,,,,,,,,,,,,,a,1,1.126,space,0.574,0,11,11,197,1,0_targ_16_dist_red/trial23.png,,,0,16,redHorizontal,a,42,53,female,2021-03-02_09h26.20.781,exp11,2020.2.6,MacIntel,60,,,,,,,,,,,
,,,,,,,,,,,,,,p,1,0.791,space,0.436,0,12,12,23,1,0_dist_red/trial24.png,,,1,0,redHorizontal,p,42,53,female,2021-03-02_09h26.20.781,exp11,2020.2.6,MacIntel,60,,,,,,,,,,,
,,,,,,,,,,,,,,a,1,1.538,space,0.402,0,13,13,154,1,0_targ_10_dist_red/trial5.png,,,0,10,redHorizontal,a,42,53,female,2021-03-02_09h26.20.781,exp11,2020.2.6,MacIntel,60,,,,,,,,,,,
,,,,,,,,,,,,,,a,1,0.708,space,0.452,0,14,14,149,1,0_targ_4_dist_red/trial25.png,,,0,4,redHorizontal,a,42,53,female,2021-03-02_09h26.20.781,exp11,2020.2.6,MacIntel,60,,,,,,,,,,,
,,,,,,,,,,,,,,a,1,1.104,space,0.386,0,15,15,119,1,0_targ_1_dist_red/trial20.png,,,0,1,redHorizontal,a,42,53,female,2021-03-02_09h26.20.781,exp11,2020.2.6,MacIntel,60,,,,,,,,,,,
,,,,,,,,,,,,,,p,1,0.834,space,0.404,0,16,16,76,1,15_dist_red/trial2.png,,,1,15,redHorizontal,p,42,53,female,2021-03-02_09h26.20.781,exp11,2020.2.6,MacIntel,60,,,,,,,,,,,
,,,,,,,,,,,,,,a,1,0.955,space,0.36,0,17,17,190,1,0_targ_16_dist_red/trial16.png,,,0,16,redHorizontal,a,42,53,female,2021-03-02_09h26.20.781,exp11,2020.2.6,MacIntel,60,,,,,,,,,,,
,,,,,,,,,,,,,,p,1,0.702,space,0.354,0,18,18,87,1,15_dist_red/trial13.png,,,1,15,redHorizontal,p,42,53,female,2021-03-02_09h26.20.781,exp11,2020.2.6,MacIntel,60,,,,,,,,,,,
,,,,,,,,,,,,,,p,1,0.682,space,0.535,0,19,19,14,1,0_dist_red/trial15.png,,,1,0,redHorizontal,p,42,53,female,2021-03-02_09h26.20.781,exp11,2020.2.6,MacIntel,60,,,,,,,,,,,
,,,,,,,,,,,,,,p,1,1.644,space,0.439,0,20,20,74,1,9_dist_red/trial25.png,,,1,9,redHorizontal,p,42,53,female,2021-03-02_09h26.20.781,exp11,2020.2.6,MacIntel,60,,,,,,,,,,,
,,,,,,,,,,,,,,a,1,1.338,space,0.393,0,21,21,174,1,0_targ_10_dist_red/trial25.png,,,0,10,redHorizontal,a,42,53,female,2021-03-02_09h26.20.781,exp11,2020.2.6,MacIntel,60,,,,,,,,,,,
,,,,,,,,,,,,,,a,1,1.035,space,0.3,0,22,22,176,1,0_targ_16_dist_red/trial2.png,,,0,16,redHorizontal,a,42,53,female,2021-03-02_09h26.20.781,exp11,2020.2.6,MacIntel,60,,,,,,,,,,,
,,,,,,,,,,,,,,p,1,0.793,space,0.356,0,23,23,92,1,15_dist_red/trial18.png,,,1,15,redHorizontal,p,42,53,female,2021-03-02_09h26.20.781,exp11,2020.2.6,MacIntel,60,,,,,,,,,,,
,,,,,,,,,,,,,,p,1,0.721,space,0.36,0,24,24,21,1,0_dist_red/trial22.png,,,1,0,redHorizontal,p,42,53,female,2021-03-02_09h26.20.781,exp11,2020.2.6,MacIntel,60,,,,,,,,,,,
,,,,,,,,,,,,,,a,1,2.894,space,0.318,0,25,25,193,1,0_targ_16_dist_red/trial19.png,,,0,16,redHorizontal,a,42,53,female,2021-03-02_09h26.20.781,exp11,2020.2.6,MacIntel,60,,,,,,,,,,,
,,,,,,,,,,,,,,a,1,0.736,space,0.385,0,26,26,173,1,0_targ_10_dist_red/trial24.png,,,0,10,redHorizontal,a,42,53,female,2021-03-02_09h26.20.781,exp11,2020.2.6,MacIntel,60,,,,,,,,,,,
,,,,,,,,,,,,,,p,1,0.669,space,0.402,0,27,27,1,1,0_dist_red/trial2.png,,,1,0,redHorizontal,p,42,53,female,2021-03-02_09h26.20.781,exp11,2020.2.6,MacIntel,60,,,,,,,,,,,
,,,,,,,,,,,,,,p,1,1.622,space,0.386,0,28,28,72,1,9_dist_red/trial23.png,,,1,9,redHorizontal,p,42,53,female,2021-03-02_09h26.20.781,exp11,2020.2.6,MacIntel,60,,,,,,,,,,,
,,,,,,,,,,,,,,a,1,0.807,space,0.909,0,29,29,165,1,0_targ_10_dist_red/trial16.png,,,0,10,redHorizontal,a,42,53,female,2021-03-02_09h26.20.781,exp11,2020.2.6,MacIntel,60,,,,,,,,,,,
,,,,,,,,,,,,,,a,1,1.272,space,0.357,0,30,30,123,1,0_targ_1_dist_red/trial24.png,,,0,1,redHorizontal,a,42,53,female,2021-03-02_09h26.20.781,exp11,2020.2.6,MacIntel,60,,,,,,,,,,,
,,,,,,,,,,,,,,p,1,1.607,space,0.418,0,31,31,55,1,9_dist_red/trial6.png,,,1,9,redHorizontal,p,42,53,female,2021-03-02_09h26.20.781,exp11,2020.2.6,MacIntel,60,,,,,,,,,,,
,,,,,,,,,,,,,,a,1,0.808,space,0.455,0,32,32,135,1,0_targ_4_dist_red/trial11.png,,,0,4,redHorizontal,a,42,53,female,2021-03-02_09h26.20.781,exp11,2020.2.6,MacIntel,60,,,,,,,,,,,
,,,,,,,,,,,,,,a,1,0.737,space,0.468,0,33,33,160,1,0_targ_10_dist_red/trial11.png,,,0,10,redHorizontal,a,42,53,female,2021-03-02_09h26.20.781,exp11,2020.2.6,MacIntel,60,,,,,,,,,,,
,,,,,,,,,,,,,,p,1,1.136,space,0.384,0,34,34,80,1,15_dist_red/trial6.png,,,1,15,redHorizontal,p,42,53,female,2021-03-02_09h26.20.781,exp11,2020.2.6,MacIntel,60,,,,,,,,,,,
,,,,,,,,,,,,,,p,1,0.676,space,0.434,0,35,35,7,1,0_dist_red/trial8.png,,,1,0,redHorizontal,p,42,53,female,2021-03-02_09h26.20.781,exp11,2020.2.6,MacIntel,60,,,,,,,,,,,
,,,,,,,,,,,,,,a,1,0.876,space,0.354,0,36,36,127,1,0_targ_4_dist_red/trial3.png,,,0,4,redHorizontal,a,42,53,female,2021-03-02_09h26.20.781,exp11,2020.2.6,MacIntel,60,,,,,,,,,,,
,,,,,,,,,,,,,,p,1,0.887,space,0.422,0,37,37,96,1,15_dist_red/trial22.png,,,1,15,redHorizontal,p,42,53,female,2021-03-02_09h26.20.781,exp11,2020.2.6,MacIntel,60,,,,,,,,,,,
,,,,,,,,,,,,,,p,1,1.543,space,0.36,0,38,38,11,1,0_dist_red/trial12.png,,,1,0,redHorizontal,p,42,53,female,2021-03-02_09h26.20.781,exp11,2020.2.6,MacIntel,60,,,,,,,,,,,
,,,,,,,,,,,,,,p,1,0.942,space,0.423,0,39,39,90,1,15_dist_red/trial16.png,,,1,15,redHorizontal,p,42,53,female,2021-03-02_09h26.20.781,exp11,2020.2.6,MacIntel,60,,,,,,,,,,,
,,,,,,,,,,,,,,p,1,0.719,space,0.385,0,40,40,82,1,15_dist_red/trial8.png,,,1,15,redHorizontal,p,42,53,female,2021-03-02_09h26.20.781,exp11,2020.2.6,MacIntel,60,,,,,,,,,,,
,,,,,,,,,,,,,,a,1,0.907,space,0.384,0,41,41,146,1,0_targ_4_dist_red/trial22.png,,,0,4,redHorizontal,a,42,53,female,2021-03-02_09h26.20.781,exp11,2020.2.6,MacIntel,60,,,,,,,,,,,
,,,,,,,,,,,,,,a,1,0.841,space,0.394,0,42,42,168,1,0_targ_10_dist_red/trial19.png,,,0,10,redHorizontal,a,42,53,female,2021-03-02_09h26.20.781,exp11,2020.2.6,MacIntel,60,,,,,,,,,,,
,,,,,,,,,,,,,,a,1,1.191,space,1.296,0,43,43,113,1,0_targ_1_dist_red/trial14.png,,,0,1,redHorizontal,a,42,53,female,2021-03-02_09h26.20.781,exp11,2020.2.6,MacIntel,60,,,,,,,,,,,
,,,,,,,,,,,,,,a,1,2.345,space,0.434,0,44,44,182,1,0_targ_16_dist_red/trial8.png,,,0,16,redHorizontal,a,42,53,female,2021-03-02_09h26.20.781,exp11,2020.2.6,MacIntel,60,,,,,,,,,,,
,,,,,,,,,,,,,,a,1,0.704,space,0.283,0,45,45,147,1,0_targ_4_dist_red/trial23.png,,,0,4,redHorizontal,a,42,53,female,2021-03-02_09h26.20.781,exp11,2020.2.6,MacIntel,60,,,,,,,,,,,
,,,,,,,,,,,,,,a,1,0.638,space,0.288,0,46,46,103,1,0_targ_1_dist_red/trial4.png,,,0,1,redHorizontal,a,42,53,female,2021-03-02_09h26.20.781,exp11,2020.2.6,MacIntel,60,,,,,,,,,,,
,,,,,,,,,,,,,,a,1,0.656,space,0.275,0,47,47,150,1,0_targ_10_dist_red/trial1.png,,,0,10,redHorizontal,a,42,53,female,2021-03-02_09h26.20.781,exp11,2020.2.6,MacIntel,60,,,,,,,,,,,
,,,,,,,,,,,,,,a,0,0.709,space,1.646,0,48,48,69,1,9_dist_red/trial20.png,,,1,9,redHorizontal,p,42,53,female,2021-03-02_09h26.20.781,exp11,2020.2.6,MacIntel,60,,,,,,,,,,,
,,,,,,,,,,,,,,a,1,1.289,space,0.399,0,49,49,120,1,0_targ_1_dist_red/trial21.png,,,0,1,redHorizontal,a,42,53,female,2021-03-02_09h26.20.781,exp11,2020.2.6,MacIntel,60,,,,,,,,,,,
,,,,,,,,,,,,,,p,1,0.705,space,0.31,0,50,50,38,1,3_dist_red/trial14.png,,,1,3,redHorizontal,p,42,53,female,2021-03-02_09h26.20.781,exp11,2020.2.6,MacIntel,60,,,,,,,,,,,
,,,,,,,,,,,,,,p,1,0.641,space,0.319,0,51,51,4,1,0_dist_red/trial5.png,,,1,0,redHorizontal,p,42,53,female,2021-03-02_09h26.20.781,exp11,2020.2.6,MacIntel,60,,,,,,,,,,,
,,,,,,,,,,,,,,p,1,0.641,space,0.304,0,52,52,58,1,9_dist_red/trial9.png,,,1,9,redHorizontal,p,42,53,female,2021-03-02_09h26.20.781,exp11,2020.2.6,MacIntel,60,,,,,,,,,,,
,,,,,,,,,,,,,,a,1,0.719,space,0.258,0,53,53,134,1,0_targ_4_dist_red/trial10.png,,,0,4,redHorizontal,a,42,53,female,2021-03-02_09h26.20.781,exp11,2020.2.6,MacIntel,60,,,,,,,,,,,
,,,,,,,,,,,,,,p,1,1.522,space,0.307,0,54,54,40,1,3_dist_red/trial16.png,,,1,3,redHorizontal,p,42,53,female,2021-03-02_09h26.20.781,exp11,2020.2.6,MacIntel,60,,,,,,,,,,,
,,,,,,,,,,,,,,a,1,1.193,space,0.257,0,55,55,109,1,0_targ_1_dist_red/trial10.png,,,0,1,redHorizontal,a,42,53,female,2021-03-02_09h26.20.781,exp11,2020.2.6,MacIntel,60,,,,,,,,,,,
,,,,,,,,,,,,,,a,1,1.593,space,0.434,0,56,56,195,1,0_targ_16_dist_red/trial21.png,,,0,16,redHorizontal,a,42,53,female,2021-03-02_09h26.20.781,exp11,2020.2.6,MacIntel,60,,,,,,,,,,,
,,,,,,,,,,,,,,p,1,0.643,space,0.34,0,57,57,9,1,0_dist_red/trial10.png,,,1,0,redHorizontal,p,42,53,female,2021-03-02_09h26.20.781,exp11,2020.2.6,MacIntel,60,,,,,,,,,,,
,,,,,,,,,,,,,,p,1,0.64,space,0.386,0,58,58,12,1,0_dist_red/trial13.png,,,1,0,redHorizontal,p,42,53,female,2021-03-02_09h26.20.781,exp11,2020.2.6,MacIntel,60,,,,,,,,,,,
,,,,,,,,,,,,,,p,1,1.108,space,0.451,0,59,59,66,1,9_dist_red/trial17.png,,,1,9,redHorizontal,p,42,53,female,2021-03-02_09h26.20.781,exp11,2020.2.6,MacIntel,60,,,,,,,,,,,
,,,,,,,,,,,,,,a,1,1.091,space,0.309,0,60,60,125,1,0_targ_4_dist_red/trial1.png,,,0,4,redHorizontal,a,42,53,female,2021-03-02_09h26.20.781,exp11,2020.2.6,MacIntel,60,,,,,,,,,,,
,,,,,,,,,,,,,,a,1,0.743,space,0.358,0,61,61,153,1,0_targ_10_dist_red/trial4.png,,,0,10,redHorizontal,a,42,53,female,2021-03-02_09h26.20.781,exp11,2020.2.6,MacIntel,60,,,,,,,,,,,
,,,,,,,,,,,,,,p,0,0.769,space,1.637,0,62,62,121,1,0_targ_1_dist_red/trial22.png,,,0,1,redHorizontal,a,42,53,female,2021-03-02_09h26.20.781,exp11,2020.2.6,MacIntel,60,,,,,,,,,,,
,,,,,,,,,,,,,,a,1,0.802,space,1.011,0,63,63,162,1,0_targ_10_dist_red/trial13.png,,,0,10,redHorizontal,a,42,53,female,2021-03-02_09h26.20.781,exp11,2020.2.6,MacIntel,60,,,,,,,,,,,
,,,,,,,,,,,,,,p,1,0.907,space,0.407,0,64,64,50,1,9_dist_red/trial1.png,,,1,9,redHorizontal,p,42,53,female,2021-03-02_09h26.20.781,exp11,2020.2.6,MacIntel,60,,,,,,,,,,,
,,,,,,,,,,,,,,a,1,0.809,space,0.357,0,65,65,156,1,0_targ_10_dist_red/trial7.png,,,0,10,redHorizontal,a,42,53,female,2021-03-02_09h26.20.781,exp11,2020.2.6,MacIntel,60,,,,,,,,,,,
,,,,,,,,,,,,,,a,1,1.66,space,0.352,0,66,66,171,1,0_targ_10_dist_red/trial22.png,,,0,10,redHorizontal,a,42,53,female,2021-03-02_09h26.20.781,exp11,2020.2.6,MacIntel,60,,,,,,,,,,,
,,,,,,,,,,,,,,a,1,0.701,space,0.372,0,67,67,101,1,0_targ_1_dist_red/trial2.png,,,0,1,redHorizontal,a,42,53,female,2021-03-02_09h26.20.781,exp11,2020.2.6,MacIntel,60,,,,,,,,,,,
,,,,,,,,,,,,,,p,1,0.688,space,0.37,0,68,68,91,1,15_dist_red/trial17.png,,,1,15,redHorizontal,p,42,53,female,2021-03-02_09h26.20.781,exp11,2020.2.6,MacIntel,60,,,,,,,,,,,
,,,,,,,,,,,,,,a,1,0.801,space,0.451,0,69,69,178,1,0_targ_16_dist_red/trial4.png,,,0,16,redHorizontal,a,42,53,female,2021-03-02_09h26.20.781,exp11,2020.2.6,MacIntel,60,,,,,,,,,,,
,,,,,,,,,,,,,,a,1,0.772,space,0.451,0,70,70,185,1,0_targ_16_dist_red/trial11.png,,,0,16,redHorizontal,a,42,53,female,2021-03-02_09h26.20.781,exp11,2020.2.6,MacIntel,60,,,,,,,,,,,
,,,,,,,,,,,,,,a,1,0.72,space,0.355,0,71,71,145,1,0_targ_4_dist_red/trial21.png,,,0,4,redHorizontal,a,42,53,female,2021-03-02_09h26.20.781,exp11,2020.2.6,MacIntel,60,,,,,,,,,,,
,,,,,,,,,,,,,,a,1,0.623,space,0.409,0,72,72,138,1,0_targ_4_dist_red/trial14.png,,,0,4,redHorizontal,a,42,53,female,2021-03-02_09h26.20.781,exp11,2020.2.6,MacIntel,60,,,,,,,,,,,
,,,,,,,,,,,,,,p,1,0.752,space,0.375,0,73,73,77,1,15_dist_red/trial3.png,,,1,15,redHorizontal,p,42,53,female,2021-03-02_09h26.20.781,exp11,2020.2.6,MacIntel,60,,,,,,,,,,,
,,,,,,,,,,,,,,a,1,0.823,space,0.437,0,74,74,108,1,0_targ_1_dist_red/trial9.png,,,0,1,redHorizontal,a,42,53,female,2021-03-02_09h26.20.781,exp11,2020.2.6,MacIntel,60,,,,,,,,,,,
,,,,,,,,,,,,,,p,1,0.893,space,0.383,0,75,75,75,1,15_dist_red/trial1.png,,,1,15,redHorizontal,p,42,53,female,2021-03-02_09h26.20.781,exp11,2020.2.6,MacIntel,60,,,,,,,,,,,
,,,,,,,,,,,,,,p,1,0.969,space,0.39,0,76,76,29,1,3_dist_red/trial5.png,,,1,3,redHorizontal,p,42,53,female,2021-03-02_09h26.20.781,exp11,2020.2.6,MacIntel,60,,,,,,,,,,,
,,,,,,,,,,,,,,p,1,0.843,space,0.377,0,77,77,34,1,3_dist_red/trial10.png,,,1,3,redHorizontal,p,42,53,female,2021-03-02_09h26.20.781,exp11,2020.2.6,MacIntel,60,,,,,,,,,,,
,,,,,,,,,,,,,,a,1,0.792,space,0.361,0,78,78,102,1,0_targ_1_dist_red/trial3.png,,,0,1,redHorizontal,a,42,53,female,2021-03-02_09h26.20.781,exp11,2020.2.6,MacIntel,60,,,,,,,,,,,
,,,,,,,,,,,,,,a,1,1.411,space,0.411,0,79,79,180,1,0_targ_16_dist_red/trial6.png,,,0,16,redHorizontal,a,42,53,female,2021-03-02_09h26.20.781,exp11,2020.2.6,MacIntel,60,,,,,,,,,,,
,,,,,,,,,,,,,,p,1,0.637,space,0.375,0,80,80,15,1,0_dist_red/trial16.png,,,1,0,redHorizontal,p,42,53,female,2021-03-02_09h26.20.781,exp11,2020.2.6,MacIntel,60,,,,,,,,,,,
,,,,,,,,,,,,,,p,1,1.423,space,0.404,0,81,81,59,1,9_dist_red/trial10.png,,,1,9,redHorizontal,p,42,53,female,2021-03-02_09h26.20.781,exp11,2020.2.6,MacIntel,60,,,,,,,,,,,
,,,,,,,,,,,,,,p,1,1.053,space,0.318,0,82,82,61,1,9_dist_red/trial12.png,,,1,9,redHorizontal,p,42,53,female,2021-03-02_09h26.20.781,exp11,2020.2.6,MacIntel,60,,,,,,,,,,,
,,,,,,,,,,,,,,p,1,0.673,space,0.352,0,83,83,27,1,3_dist_red/trial3.png,,,1,3,redHorizontal,p,42,53,female,2021-03-02_09h26.20.781,exp11,2020.2.6,MacIntel,60,,,,,,,,,,,
,,,,,,,,,,,,,,a,0,1.393,space,0.674,0,84,84,84,1,15_dist_red/trial10.png,,,1,15,redHorizontal,p,42,53,female,2021-03-02_09h26.20.781,exp11,2020.2.6,MacIntel,60,,,,,,,,,,,
,,,,,,,,,,,,,,a,1,2.556,space,0.53,0,85,85,155,1,0_targ_10_dist_red/trial6.png,,,0,10,redHorizontal,a,42,53,female,2021-03-02_09h26.20.781,exp11,2020.2.6,MacIntel,60,,,,,,,,,,,
,,,,,,,,,,,,,,a,1,0.624,space,0.474,0,86,86,139,1,0_targ_4_dist_red/trial15.png,,,0,4,redHorizontal,a,42,53,female,2021-03-02_09h26.20.781,exp11,2020.2.6,MacIntel,60,,,,,,,,,,,
,,,,,,,,,,,,,,p,1,0.772,space,0.372,0,87,87,65,1,9_dist_red/trial16.png,,,1,9,redHorizontal,p,42,53,female,2021-03-02_09h26.20.781,exp11,2020.2.6,MacIntel,60,,,,,,,,,,,
,,,,,,,,,,,,,,p,1,0.571,space,0.368,0,88,88,5,1,0_dist_red/trial6.png,,,1,0,redHorizontal,p,42,53,female,2021-03-02_09h26.20.781,exp11,2020.2.6,MacIntel,60,,,,,,,,,,,
,,,,,,,,,,,,,,p,1,1.355,space,0.301,0,89,89,31,1,3_dist_red/trial7.png,,,1,3,redHorizontal,p,42,53,female,2021-03-02_09h26.20.781,exp11,2020.2.6,MacIntel,60,,,,,,,,,,,
,,,,,,,,,,,,,,p,1,0.602,space,0.359,0,90,90,6,1,0_dist_red/trial7.png,,,1,0,redHorizontal,p,42,53,female,2021-03-02_09h26.20.781,exp11,2020.2.6,MacIntel,60,,,,,,,,,,,
,,,,,,,,,,,,,,p,1,0.755,space,0.324,0,91,91,36,1,3_dist_red/trial12.png,,,1,3,redHorizontal,p,42,53,female,2021-03-02_09h26.20.781,exp11,2020.2.6,MacIntel,60,,,,,,,,,,,
,,,,,,,,,,,,,,a,1,1.394,space,0.305,0,92,92,157,1,0_targ_10_dist_red/trial8.png,,,0,10,redHorizontal,a,42,53,female,2021-03-02_09h26.20.781,exp11,2020.2.6,MacIntel,60,,,,,,,,,,,
,,,,,,,,,,,,,,a,1,1.442,space,0.194,0,93,93,198,1,0_targ_16_dist_red/trial24.png,,,0,16,redHorizontal,a,42,53,female,2021-03-02_09h26.20.781,exp11,2020.2.6,MacIntel,60,,,,,,,,,,,
,,,,,,,,,,,,,,a,1,1.028,space,0.207,0,94,94,115,1,0_targ_1_dist_red/trial6.png,,,0,1,redHorizontal,a,42,53,female,2021-03-02_09h26.20.781,exp11,2020.2.6,MacIntel,60,,,,,,,,,,,
,,,,,,,,,,,,,,a,1,1.453,space,0.216,0,95,95,184,1,0_targ_16_dist_red/trial10.png,,,0,16,redHorizontal,a,42,53,female,2021-03-02_09h26.20.781,exp11,2020.2.6,MacIntel,60,,,,,,,,,,,
,,,,,,,,,,,,,,a,1,0.806,space,0.204,0,96,96,142,1,0_targ_4_dist_red/trial18.png,,,0,4,redHorizontal,a,42,53,female,2021-03-02_09h26.20.781,exp11,2020.2.6,MacIntel,60,,,,,,,,,,,
,,,,,,,,,,,,,,a,1,0.825,space,0.224,0,97,97,167,1,0_targ_10_dist_red/trial18.png,,,0,10,redHorizontal,a,42,53,female,2021-03-02_09h26.20.781,exp11,2020.2.6,MacIntel,60,,,,,,,,,,,
,,,,,,,,,,,,,,a,1,0.869,space,0.201,0,98,98,169,1,0_targ_10_dist_red/trial20.png,,,0,10,redHorizontal,a,42,53,female,2021-03-02_09h26.20.781,exp11,2020.2.6,MacIntel,60,,,,,,,,,,,
,,,,,,,,,,,,,,p,1,1.172,space,0.252,0,99,99,94,1,15_dist_red/trial20.png,,,1,15,redHorizontal,p,42,53,female,2021-03-02_09h26.20.781,exp11,2020.2.6,MacIntel,60,,,,,,,,,,,
,,,,,,,,,,,,,,a,1,1.137,space,0.185,0,100,100,118,1,0_targ_1_dist_red/trial19.png,,,0,1,redHorizontal,a,42,53,female,2021-03-02_09h26.20.781,exp11,2020.2.6,MacIntel,60,,,,,,,,,,,
,,,,,,,,,,,,,,p,1,0.705,space,0.284,0,101,101,28,1,3_dist_red/trial4.png,,,1,3,redHorizontal,p,42,53,female,2021-03-02_09h26.20.781,exp11,2020.2.6,MacIntel,60,,,,,,,,,,,
,,,,,,,,,,,,,,a,1,1.022,space,0.219,0,102,102,151,1,0_targ_10_dist_red/trial2.png,,,0,10,redHorizontal,a,42,53,female,2021-03-02_09h26.20.781,exp11,2020.2.6,MacIntel,60,,,,,,,,,,,
,,,,,,,,,,,,,,p,1,0.669,space,0.299,0,103,103,49,1,3_dist_red/trial25.png,,,1,3,redHorizontal,p,42,53,female,2021-03-02_09h26.20.781,exp11,2020.2.6,MacIntel,60,,,,,,,,,,,
,,,,,,,,,,,,,,p,1,0.741,space,0.334,0,104,104,67,1,9_dist_red/trial18.png,,,1,9,redHorizontal,p,42,53,female,2021-03-02_09h26.20.781,exp11,2020.2.6,MacIntel,60,,,,,,,,,,,
,,,,,,,,,,,,,,a,1,1.059,space,0.218,0,105,105,152,1,0_targ_10_dist_red/trial3.png,,,0,10,redHorizontal,a,42,53,female,2021-03-02_09h26.20.781,exp11,2020.2.6,MacIntel,60,,,,,,,,,,,
,,,,,,,,,,,,,,a,1,0.721,space,0.289,0,106,106,100,1,0_targ_1_dist_red/trial1.png,,,0,1,redHorizontal,a,42,53,female,2021-03-02_09h26.20.781,exp11,2020.2.6,MacIntel,60,,,,,,,,,,,
,,,,,,,,,,,,,,p,1,0.871,space,0.324,0,107,107,39,1,3_dist_red/trial15.png,,,1,3,redHorizontal,p,42,53,female,2021-03-02_09h26.20.781,exp11,2020.2.6,MacIntel,60,,,,,,,,,,,
,,,,,,,,,,,,,,a,1,0.774,space,0.318,0,108,108,130,1,0_targ_4_dist_red/trial6.png,,,0,4,redHorizontal,a,42,53,female,2021-03-02_09h26.20.781,exp11,2020.2.6,MacIntel,60,,,,,,,,,,,
,,,,,,,,,,,,,,a,1,1.775,space,0.185,0,109,109,179,1,0_targ_16_dist_red/trial5.png,,,0,16,redHorizontal,a,42,53,female,2021-03-02_09h26.20.781,exp11,2020.2.6,MacIntel,60,,,,,,,,,,,
,,,,,,,,,,,,,,a,1,0.826,space,0.238,0,110,110,166,1,0_targ_10_dist_red/trial17.png,,,0,10,redHorizontal,a,42,53,female,2021-03-02_09h26.20.781,exp11,2020.2.6,MacIntel,60,,,,,,,,,,,
,,,,,,,,,,,,,,p,1,1.124,space,0.335,0,111,111,63,1,9_dist_red/trial14.png,,,1,9,redHorizontal,p,42,53,female,2021-03-02_09h26.20.781,exp11,2020.2.6,MacIntel,60,,,,,,,,,,,
,,,,,,,,,,,,,,a,1,0.804,space,0.235,0,112,112,159,1,0_targ_10_dist_red/trial10.png,,,0,10,redHorizontal,a,42,53,female,2021-03-02_09h26.20.781,exp11,2020.2.6,MacIntel,60,,,,,,,,,,,
,,,,,,,,,,,,,,p,1,0.651,space,0.323,0,113,113,17,1,0_dist_red/trial18.png,,,1,0,redHorizontal,p,42,53,female,2021-03-02_09h26.20.781,exp11,2020.2.6,MacIntel,60,,,,,,,,,,,
,,,,,,,,,,,,,,a,1,0.708,space,0.259,0,114,114,140,1,0_targ_4_dist_red/trial6.png,,,0,4,redHorizontal,a,42,53,female,2021-03-02_09h26.20.781,exp11,2020.2.6,MacIntel,60,,,,,,,,,,,
,,,,,,,,,,,,,,p,1,0.857,space,0.308,0,115,115,26,1,3_dist_red/trial2.png,,,1,3,redHorizontal,p,42,53,female,2021-03-02_09h26.20.781,exp11,2020.2.6,MacIntel,60,,,,,,,,,,,
,,,,,,,,,,,,,,a,0,0.658,space,2.282,0,116,116,35,1,3_dist_red/trial11.png,,,1,3,redHorizontal,p,42,53,female,2021-03-02_09h26.20.781,exp11,2020.2.6,MacIntel,60,,,,,,,,,,,
,,,,,,,,,,,,,,p,1,1.275,space,0.411,0,117,117,89,1,15_dist_red/trial15.png,,,1,15,redHorizontal,p,42,53,female,2021-03-02_09h26.20.781,exp11,2020.2.6,MacIntel,60,,,,,,,,,,,
,,,,,,,,,,,,,,a,1,1.388,space,0.219,0,118,118,181,1,0_targ_16_dist_red/trial7.png,,,0,16,redHorizontal,a,42,53,female,2021-03-02_09h26.20.781,exp11,2020.2.6,MacIntel,60,,,,,,,,,,,
,,,,,,,,,,,,,,a,1,0.852,space,0.238,0,119,119,133,1,0_targ_4_dist_red/trial9.png,,,0,4,redHorizontal,a,42,53,female,2021-03-02_09h26.20.781,exp11,2020.2.6,MacIntel,60,,,,,,,,,,,
,,,,,,,,,,,,,,a,1,1.593,space,0.185,0,120,120,189,1,0_targ_16_dist_red/trial15.png,,,0,16,redHorizontal,a,42,53,female,2021-03-02_09h26.20.781,exp11,2020.2.6,MacIntel,60,,,,,,,,,,,
,,,,,,,,,,,,,,p,1,1.057,space,0.256,0,121,121,85,1,15_dist_red/trial11.png,,,1,15,redHorizontal,p,42,53,female,2021-03-02_09h26.20.781,exp11,2020.2.6,MacIntel,60,,,,,,,,,,,
,,,,,,,,,,,,,,a,1,0.659,space,0.226,0,122,122,131,1,0_targ_4_dist_red/trial7.png,,,0,4,redHorizontal,a,42,53,female,2021-03-02_09h26.20.781,exp11,2020.2.6,MacIntel,60,,,,,,,,,,,
,,,,,,,,,,,,,,a,1,0.853,space,0.225,0,123,123,164,1,0_targ_10_dist_red/trial15.png,,,0,10,redHorizontal,a,42,53,female,2021-03-02_09h26.20.781,exp11,2020.2.6,MacIntel,60,,,,,,,,,,,
,,,,,,,,,,,,,,p,1,0.875,space,0.318,0,124,124,54,1,9_dist_red/trial5.png,,,1,9,redHorizontal,p,42,53,female,2021-03-02_09h26.20.781,exp11,2020.2.6,MacIntel,60,,,,,,,,,,,
,,,,,,,,,,,,,,a,1,0.756,space,0.267,0,125,125,111,1,0_targ_1_dist_red/trial12.png,,,0,1,redHorizontal,a,42,53,female,2021-03-02_09h26.20.781,exp11,2020.2.6,MacIntel,60,,,,,,,,,,,
,,,,,,,,,,,,,,a,1,0.609,space,0.372,0,126,126,110,1,0_targ_1_dist_red/trial11.png,,,0,1,redHorizontal,a,42,53,female,2021-03-02_09h26.20.781,exp11,2020.2.6,MacIntel,60,,,,,,,,,,,
,,,,,,,,,,,,,,a,1,0.92,space,0.284,0,127,127,132,1,0_targ_4_dist_red/trial8.png,,,0,4,redHorizontal,a,42,53,female,2021-03-02_09h26.20.781,exp11,2020.2.6,MacIntel,60,,,,,,,,,,,
,,,,,,,,,,,,,,a,1,0.637,space,0.357,0,128,128,104,1,0_targ_1_dist_red/trial5.png,,,0,1,redHorizontal,a,42,53,female,2021-03-02_09h26.20.781,exp11,2020.2.6,MacIntel,60,,,,,,,,,,,
,,,,,,,,,,,,,,a,1,1.207,space,0.425,0,129,129,192,1,0_targ_16_dist_red/trial18.png,,,0,16,redHorizontal,a,42,53,female,2021-03-02_09h26.20.781,exp11,2020.2.6,MacIntel,60,,,,,,,,,,,
,,,,,,,,,,,,,,p,1,0.557,space,0.387,0,130,130,10,1,0_dist_red/trial11.png,,,1,0,redHorizontal,p,42,53,female,2021-03-02_09h26.20.781,exp11,2020.2.6,MacIntel,60,,,,,,,,,,,
,,,,,,,,,,,,,,a,1,0.608,space,0.302,0,131,131,128,1,0_targ_4_dist_red/trial4.png,,,0,4,redHorizontal,a,42,53,female,2021-03-02_09h26.20.781,exp11,2020.2.6,MacIntel,60,,,,,,,,,,,
,,,,,,,,,,,,,,a,1,0.668,space,0.274,0,132,132,144,1,0_targ_4_dist_red/trial20.png,,,0,4,redHorizontal,a,42,53,female,2021-03-02_09h26.20.781,exp11,2020.2.6,MacIntel,60,,,,,,,,,,,
,,,,,,,,,,,,,,p,1,1.006,space,0.323,0,133,133,88,1,15_dist_red/trial14.png,,,1,15,redHorizontal,p,42,53,female,2021-03-02_09h26.20.781,exp11,2020.2.6,MacIntel,60,,,,,,,,,,,
,,,,,,,,,,,,,,a,1,0.586,space,0.26,0,134,134,126,1,0_targ_4_dist_red/trial2.png,,,0,4,redHorizontal,a,42,53,female,2021-03-02_09h26.20.781,exp11,2020.2.6,MacIntel,60,,,,,,,,,,,
,,,,,,,,,,,,,,p,1,0.822,space,0.306,0,135,135,97,1,15_dist_red/trial23.png,,,1,15,redHorizontal,p,42,53,female,2021-03-02_09h26.20.781,exp11,2020.2.6,MacIntel,60,,,,,,,,,,,
,,,,,,,,,,,,,,a,1,1.004,space,0.267,0,136,136,143,1,0_targ_4_dist_red/trial19.png,,,0,4,redHorizontal,a,42,53,female,2021-03-02_09h26.20.781,exp11,2020.2.6,MacIntel,60,,,,,,,,,,,
,,,,,,,,,,,,,,p,1,0.702,space,0.308,0,137,137,8,1,0_dist_red/trial9.png,,,1,0,redHorizontal,p,42,53,female,2021-03-02_09h26.20.781,exp11,2020.2.6,MacIntel,60,,,,,,,,,,,
,,,,,,,,,,,,,,a,1,1.358,space,0.257,0,138,138,114,1,0_targ_1_dist_red/trial15.png,,,0,1,redHorizontal,a,42,53,female,2021-03-02_09h26.20.781,exp11,2020.2.6,MacIntel,60,,,,,,,,,,,
,,,,,,,,,,,,,,p,1,0.685,space,0.305,0,139,139,57,1,9_dist_red/trial8.png,,,1,9,redHorizontal,p,42,53,female,2021-03-02_09h26.20.781,exp11,2020.2.6,MacIntel,60,,,,,,,,,,,
,,,,,,,,,,,,,,p,1,1.788,space,0.302,0,140,140,98,1,15_dist_red/trial24.png,,,1,15,redHorizontal,p,42,53,female,2021-03-02_09h26.20.781,exp11,2020.2.6,MacIntel,60,,,,,,,,,,,
,,,,,,,,,,,,,,p,1,1.491,space,0.521,0,141,141,3,1,0_dist_red/trial4.png,,,1,0,redHorizontal,p,42,53,female,2021-03-02_09h26.20.781,exp11,2020.2.6,MacIntel,60,,,,,,,,,,,
,,,,,,,,,,,,,,p,1,0.586,space,0.325,0,142,142,16,1,0_dist_red/trial17.png,,,1,0,redHorizontal,p,42,53,female,2021-03-02_09h26.20.781,exp11,2020.2.6,MacIntel,60,,,,,,,,,,,
,,,,,,,,,,,,,,p,1,0.704,space,0.293,0,143,143,53,1,9_dist_red/trial4.png,,,1,9,redHorizontal,p,42,53,female,2021-03-02_09h26.20.781,exp11,2020.2.6,MacIntel,60,,,,,,,,,,,
,,,,,,,,,,,,,,a,1,1.221,space,0.235,0,144,144,170,1,0_targ_10_dist_red/trial21.png,,,0,10,redHorizontal,a,42,53,female,2021-03-02_09h26.20.781,exp11,2020.2.6,MacIntel,60,,,,,,,,,,,
,,,,,,,,,,,,,,p,1,1.006,space,0.301,0,145,145,95,1,15_dist_red/trial21.png,,,1,15,redHorizontal,p,42,53,female,2021-03-02_09h26.20.781,exp11,2020.2.6,MacIntel,60,,,,,,,,,,,
,,,,,,,,,,,,,,p,1,1.126,space,0.302,0,146,146,20,1,0_dist_red/trial21.png,,,1,0,redHorizontal,p,42,53,female,2021-03-02_09h26.20.781,exp11,2020.2.6,MacIntel,60,,,,,,,,,,,
,,,,,,,,,,,,,,p,1,0.854,space,0.31,0,147,147,51,1,9_dist_red/trial2.png,,,1,9,redHorizontal,p,42,53,female,2021-03-02_09h26.20.781,exp11,2020.2.6,MacIntel,60,,,,,,,,,,,
,,,,,,,,,,,,,,p,1,0.721,space,0.357,0,148,148,73,1,9_dist_red/trial24.png,,,1,9,redHorizontal,p,42,53,female,2021-03-02_09h26.20.781,exp11,2020.2.6,MacIntel,60,,,,,,,,,,,
,,,,,,,,,,,,,,p,1,0.79,space,0.292,0,149,149,42,1,3_dist_red/trial18.png,,,1,3,redHorizontal,p,42,53,female,2021-03-02_09h26.20.781,exp11,2020.2.6,MacIntel,60,,,,,,,,,,,
,,,,,,,,,,,,,,a,1,1.222,space,0.24,0,150,150,163,1,0_targ_10_dist_red/trial14.png,,,0,10,redHorizontal,a,42,53,female,2021-03-02_09h26.20.781,exp11,2020.2.6,MacIntel,60,,,,,,,,,,,
,,,,,,,,,,,,,,p,1,1.405,space,0.275,0,151,151,60,1,9_dist_red/trial11.png,,,1,9,redHorizontal,p,42,53,female,2021-03-02_09h26.20.781,exp11,2020.2.6,MacIntel,60,,,,,,,,,,,
,,,,,,,,,,,,,,p,1,1.004,space,0.3,0,152,152,99,1,15_dist_red/trial25.png,,,1,15,redHorizontal,p,42,53,female,2021-03-02_09h26.20.781,exp11,2020.2.6,MacIntel,60,,,,,,,,,,,
,,,,,,,,,,,,,,a,1,1.605,space,0.222,0,153,153,196,1,0_targ_16_dist_red/trial22.png,,,0,16,redHorizontal,a,42,53,female,2021-03-02_09h26.20.781,exp11,2020.2.6,MacIntel,60,,,,,,,,,,,
,,,,,,,,,,,,,,p,1,1.056,space,0.288,0,154,154,47,1,3_dist_red/trial23.png,,,1,3,redHorizontal,p,42,53,female,2021-03-02_09h26.20.781,exp11,2020.2.6,MacIntel,60,,,,,,,,,,,
,,,,,,,,,,,,,,p,1,0.843,space,0.323,0,155,155,93,1,15_dist_red/trial19.png,,,1,15,redHorizontal,p,42,53,female,2021-03-02_09h26.20.781,exp11,2020.2.6,MacIntel,60,,,,,,,,,,,
,,,,,,,,,,,,,,a,1,1.826,space,0.202,0,156,156,194,1,0_targ_16_dist_red/trial20.png,,,0,16,redHorizontal,a,42,53,female,2021-03-02_09h26.20.781,exp11,2020.2.6,MacIntel,60,,,,,,,,,,,
,,,,,,,,,,,,,,a,1,1.739,space,0.167,0,157,157,116,1,0_targ_1_dist_red/trial17.png,,,0,1,redHorizontal,a,42,53,female,2021-03-02_09h26.20.781,exp11,2020.2.6,MacIntel,60,,,,,,,,,,,
,,,,,,,,,,,,,,p,1,1.176,space,0.275,0,158,158,70,1,9_dist_red/trial21.png,,,1,9,redHorizontal,p,42,53,female,2021-03-02_09h26.20.781,exp11,2020.2.6,MacIntel,60,,,,,,,,,,,
,,,,,,,,,,,,,,a,1,1.36,space,0.167,0,159,159,199,1,0_targ_16_dist_red/trial25.png,,,0,16,redHorizontal,a,42,53,female,2021-03-02_09h26.20.781,exp11,2020.2.6,MacIntel,60,,,,,,,,,,,
,,,,,,,,,,,,,,p,1,0.671,space,0.256,0,160,160,13,1,0_dist_red/trial14.png,,,1,0,redHorizontal,p,42,53,female,2021-03-02_09h26.20.781,exp11,2020.2.6,MacIntel,60,,,,,,,,,,,
,,,,,,,,,,,,,,a,1,0.92,space,0.168,0,161,161,158,1,0_targ_10_dist_red/trial9.png,,,0,10,redHorizontal,a,42,53,female,2021-03-02_09h26.20.781,exp11,2020.2.6,MacIntel,60,,,,,,,,,,,
,,,,,,,,,,,,,,p,1,1.175,space,0.254,0,162,162,41,1,3_dist_red/trial17.png,,,1,3,redHorizontal,p,42,53,female,2021-03-02_09h26.20.781,exp11,2020.2.6,MacIntel,60,,,,,,,,,,,
,,,,,,,,,,,,,,a,1,1.008,space,0.256,0,163,163,112,1,0_targ_1_dist_red/trial13.png,,,0,1,redHorizontal,a,42,53,female,2021-03-02_09h26.20.781,exp11,2020.2.6,MacIntel,60,,,,,,,,,,,
,,,,,,,,,,,,,,p,1,0.886,space,0.291,0,164,164,81,1,15_dist_red/trial7.png,,,1,15,redHorizontal,p,42,53,female,2021-03-02_09h26.20.781,exp11,2020.2.6,MacIntel,60,,,,,,,,,,,
,,,,,,,,,,,,,,p,1,1.436,space,0.391,0,165,165,64,1,9_dist_red/trial15.png,,,1,9,redHorizontal,p,42,53,female,2021-03-02_09h26.20.781,exp11,2020.2.6,MacIntel,60,,,,,,,,,,,
,,,,,,,,,,,,,,p,1,0.807,space,0.343,0,166,166,68,1,9_dist_red/trial19.png,,,1,9,redHorizontal,p,42,53,female,2021-03-02_09h26.20.781,exp11,2020.2.6,MacIntel,60,,,,,,,,,,,
,,,,,,,,,,,,,,a,1,0.708,space,0.27,0,167,167,129,1,0_targ_4_dist_red/trial5.png,,,0,4,redHorizontal,a,42,53,female,2021-03-02_09h26.20.781,exp11,2020.2.6,MacIntel,60,,,,,,,,,,,
,,,,,,,,,,,,,,a,1,1.039,space,0.268,0,168,168,175,1,0_targ_16_dist_red/trial1.png,,,0,16,redHorizontal,a,42,53,female,2021-03-02_09h26.20.781,exp11,2020.2.6,MacIntel,60,,,,,,,,,,,
,,,,,,,,,,,,,,a,1,1.024,space,0.242,0,169,169,124,1,0_targ_1_dist_red/trial25.png,,,0,1,redHorizontal,a,42,53,female,2021-03-02_09h26.20.781,exp11,2020.2.6,MacIntel,60,,,,,,,,,,,
,,,,,,,,,,,,,,a,1,1.841,space,0.251,0,170,170,187,1,0_targ_16_dist_red/trial13.png,,,0,16,redHorizontal,a,42,53,female,2021-03-02_09h26.20.781,exp11,2020.2.6,MacIntel,60,,,,,,,,,,,
,,,,,,,,,,,,,,a,1,1.07,space,0.185,0,171,171,105,1,0_targ_1_dist_red/trial6.png,,,0,1,redHorizontal,a,42,53,female,2021-03-02_09h26.20.781,exp11,2020.2.6,MacIntel,60,,,,,,,,,,,
,,,,,,,,,,,,,,p,1,0.786,space,0.261,0,172,172,86,1,15_dist_red/trial12.png,,,1,15,redHorizontal,p,42,53,female,2021-03-02_09h26.20.781,exp11,2020.2.6,MacIntel,60,,,,,,,,,,,
,,,,,,,,,,,,,,p,1,0.738,space,0.273,0,173,173,43,1,3_dist_red/trial19.png,,,1,3,redHorizontal,p,42,53,female,2021-03-02_09h26.20.781,exp11,2020.2.6,MacIntel,60,,,,,,,,,,,
,,,,,,,,,,,,,,a,1,1.305,space,0.219,0,174,174,172,1,0_targ_10_dist_red/trial23.png,,,0,10,redHorizontal,a,42,53,female,2021-03-02_09h26.20.781,exp11,2020.2.6,MacIntel,60,,,,,,,,,,,
,,,,,,,,,,,,,,p,1,1.003,space,0.277,0,175,175,48,1,3_dist_red/trial24.png,,,1,3,redHorizontal,p,42,53,female,2021-03-02_09h26.20.781,exp11,2020.2.6,MacIntel,60,,,,,,,,,,,
,,,,,,,,,,,,,,p,1,1.437,space,0.268,0,176,176,37,1,3_dist_red/trial13.png,,,1,3,redHorizontal,p,42,53,female,2021-03-02_09h26.20.781,exp11,2020.2.6,MacIntel,60,,,,,,,,,,,
,,,,,,,,,,,,,,a,1,0.604,space,0.273,0,177,177,136,1,0_targ_4_dist_red/trial12.png,,,0,4,redHorizontal,a,42,53,female,2021-03-02_09h26.20.781,exp11,2020.2.6,MacIntel,60,,,,,,,,,,,
,,,,,,,,,,,,,,p,1,0.638,space,0.31,0,178,178,46,1,3_dist_red/trial22.png,,,1,3,redHorizontal,p,42,53,female,2021-03-02_09h26.20.781,exp11,2020.2.6,MacIntel,60,,,,,,,,,,,
,,,,,,,,,,,,,,a,1,1.508,space,0.175,0,179,179,186,1,0_targ_16_dist_red/trial12.png,,,0,16,redHorizontal,a,42,53,female,2021-03-02_09h26.20.781,exp11,2020.2.6,MacIntel,60,,,,,,,,,,,
,,,,,,,,,,,,,,a,1,0.893,space,0.186,0,180,180,148,1,0_targ_4_dist_red/trial24.png,,,0,4,redHorizontal,a,42,53,female,2021-03-02_09h26.20.781,exp11,2020.2.6,MacIntel,60,,,,,,,,,,,
,,,,,,,,,,,,,,p,1,1.292,space,0.236,0,181,181,62,1,9_dist_red/trial13.png,,,1,9,redHorizontal,p,42,53,female,2021-03-02_09h26.20.781,exp11,2020.2.6,MacIntel,60,,,,,,,,,,,
,,,,,,,,,,,,,,p,1,0.859,space,0.275,0,182,182,78,1,15_dist_red/trial4.png,,,1,15,redHorizontal,p,42,53,female,2021-03-02_09h26.20.781,exp11,2020.2.6,MacIntel,60,,,,,,,,,,,
,,,,,,,,,,,,,,a,1,0.875,space,0.251,0,183,183,191,1,0_targ_16_dist_red/trial17.png,,,0,16,redHorizontal,a,42,53,female,2021-03-02_09h26.20.781,exp11,2020.2.6,MacIntel,60,,,,,,,,,,,
,,,,,,,,,,,,,,p,1,0.671,space,0.25,0,184,184,33,1,3_dist_red/trial9.png,,,1,3,redHorizontal,p,42,53,female,2021-03-02_09h26.20.781,exp11,2020.2.6,MacIntel,60,,,,,,,,,,,
,,,,,,,,,,,,,,a,1,0.809,space,0.268,0,185,185,117,1,0_targ_1_dist_red/trial18.png,,,0,1,redHorizontal,a,42,53,female,2021-03-02_09h26.20.781,exp11,2020.2.6,MacIntel,60,,,,,,,,,,,
,,,,,,,,,,,,,,p,1,1.776,space,0.217,0,186,186,71,1,9_dist_red/trial22.png,,,1,9,redHorizontal,p,42,53,female,2021-03-02_09h26.20.781,exp11,2020.2.6,MacIntel,60,,,,,,,,,,,
,,,,,,,,,,,,,,a,1,1.491,space,0.202,0,187,187,107,1,0_targ_1_dist_red/trial8.png,,,0,1,redHorizontal,a,42,53,female,2021-03-02_09h26.20.781,exp11,2020.2.6,MacIntel,60,,,,,,,,,,,
,,,,,,,,,,,,,,a,1,0.975,space,0.185,0,188,188,122,1,0_targ_1_dist_red/trial23.png,,,0,1,redHorizontal,a,42,53,female,2021-03-02_09h26.20.781,exp11,2020.2.6,MacIntel,60,,,,,,,,,,,
,,,,,,,,,,,,,,p,1,0.909,space,0.253,0,189,189,52,1,9_dist_red/trial3.png,,,1,9,redHorizontal,p,42,53,female,2021-03-02_09h26.20.781,exp11,2020.2.6,MacIntel,60,,,,,,,,,,,
,,,,,,,,,,,,,,p,1,0.656,space,0.32,0,190,190,45,1,3_dist_red/trial21.png,,,1,3,redHorizontal,p,42,53,female,2021-03-02_09h26.20.781,exp11,2020.2.6,MacIntel,60,,,,,,,,,,,
,,,,,,,,,,,,,,p,1,0.591,space,0.309,0,191,191,0,1,0_dist_red/trial1.png,,,1,0,redHorizontal,p,42,53,female,2021-03-02_09h26.20.781,exp11,2020.2.6,MacIntel,60,,,,,,,,,,,
,,,,,,,,,,,,,,p,1,0.691,space,0.344,0,192,192,56,1,9_dist_red/trial7.png,,,1,9,redHorizontal,p,42,53,female,2021-03-02_09h26.20.781,exp11,2020.2.6,MacIntel,60,,,,,,,,,,,
,,,,,,,,,,,,,,p,1,0.654,space,0.309,0,193,193,22,1,0_dist_red/trial23.png,,,1,0,redHorizontal,p,42,53,female,2021-03-02_09h26.20.781,exp11,2020.2.6,MacIntel,60,,,,,,,,,,,
,,,,,,,,,,,,,,p,1,0.937,space,0.292,0,194,194,30,1,3_dist_red/trial6.png,,,1,3,redHorizontal,p,42,53,female,2021-03-02_09h26.20.781,exp11,2020.2.6,MacIntel,60,,,,,,,,,,,
,,,,,,,,,,,,,,a,1,0.862,space,0.373,0,195,195,106,1,0_targ_1_dist_red/trial7.png,,,0,1,redHorizontal,a,42,53,female,2021-03-02_09h26.20.781,exp11,2020.2.6,MacIntel,60,,,,,,,,,,,
,,,,,,,,,,,,,,p,1,1.172,space,0.29,0,196,196,79,1,15_dist_red/trial5.png,,,1,15,redHorizontal,p,42,53,female,2021-03-02_09h26.20.781,exp11,2020.2.6,MacIntel,60,,,,,,,,,,,
,,,,,,,,,,,,,,p,1,0.921,space,0.301,0,197,197,44,1,3_dist_red/trial20.png,,,1,3,redHorizontal,p,42,53,female,2021-03-02_09h26.20.781,exp11,2020.2.6,MacIntel,60,,,,,,,,,,,
,,,,,,,,,,,,,,p,1,0.655,space,0.335,0,198,198,25,1,3_dist_red/trial1.png,,,1,3,redHorizontal,p,42,53,female,2021-03-02_09h26.20.781,exp11,2020.2.6,MacIntel,60,,,,,,,,,,,
,,,,,,,,,,,,,,a,1,0.754,space,0.285,0,199,199,141,1,0_targ_4_dist_red/trial17.png,,,0,4,redHorizontal,a,42,53,female,2021-03-02_09h26.20.781,exp11,2020.2.6,MacIntel,60,,,,,,,,,,,
,,,,,,,,,,,,,,,,,,,,,,,,,,,,,,,42,53,female,2021-03-02_09h26.20.781,exp11,2020.2.6,MacIntel,60,0,1,1,1,1,conRed.xlsx,red horizontal,Look for red horizontal bar (target) and indicate if it is present or absent in the array. If red horizontal target is present press 'p' and if absent press 'a'. Press SPACE to start.,,,
