key_resp_6.keys,key_resp_6.rt,key_resp_7.keys,key_resp_7.rt,key_resp_8.keys,key_resp_8.rt,key_resp_10.keys,key_resp_10.rt,key_resp_9.keys,key_resp_9.rt,key_resp_3.keys,key_resp_3.rt,key_resp_5.keys,key_resp_5.rt,key_resp.keys,key_resp.corr,key_resp.rt,key_resp_4.keys,key_resp_4.rt,trials.thisRepN,trials.thisTrialN,trials.thisN,trials.thisIndex,trials.ran,ImageFile,tarPos,tarSize,targPres,numDist,targetName,correctAns,participant,age,sex,date,expName,psychopyVersion,OS,frameRate,fbclid,trials_2.thisRepN,trials_2.thisTrialN,trials_2.thisN,trials_2.thisIndex,trials_2.ran,condsFile,targName,instructionText,colTarget,sizeTarg,posit
space,3.173,space,0.334,space,0.676,space,0.985,space,0.633,space,16.222,space,2.635,p,1,1.818,space,4.865,0,0,0,85,1,15_dist_red/trial11.png,,,1,15,redHorizontal,p,50,65,male,2021-02-24_18h26.57.611,exp11,2020.2.6,Win32,60,IwAR0VKvOVLfO9x4NH2ByDS5JjHnaE1WnLh7ltAewcCBZxKhEo_J5XvgtxSNM,,,,,,,,,,,
,,,,,,,,,,,,,,p,1,2.459,space,0.492,0,1,1,59,1,9_dist_red/trial10.png,,,1,9,redHorizontal,p,50,65,male,2021-02-24_18h26.57.611,exp11,2020.2.6,Win32,60,IwAR0VKvOVLfO9x4NH2ByDS5JjHnaE1WnLh7ltAewcCBZxKhEo_J5XvgtxSNM,,,,,,,,,,,
,,,,,,,,,,,,,,a,1,1.828,space,0.917,0,2,2,198,1,0_targ_16_dist_red/trial24.png,,,0,16,redHorizontal,a,50,65,male,2021-02-24_18h26.57.611,exp11,2020.2.6,Win32,60,IwAR0VKvOVLfO9x4NH2ByDS5JjHnaE1WnLh7ltAewcCBZxKhEo_J5XvgtxSNM,,,,,,,,,,,
,,,,,,,,,,,,,,a,1,1.482,space,0.849,0,3,3,135,1,0_targ_4_dist_red/trial11.png,,,0,4,redHorizontal,a,50,65,male,2021-02-24_18h26.57.611,exp11,2020.2.6,Win32,60,IwAR0VKvOVLfO9x4NH2ByDS5JjHnaE1WnLh7ltAewcCBZxKhEo_J5XvgtxSNM,,,,,,,,,,,
,,,,,,,,,,,,,,p,1,0.608,space,0.469,0,4,4,48,1,3_dist_red/trial24.png,,,1,3,redHorizontal,p,50,65,male,2021-02-24_18h26.57.611,exp11,2020.2.6,Win32,60,IwAR0VKvOVLfO9x4NH2ByDS5JjHnaE1WnLh7ltAewcCBZxKhEo_J5XvgtxSNM,,,,,,,,,,,
,,,,,,,,,,,,,,a,1,1.267,space,0.706,0,5,5,153,1,0_targ_10_dist_red/trial4.png,,,0,10,redHorizontal,a,50,65,male,2021-02-24_18h26.57.611,exp11,2020.2.6,Win32,60,IwAR0VKvOVLfO9x4NH2ByDS5JjHnaE1WnLh7ltAewcCBZxKhEo_J5XvgtxSNM,,,,,,,,,,,
,,,,,,,,,,,,,,a,1,1.05,space,0.586,0,6,6,169,1,0_targ_10_dist_red/trial20.png,,,0,10,redHorizontal,a,50,65,male,2021-02-24_18h26.57.611,exp11,2020.2.6,Win32,60,IwAR0VKvOVLfO9x4NH2ByDS5JjHnaE1WnLh7ltAewcCBZxKhEo_J5XvgtxSNM,,,,,,,,,,,
,,,,,,,,,,,,,,a,1,0.766,space,0.689,0,7,7,162,1,0_targ_10_dist_red/trial13.png,,,0,10,redHorizontal,a,50,65,male,2021-02-24_18h26.57.611,exp11,2020.2.6,Win32,60,IwAR0VKvOVLfO9x4NH2ByDS5JjHnaE1WnLh7ltAewcCBZxKhEo_J5XvgtxSNM,,,,,,,,,,,
,,,,,,,,,,,,,,p,1,1.361,space,0.891,0,8,8,87,1,15_dist_red/trial13.png,,,1,15,redHorizontal,p,50,65,male,2021-02-24_18h26.57.611,exp11,2020.2.6,Win32,60,IwAR0VKvOVLfO9x4NH2ByDS5JjHnaE1WnLh7ltAewcCBZxKhEo_J5XvgtxSNM,,,,,,,,,,,
,,,,,,,,,,,,,,p,1,0.927,space,0.742,0,9,9,38,1,3_dist_red/trial14.png,,,1,3,redHorizontal,p,50,65,male,2021-02-24_18h26.57.611,exp11,2020.2.6,Win32,60,IwAR0VKvOVLfO9x4NH2ByDS5JjHnaE1WnLh7ltAewcCBZxKhEo_J5XvgtxSNM,,,,,,,,,,,
,,,,,,,,,,,,,,a,1,1.395,space,0.667,0,10,10,126,1,0_targ_4_dist_red/trial2.png,,,0,4,redHorizontal,a,50,65,male,2021-02-24_18h26.57.611,exp11,2020.2.6,Win32,60,IwAR0VKvOVLfO9x4NH2ByDS5JjHnaE1WnLh7ltAewcCBZxKhEo_J5XvgtxSNM,,,,,,,,,,,
,,,,,,,,,,,,,,p,1,0.729,space,0.501,0,11,11,23,1,0_dist_red/trial24.png,,,1,0,redHorizontal,p,50,65,male,2021-02-24_18h26.57.611,exp11,2020.2.6,Win32,60,IwAR0VKvOVLfO9x4NH2ByDS5JjHnaE1WnLh7ltAewcCBZxKhEo_J5XvgtxSNM,,,,,,,,,,,
,,,,,,,,,,,,,,a,1,1.328,space,0.433,0,12,12,116,1,0_targ_1_dist_red/trial17.png,,,0,1,redHorizontal,a,50,65,male,2021-02-24_18h26.57.611,exp11,2020.2.6,Win32,60,IwAR0VKvOVLfO9x4NH2ByDS5JjHnaE1WnLh7ltAewcCBZxKhEo_J5XvgtxSNM,,,,,,,,,,,
,,,,,,,,,,,,,,p,1,0.793,space,0.467,0,13,13,53,1,9_dist_red/trial4.png,,,1,9,redHorizontal,p,50,65,male,2021-02-24_18h26.57.611,exp11,2020.2.6,Win32,60,IwAR0VKvOVLfO9x4NH2ByDS5JjHnaE1WnLh7ltAewcCBZxKhEo_J5XvgtxSNM,,,,,,,,,,,
,,,,,,,,,,,,,,p,1,0.667,space,0.437,0,14,14,65,1,9_dist_red/trial16.png,,,1,9,redHorizontal,p,50,65,male,2021-02-24_18h26.57.611,exp11,2020.2.6,Win32,60,IwAR0VKvOVLfO9x4NH2ByDS5JjHnaE1WnLh7ltAewcCBZxKhEo_J5XvgtxSNM,,,,,,,,,,,
,,,,,,,,,,,,,,p,1,0.691,space,0.4,0,15,15,92,1,15_dist_red/trial18.png,,,1,15,redHorizontal,p,50,65,male,2021-02-24_18h26.57.611,exp11,2020.2.6,Win32,60,IwAR0VKvOVLfO9x4NH2ByDS5JjHnaE1WnLh7ltAewcCBZxKhEo_J5XvgtxSNM,,,,,,,,,,,
,,,,,,,,,,,,,,p,1,0.611,space,0.439,0,16,16,82,1,15_dist_red/trial8.png,,,1,15,redHorizontal,p,50,65,male,2021-02-24_18h26.57.611,exp11,2020.2.6,Win32,60,IwAR0VKvOVLfO9x4NH2ByDS5JjHnaE1WnLh7ltAewcCBZxKhEo_J5XvgtxSNM,,,,,,,,,,,
,,,,,,,,,,,,,,a,1,1.349,space,0.505,0,17,17,134,1,0_targ_4_dist_red/trial10.png,,,0,4,redHorizontal,a,50,65,male,2021-02-24_18h26.57.611,exp11,2020.2.6,Win32,60,IwAR0VKvOVLfO9x4NH2ByDS5JjHnaE1WnLh7ltAewcCBZxKhEo_J5XvgtxSNM,,,,,,,,,,,
,,,,,,,,,,,,,,p,1,1.275,space,0.718,0,18,18,76,1,15_dist_red/trial2.png,,,1,15,redHorizontal,p,50,65,male,2021-02-24_18h26.57.611,exp11,2020.2.6,Win32,60,IwAR0VKvOVLfO9x4NH2ByDS5JjHnaE1WnLh7ltAewcCBZxKhEo_J5XvgtxSNM,,,,,,,,,,,
,,,,,,,,,,,,,,a,1,1.244,space,0.777,0,19,19,165,1,0_targ_10_dist_red/trial16.png,,,0,10,redHorizontal,a,50,65,male,2021-02-24_18h26.57.611,exp11,2020.2.6,Win32,60,IwAR0VKvOVLfO9x4NH2ByDS5JjHnaE1WnLh7ltAewcCBZxKhEo_J5XvgtxSNM,,,,,,,,,,,
,,,,,,,,,,,,,,a,1,0.959,space,0.433,0,20,20,137,1,0_targ_4_dist_red/trial13.png,,,0,4,redHorizontal,a,50,65,male,2021-02-24_18h26.57.611,exp11,2020.2.6,Win32,60,IwAR0VKvOVLfO9x4NH2ByDS5JjHnaE1WnLh7ltAewcCBZxKhEo_J5XvgtxSNM,,,,,,,,,,,
,,,,,,,,,,,,,,a,1,0.728,space,0.435,0,21,21,121,1,0_targ_1_dist_red/trial22.png,,,0,1,redHorizontal,a,50,65,male,2021-02-24_18h26.57.611,exp11,2020.2.6,Win32,60,IwAR0VKvOVLfO9x4NH2ByDS5JjHnaE1WnLh7ltAewcCBZxKhEo_J5XvgtxSNM,,,,,,,,,,,
,,,,,,,,,,,,,,a,1,1.176,space,0.923,0,22,22,181,1,0_targ_16_dist_red/trial7.png,,,0,16,redHorizontal,a,50,65,male,2021-02-24_18h26.57.611,exp11,2020.2.6,Win32,60,IwAR0VKvOVLfO9x4NH2ByDS5JjHnaE1WnLh7ltAewcCBZxKhEo_J5XvgtxSNM,,,,,,,,,,,
,,,,,,,,,,,,,,a,1,1.126,space,0.634,0,23,23,146,1,0_targ_4_dist_red/trial22.png,,,0,4,redHorizontal,a,50,65,male,2021-02-24_18h26.57.611,exp11,2020.2.6,Win32,60,IwAR0VKvOVLfO9x4NH2ByDS5JjHnaE1WnLh7ltAewcCBZxKhEo_J5XvgtxSNM,,,,,,,,,,,
,,,,,,,,,,,,,,a,1,0.655,space,0.5,0,24,24,118,1,0_targ_1_dist_red/trial19.png,,,0,1,redHorizontal,a,50,65,male,2021-02-24_18h26.57.611,exp11,2020.2.6,Win32,60,IwAR0VKvOVLfO9x4NH2ByDS5JjHnaE1WnLh7ltAewcCBZxKhEo_J5XvgtxSNM,,,,,,,,,,,
,,,,,,,,,,,,,,p,1,2.751,space,0.267,0,25,25,34,1,3_dist_red/trial10.png,,,1,3,redHorizontal,p,50,65,male,2021-02-24_18h26.57.611,exp11,2020.2.6,Win32,60,IwAR0VKvOVLfO9x4NH2ByDS5JjHnaE1WnLh7ltAewcCBZxKhEo_J5XvgtxSNM,,,,,,,,,,,
,,,,,,,,,,,,,,p,1,0.793,space,0.22,0,26,26,56,1,9_dist_red/trial7.png,,,1,9,redHorizontal,p,50,65,male,2021-02-24_18h26.57.611,exp11,2020.2.6,Win32,60,IwAR0VKvOVLfO9x4NH2ByDS5JjHnaE1WnLh7ltAewcCBZxKhEo_J5XvgtxSNM,,,,,,,,,,,
,,,,,,,,,,,,,,p,1,0.678,space,0.301,0,27,27,5,1,0_dist_red/trial6.png,,,1,0,redHorizontal,p,50,65,male,2021-02-24_18h26.57.611,exp11,2020.2.6,Win32,60,IwAR0VKvOVLfO9x4NH2ByDS5JjHnaE1WnLh7ltAewcCBZxKhEo_J5XvgtxSNM,,,,,,,,,,,
,,,,,,,,,,,,,,p,1,0.943,space,0.386,0,28,28,84,1,15_dist_red/trial10.png,,,1,15,redHorizontal,p,50,65,male,2021-02-24_18h26.57.611,exp11,2020.2.6,Win32,60,IwAR0VKvOVLfO9x4NH2ByDS5JjHnaE1WnLh7ltAewcCBZxKhEo_J5XvgtxSNM,,,,,,,,,,,
,,,,,,,,,,,,,,a,1,1.665,space,0.634,0,29,29,197,1,0_targ_16_dist_red/trial23.png,,,0,16,redHorizontal,a,50,65,male,2021-02-24_18h26.57.611,exp11,2020.2.6,Win32,60,IwAR0VKvOVLfO9x4NH2ByDS5JjHnaE1WnLh7ltAewcCBZxKhEo_J5XvgtxSNM,,,,,,,,,,,
,,,,,,,,,,,,,,p,1,1.946,space,0.334,0,30,30,55,1,9_dist_red/trial6.png,,,1,9,redHorizontal,p,50,65,male,2021-02-24_18h26.57.611,exp11,2020.2.6,Win32,60,IwAR0VKvOVLfO9x4NH2ByDS5JjHnaE1WnLh7ltAewcCBZxKhEo_J5XvgtxSNM,,,,,,,,,,,
,,,,,,,,,,,,,,p,1,0.76,space,0.305,0,31,31,27,1,3_dist_red/trial3.png,,,1,3,redHorizontal,p,50,65,male,2021-02-24_18h26.57.611,exp11,2020.2.6,Win32,60,IwAR0VKvOVLfO9x4NH2ByDS5JjHnaE1WnLh7ltAewcCBZxKhEo_J5XvgtxSNM,,,,,,,,,,,
,,,,,,,,,,,,,,a,1,1.142,space,0.501,0,32,32,132,1,0_targ_4_dist_red/trial8.png,,,0,4,redHorizontal,a,50,65,male,2021-02-24_18h26.57.611,exp11,2020.2.6,Win32,60,IwAR0VKvOVLfO9x4NH2ByDS5JjHnaE1WnLh7ltAewcCBZxKhEo_J5XvgtxSNM,,,,,,,,,,,
,,,,,,,,,,,,,,a,1,1.194,space,0.574,0,33,33,104,1,0_targ_1_dist_red/trial5.png,,,0,1,redHorizontal,a,50,65,male,2021-02-24_18h26.57.611,exp11,2020.2.6,Win32,60,IwAR0VKvOVLfO9x4NH2ByDS5JjHnaE1WnLh7ltAewcCBZxKhEo_J5XvgtxSNM,,,,,,,,,,,
,,,,,,,,,,,,,,p,1,0.977,space,0.435,0,34,34,99,1,15_dist_red/trial25.png,,,1,15,redHorizontal,p,50,65,male,2021-02-24_18h26.57.611,exp11,2020.2.6,Win32,60,IwAR0VKvOVLfO9x4NH2ByDS5JjHnaE1WnLh7ltAewcCBZxKhEo_J5XvgtxSNM,,,,,,,,,,,
,,,,,,,,,,,,,,a,1,1.027,space,0.685,0,35,35,150,1,0_targ_10_dist_red/trial1.png,,,0,10,redHorizontal,a,50,65,male,2021-02-24_18h26.57.611,exp11,2020.2.6,Win32,60,IwAR0VKvOVLfO9x4NH2ByDS5JjHnaE1WnLh7ltAewcCBZxKhEo_J5XvgtxSNM,,,,,,,,,,,
,,,,,,,,,,,,,,p,1,0.992,space,0.393,0,36,36,51,1,9_dist_red/trial2.png,,,1,9,redHorizontal,p,50,65,male,2021-02-24_18h26.57.611,exp11,2020.2.6,Win32,60,IwAR0VKvOVLfO9x4NH2ByDS5JjHnaE1WnLh7ltAewcCBZxKhEo_J5XvgtxSNM,,,,,,,,,,,
,,,,,,,,,,,,,,a,1,1.345,space,0.558,0,37,37,183,1,0_targ_16_dist_red/trial9.png,,,0,16,redHorizontal,a,50,65,male,2021-02-24_18h26.57.611,exp11,2020.2.6,Win32,60,IwAR0VKvOVLfO9x4NH2ByDS5JjHnaE1WnLh7ltAewcCBZxKhEo_J5XvgtxSNM,,,,,,,,,,,
,,,,,,,,,,,,,,p,1,0.631,space,0.334,0,38,38,97,1,15_dist_red/trial23.png,,,1,15,redHorizontal,p,50,65,male,2021-02-24_18h26.57.611,exp11,2020.2.6,Win32,60,IwAR0VKvOVLfO9x4NH2ByDS5JjHnaE1WnLh7ltAewcCBZxKhEo_J5XvgtxSNM,,,,,,,,,,,
,,,,,,,,,,,,,,p,1,0.72,space,0.35,0,39,39,40,1,3_dist_red/trial16.png,,,1,3,redHorizontal,p,50,65,male,2021-02-24_18h26.57.611,exp11,2020.2.6,Win32,60,IwAR0VKvOVLfO9x4NH2ByDS5JjHnaE1WnLh7ltAewcCBZxKhEo_J5XvgtxSNM,,,,,,,,,,,
,,,,,,,,,,,,,,a,1,1.279,space,0.473,0,40,40,193,1,0_targ_16_dist_red/trial19.png,,,0,16,redHorizontal,a,50,65,male,2021-02-24_18h26.57.611,exp11,2020.2.6,Win32,60,IwAR0VKvOVLfO9x4NH2ByDS5JjHnaE1WnLh7ltAewcCBZxKhEo_J5XvgtxSNM,,,,,,,,,,,
,,,,,,,,,,,,,,p,1,0.609,space,0.385,0,41,41,96,1,15_dist_red/trial22.png,,,1,15,redHorizontal,p,50,65,male,2021-02-24_18h26.57.611,exp11,2020.2.6,Win32,60,IwAR0VKvOVLfO9x4NH2ByDS5JjHnaE1WnLh7ltAewcCBZxKhEo_J5XvgtxSNM,,,,,,,,,,,
,,,,,,,,,,,,,,p,1,0.953,space,0.654,0,42,42,44,1,3_dist_red/trial20.png,,,1,3,redHorizontal,p,50,65,male,2021-02-24_18h26.57.611,exp11,2020.2.6,Win32,60,IwAR0VKvOVLfO9x4NH2ByDS5JjHnaE1WnLh7ltAewcCBZxKhEo_J5XvgtxSNM,,,,,,,,,,,
,,,,,,,,,,,,,,a,1,1.092,space,0.476,0,43,43,147,1,0_targ_4_dist_red/trial23.png,,,0,4,redHorizontal,a,50,65,male,2021-02-24_18h26.57.611,exp11,2020.2.6,Win32,60,IwAR0VKvOVLfO9x4NH2ByDS5JjHnaE1WnLh7ltAewcCBZxKhEo_J5XvgtxSNM,,,,,,,,,,,
,,,,,,,,,,,,,,a,1,0.958,space,0.427,0,44,44,187,1,0_targ_16_dist_red/trial13.png,,,0,16,redHorizontal,a,50,65,male,2021-02-24_18h26.57.611,exp11,2020.2.6,Win32,60,IwAR0VKvOVLfO9x4NH2ByDS5JjHnaE1WnLh7ltAewcCBZxKhEo_J5XvgtxSNM,,,,,,,,,,,
,,,,,,,,,,,,,,a,1,0.837,space,0.417,0,45,45,130,1,0_targ_4_dist_red/trial6.png,,,0,4,redHorizontal,a,50,65,male,2021-02-24_18h26.57.611,exp11,2020.2.6,Win32,60,IwAR0VKvOVLfO9x4NH2ByDS5JjHnaE1WnLh7ltAewcCBZxKhEo_J5XvgtxSNM,,,,,,,,,,,
,,,,,,,,,,,,,,a,1,0.865,space,0.468,0,46,46,105,1,0_targ_1_dist_red/trial6.png,,,0,1,redHorizontal,a,50,65,male,2021-02-24_18h26.57.611,exp11,2020.2.6,Win32,60,IwAR0VKvOVLfO9x4NH2ByDS5JjHnaE1WnLh7ltAewcCBZxKhEo_J5XvgtxSNM,,,,,,,,,,,
,,,,,,,,,,,,,,a,1,0.796,space,0.434,0,47,47,114,1,0_targ_1_dist_red/trial15.png,,,0,1,redHorizontal,a,50,65,male,2021-02-24_18h26.57.611,exp11,2020.2.6,Win32,60,IwAR0VKvOVLfO9x4NH2ByDS5JjHnaE1WnLh7ltAewcCBZxKhEo_J5XvgtxSNM,,,,,,,,,,,
,,,,,,,,,,,,,,p,1,0.957,space,0.466,0,48,48,60,1,9_dist_red/trial11.png,,,1,9,redHorizontal,p,50,65,male,2021-02-24_18h26.57.611,exp11,2020.2.6,Win32,60,IwAR0VKvOVLfO9x4NH2ByDS5JjHnaE1WnLh7ltAewcCBZxKhEo_J5XvgtxSNM,,,,,,,,,,,
,,,,,,,,,,,,,,a,1,1.011,space,0.668,0,49,49,111,1,0_targ_1_dist_red/trial12.png,,,0,1,redHorizontal,a,50,65,male,2021-02-24_18h26.57.611,exp11,2020.2.6,Win32,60,IwAR0VKvOVLfO9x4NH2ByDS5JjHnaE1WnLh7ltAewcCBZxKhEo_J5XvgtxSNM,,,,,,,,,,,
,,,,,,,,,,,,,,a,1,0.962,space,0.453,0,50,50,100,1,0_targ_1_dist_red/trial1.png,,,0,1,redHorizontal,a,50,65,male,2021-02-24_18h26.57.611,exp11,2020.2.6,Win32,60,IwAR0VKvOVLfO9x4NH2ByDS5JjHnaE1WnLh7ltAewcCBZxKhEo_J5XvgtxSNM,,,,,,,,,,,
,,,,,,,,,,,,,,a,1,1.629,space,0.537,0,51,51,176,1,0_targ_16_dist_red/trial2.png,,,0,16,redHorizontal,a,50,65,male,2021-02-24_18h26.57.611,exp11,2020.2.6,Win32,60,IwAR0VKvOVLfO9x4NH2ByDS5JjHnaE1WnLh7ltAewcCBZxKhEo_J5XvgtxSNM,,,,,,,,,,,
,,,,,,,,,,,,,,p,1,0.634,space,0.474,0,52,52,17,1,0_dist_red/trial18.png,,,1,0,redHorizontal,p,50,65,male,2021-02-24_18h26.57.611,exp11,2020.2.6,Win32,60,IwAR0VKvOVLfO9x4NH2ByDS5JjHnaE1WnLh7ltAewcCBZxKhEo_J5XvgtxSNM,,,,,,,,,,,
,,,,,,,,,,,,,,p,1,0.495,space,0.267,0,53,53,20,1,0_dist_red/trial21.png,,,1,0,redHorizontal,p,50,65,male,2021-02-24_18h26.57.611,exp11,2020.2.6,Win32,60,IwAR0VKvOVLfO9x4NH2ByDS5JjHnaE1WnLh7ltAewcCBZxKhEo_J5XvgtxSNM,,,,,,,,,,,
,,,,,,,,,,,,,,a,1,1.217,space,0.441,0,54,54,142,1,0_targ_4_dist_red/trial18.png,,,0,4,redHorizontal,a,50,65,male,2021-02-24_18h26.57.611,exp11,2020.2.6,Win32,60,IwAR0VKvOVLfO9x4NH2ByDS5JjHnaE1WnLh7ltAewcCBZxKhEo_J5XvgtxSNM,,,,,,,,,,,
,,,,,,,,,,,,,,p,1,0.626,space,0.235,0,55,55,71,1,9_dist_red/trial22.png,,,1,9,redHorizontal,p,50,65,male,2021-02-24_18h26.57.611,exp11,2020.2.6,Win32,60,IwAR0VKvOVLfO9x4NH2ByDS5JjHnaE1WnLh7ltAewcCBZxKhEo_J5XvgtxSNM,,,,,,,,,,,
,,,,,,,,,,,,,,a,1,0.948,space,0.4,0,56,56,131,1,0_targ_4_dist_red/trial7.png,,,0,4,redHorizontal,a,50,65,male,2021-02-24_18h26.57.611,exp11,2020.2.6,Win32,60,IwAR0VKvOVLfO9x4NH2ByDS5JjHnaE1WnLh7ltAewcCBZxKhEo_J5XvgtxSNM,,,,,,,,,,,
,,,,,,,,,,,,,,a,1,0.825,space,0.387,0,57,57,199,1,0_targ_16_dist_red/trial25.png,,,0,16,redHorizontal,a,50,65,male,2021-02-24_18h26.57.611,exp11,2020.2.6,Win32,60,IwAR0VKvOVLfO9x4NH2ByDS5JjHnaE1WnLh7ltAewcCBZxKhEo_J5XvgtxSNM,,,,,,,,,,,
,,,,,,,,,,,,,,a,1,0.811,space,0.409,0,58,58,148,1,0_targ_4_dist_red/trial24.png,,,0,4,redHorizontal,a,50,65,male,2021-02-24_18h26.57.611,exp11,2020.2.6,Win32,60,IwAR0VKvOVLfO9x4NH2ByDS5JjHnaE1WnLh7ltAewcCBZxKhEo_J5XvgtxSNM,,,,,,,,,,,
,,,,,,,,,,,,,,p,1,0.644,space,0.402,0,59,59,11,1,0_dist_red/trial12.png,,,1,0,redHorizontal,p,50,65,male,2021-02-24_18h26.57.611,exp11,2020.2.6,Win32,60,IwAR0VKvOVLfO9x4NH2ByDS5JjHnaE1WnLh7ltAewcCBZxKhEo_J5XvgtxSNM,,,,,,,,,,,
,,,,,,,,,,,,,,p,1,0.628,space,0.427,0,60,60,21,1,0_dist_red/trial22.png,,,1,0,redHorizontal,p,50,65,male,2021-02-24_18h26.57.611,exp11,2020.2.6,Win32,60,IwAR0VKvOVLfO9x4NH2ByDS5JjHnaE1WnLh7ltAewcCBZxKhEo_J5XvgtxSNM,,,,,,,,,,,
,,,,,,,,,,,,,,a,0,0.715,space,1.335,0,61,61,54,1,9_dist_red/trial5.png,,,1,9,redHorizontal,p,50,65,male,2021-02-24_18h26.57.611,exp11,2020.2.6,Win32,60,IwAR0VKvOVLfO9x4NH2ByDS5JjHnaE1WnLh7ltAewcCBZxKhEo_J5XvgtxSNM,,,,,,,,,,,
,,,,,,,,,,,,,,p,1,1.004,space,0.424,0,62,62,8,1,0_dist_red/trial9.png,,,1,0,redHorizontal,p,50,65,male,2021-02-24_18h26.57.611,exp11,2020.2.6,Win32,60,IwAR0VKvOVLfO9x4NH2ByDS5JjHnaE1WnLh7ltAewcCBZxKhEo_J5XvgtxSNM,,,,,,,,,,,
,,,,,,,,,,,,,,p,1,0.602,space,0.2,0,63,63,98,1,15_dist_red/trial24.png,,,1,15,redHorizontal,p,50,65,male,2021-02-24_18h26.57.611,exp11,2020.2.6,Win32,60,IwAR0VKvOVLfO9x4NH2ByDS5JjHnaE1WnLh7ltAewcCBZxKhEo_J5XvgtxSNM,,,,,,,,,,,
,,,,,,,,,,,,,,p,1,0.878,space,0.267,0,64,64,57,1,9_dist_red/trial8.png,,,1,9,redHorizontal,p,50,65,male,2021-02-24_18h26.57.611,exp11,2020.2.6,Win32,60,IwAR0VKvOVLfO9x4NH2ByDS5JjHnaE1WnLh7ltAewcCBZxKhEo_J5XvgtxSNM,,,,,,,,,,,
,,,,,,,,,,,,,,p,1,0.693,space,0.2,0,65,65,67,1,9_dist_red/trial18.png,,,1,9,redHorizontal,p,50,65,male,2021-02-24_18h26.57.611,exp11,2020.2.6,Win32,60,IwAR0VKvOVLfO9x4NH2ByDS5JjHnaE1WnLh7ltAewcCBZxKhEo_J5XvgtxSNM,,,,,,,,,,,
,,,,,,,,,,,,,,p,1,0.849,space,0.176,0,66,66,39,1,3_dist_red/trial15.png,,,1,3,redHorizontal,p,50,65,male,2021-02-24_18h26.57.611,exp11,2020.2.6,Win32,60,IwAR0VKvOVLfO9x4NH2ByDS5JjHnaE1WnLh7ltAewcCBZxKhEo_J5XvgtxSNM,,,,,,,,,,,
,,,,,,,,,,,,,,p,1,0.993,space,0.237,0,67,67,69,1,9_dist_red/trial20.png,,,1,9,redHorizontal,p,50,65,male,2021-02-24_18h26.57.611,exp11,2020.2.6,Win32,60,IwAR0VKvOVLfO9x4NH2ByDS5JjHnaE1WnLh7ltAewcCBZxKhEo_J5XvgtxSNM,,,,,,,,,,,
,,,,,,,,,,,,,,a,1,1.547,space,0.382,0,68,68,156,1,0_targ_10_dist_red/trial7.png,,,0,10,redHorizontal,a,50,65,male,2021-02-24_18h26.57.611,exp11,2020.2.6,Win32,60,IwAR0VKvOVLfO9x4NH2ByDS5JjHnaE1WnLh7ltAewcCBZxKhEo_J5XvgtxSNM,,,,,,,,,,,
,,,,,,,,,,,,,,a,1,1.131,space,0.399,0,69,69,145,1,0_targ_4_dist_red/trial21.png,,,0,4,redHorizontal,a,50,65,male,2021-02-24_18h26.57.611,exp11,2020.2.6,Win32,60,IwAR0VKvOVLfO9x4NH2ByDS5JjHnaE1WnLh7ltAewcCBZxKhEo_J5XvgtxSNM,,,,,,,,,,,
,,,,,,,,,,,,,,a,1,0.892,space,0.452,0,70,70,108,1,0_targ_1_dist_red/trial9.png,,,0,1,redHorizontal,a,50,65,male,2021-02-24_18h26.57.611,exp11,2020.2.6,Win32,60,IwAR0VKvOVLfO9x4NH2ByDS5JjHnaE1WnLh7ltAewcCBZxKhEo_J5XvgtxSNM,,,,,,,,,,,
,,,,,,,,,,,,,,p,1,0.728,space,0.707,0,71,71,13,1,0_dist_red/trial14.png,,,1,0,redHorizontal,p,50,65,male,2021-02-24_18h26.57.611,exp11,2020.2.6,Win32,60,IwAR0VKvOVLfO9x4NH2ByDS5JjHnaE1WnLh7ltAewcCBZxKhEo_J5XvgtxSNM,,,,,,,,,,,
,,,,,,,,,,,,,,p,1,0.986,space,0.486,0,72,72,95,1,15_dist_red/trial21.png,,,1,15,redHorizontal,p,50,65,male,2021-02-24_18h26.57.611,exp11,2020.2.6,Win32,60,IwAR0VKvOVLfO9x4NH2ByDS5JjHnaE1WnLh7ltAewcCBZxKhEo_J5XvgtxSNM,,,,,,,,,,,
,,,,,,,,,,,,,,a,1,1.127,space,0.403,0,73,73,110,1,0_targ_1_dist_red/trial11.png,,,0,1,redHorizontal,a,50,65,male,2021-02-24_18h26.57.611,exp11,2020.2.6,Win32,60,IwAR0VKvOVLfO9x4NH2ByDS5JjHnaE1WnLh7ltAewcCBZxKhEo_J5XvgtxSNM,,,,,,,,,,,
,,,,,,,,,,,,,,a,1,1.059,space,0.419,0,74,74,124,1,0_targ_1_dist_red/trial25.png,,,0,1,redHorizontal,a,50,65,male,2021-02-24_18h26.57.611,exp11,2020.2.6,Win32,60,IwAR0VKvOVLfO9x4NH2ByDS5JjHnaE1WnLh7ltAewcCBZxKhEo_J5XvgtxSNM,,,,,,,,,,,
,,,,,,,,,,,,,,p,1,1.828,space,0.633,0,75,75,80,1,15_dist_red/trial6.png,,,1,15,redHorizontal,p,50,65,male,2021-02-24_18h26.57.611,exp11,2020.2.6,Win32,60,IwAR0VKvOVLfO9x4NH2ByDS5JjHnaE1WnLh7ltAewcCBZxKhEo_J5XvgtxSNM,,,,,,,,,,,
,,,,,,,,,,,,,,a,1,1.208,space,0.601,0,76,76,159,1,0_targ_10_dist_red/trial10.png,,,0,10,redHorizontal,a,50,65,male,2021-02-24_18h26.57.611,exp11,2020.2.6,Win32,60,IwAR0VKvOVLfO9x4NH2ByDS5JjHnaE1WnLh7ltAewcCBZxKhEo_J5XvgtxSNM,,,,,,,,,,,
,,,,,,,,,,,,,,a,1,0.953,space,0.493,0,77,77,158,1,0_targ_10_dist_red/trial9.png,,,0,10,redHorizontal,a,50,65,male,2021-02-24_18h26.57.611,exp11,2020.2.6,Win32,60,IwAR0VKvOVLfO9x4NH2ByDS5JjHnaE1WnLh7ltAewcCBZxKhEo_J5XvgtxSNM,,,,,,,,,,,
,,,,,,,,,,,,,,p,1,0.626,space,0.525,0,78,78,14,1,0_dist_red/trial15.png,,,1,0,redHorizontal,p,50,65,male,2021-02-24_18h26.57.611,exp11,2020.2.6,Win32,60,IwAR0VKvOVLfO9x4NH2ByDS5JjHnaE1WnLh7ltAewcCBZxKhEo_J5XvgtxSNM,,,,,,,,,,,
,,,,,,,,,,,,,,p,1,0.8,space,0.417,0,79,79,86,1,15_dist_red/trial12.png,,,1,15,redHorizontal,p,50,65,male,2021-02-24_18h26.57.611,exp11,2020.2.6,Win32,60,IwAR0VKvOVLfO9x4NH2ByDS5JjHnaE1WnLh7ltAewcCBZxKhEo_J5XvgtxSNM,,,,,,,,,,,
,,,,,,,,,,,,,,p,1,0.726,space,0.285,0,80,80,72,1,9_dist_red/trial23.png,,,1,9,redHorizontal,p,50,65,male,2021-02-24_18h26.57.611,exp11,2020.2.6,Win32,60,IwAR0VKvOVLfO9x4NH2ByDS5JjHnaE1WnLh7ltAewcCBZxKhEo_J5XvgtxSNM,,,,,,,,,,,
,,,,,,,,,,,,,,a,1,0.985,space,0.451,0,81,81,139,1,0_targ_4_dist_red/trial15.png,,,0,4,redHorizontal,a,50,65,male,2021-02-24_18h26.57.611,exp11,2020.2.6,Win32,60,IwAR0VKvOVLfO9x4NH2ByDS5JjHnaE1WnLh7ltAewcCBZxKhEo_J5XvgtxSNM,,,,,,,,,,,
,,,,,,,,,,,,,,a,1,1.178,space,0.534,0,82,82,186,1,0_targ_16_dist_red/trial12.png,,,0,16,redHorizontal,a,50,65,male,2021-02-24_18h26.57.611,exp11,2020.2.6,Win32,60,IwAR0VKvOVLfO9x4NH2ByDS5JjHnaE1WnLh7ltAewcCBZxKhEo_J5XvgtxSNM,,,,,,,,,,,
,,,,,,,,,,,,,,p,1,0.693,space,0.434,0,83,83,46,1,3_dist_red/trial22.png,,,1,3,redHorizontal,p,50,65,male,2021-02-24_18h26.57.611,exp11,2020.2.6,Win32,60,IwAR0VKvOVLfO9x4NH2ByDS5JjHnaE1WnLh7ltAewcCBZxKhEo_J5XvgtxSNM,,,,,,,,,,,
,,,,,,,,,,,,,,a,1,1.01,space,0.434,0,84,84,125,1,0_targ_4_dist_red/trial1.png,,,0,4,redHorizontal,a,50,65,male,2021-02-24_18h26.57.611,exp11,2020.2.6,Win32,60,IwAR0VKvOVLfO9x4NH2ByDS5JjHnaE1WnLh7ltAewcCBZxKhEo_J5XvgtxSNM,,,,,,,,,,,
,,,,,,,,,,,,,,p,1,0.629,space,0.483,0,85,85,9,1,0_dist_red/trial10.png,,,1,0,redHorizontal,p,50,65,male,2021-02-24_18h26.57.611,exp11,2020.2.6,Win32,60,IwAR0VKvOVLfO9x4NH2ByDS5JjHnaE1WnLh7ltAewcCBZxKhEo_J5XvgtxSNM,,,,,,,,,,,
,,,,,,,,,,,,,,a,1,0.943,space,0.472,0,86,86,143,1,0_targ_4_dist_red/trial19.png,,,0,4,redHorizontal,a,50,65,male,2021-02-24_18h26.57.611,exp11,2020.2.6,Win32,60,IwAR0VKvOVLfO9x4NH2ByDS5JjHnaE1WnLh7ltAewcCBZxKhEo_J5XvgtxSNM,,,,,,,,,,,
,,,,,,,,,,,,,,a,1,0.812,space,0.485,0,87,87,138,1,0_targ_4_dist_red/trial14.png,,,0,4,redHorizontal,a,50,65,male,2021-02-24_18h26.57.611,exp11,2020.2.6,Win32,60,IwAR0VKvOVLfO9x4NH2ByDS5JjHnaE1WnLh7ltAewcCBZxKhEo_J5XvgtxSNM,,,,,,,,,,,
,,,,,,,,,,,,,,a,1,0.793,space,0.4,0,88,88,129,1,0_targ_4_dist_red/trial5.png,,,0,4,redHorizontal,a,50,65,male,2021-02-24_18h26.57.611,exp11,2020.2.6,Win32,60,IwAR0VKvOVLfO9x4NH2ByDS5JjHnaE1WnLh7ltAewcCBZxKhEo_J5XvgtxSNM,,,,,,,,,,,
,,,,,,,,,,,,,,a,1,0.81,space,0.417,0,89,89,119,1,0_targ_1_dist_red/trial20.png,,,0,1,redHorizontal,a,50,65,male,2021-02-24_18h26.57.611,exp11,2020.2.6,Win32,60,IwAR0VKvOVLfO9x4NH2ByDS5JjHnaE1WnLh7ltAewcCBZxKhEo_J5XvgtxSNM,,,,,,,,,,,
,,,,,,,,,,,,,,a,1,1.076,space,0.426,0,90,90,163,1,0_targ_10_dist_red/trial14.png,,,0,10,redHorizontal,a,50,65,male,2021-02-24_18h26.57.611,exp11,2020.2.6,Win32,60,IwAR0VKvOVLfO9x4NH2ByDS5JjHnaE1WnLh7ltAewcCBZxKhEo_J5XvgtxSNM,,,,,,,,,,,
,,,,,,,,,,,,,,a,1,0.709,space,0.418,0,91,91,107,1,0_targ_1_dist_red/trial8.png,,,0,1,redHorizontal,a,50,65,male,2021-02-24_18h26.57.611,exp11,2020.2.6,Win32,60,IwAR0VKvOVLfO9x4NH2ByDS5JjHnaE1WnLh7ltAewcCBZxKhEo_J5XvgtxSNM,,,,,,,,,,,
,,,,,,,,,,,,,,a,1,0.76,space,0.416,0,92,92,128,1,0_targ_4_dist_red/trial4.png,,,0,4,redHorizontal,a,50,65,male,2021-02-24_18h26.57.611,exp11,2020.2.6,Win32,60,IwAR0VKvOVLfO9x4NH2ByDS5JjHnaE1WnLh7ltAewcCBZxKhEo_J5XvgtxSNM,,,,,,,,,,,
,,,,,,,,,,,,,,p,1,0.599,space,0.402,0,93,93,58,1,9_dist_red/trial9.png,,,1,9,redHorizontal,p,50,65,male,2021-02-24_18h26.57.611,exp11,2020.2.6,Win32,60,IwAR0VKvOVLfO9x4NH2ByDS5JjHnaE1WnLh7ltAewcCBZxKhEo_J5XvgtxSNM,,,,,,,,,,,
,,,,,,,,,,,,,,a,1,1.98,space,0.384,0,94,94,191,1,0_targ_16_dist_red/trial17.png,,,0,16,redHorizontal,a,50,65,male,2021-02-24_18h26.57.611,exp11,2020.2.6,Win32,60,IwAR0VKvOVLfO9x4NH2ByDS5JjHnaE1WnLh7ltAewcCBZxKhEo_J5XvgtxSNM,,,,,,,,,,,
,,,,,,,,,,,,,,p,1,0.739,space,0.244,0,95,95,78,1,15_dist_red/trial4.png,,,1,15,redHorizontal,p,50,65,male,2021-02-24_18h26.57.611,exp11,2020.2.6,Win32,60,IwAR0VKvOVLfO9x4NH2ByDS5JjHnaE1WnLh7ltAewcCBZxKhEo_J5XvgtxSNM,,,,,,,,,,,
,,,,,,,,,,,,,,a,1,0.977,space,0.584,0,96,96,140,1,0_targ_4_dist_red/trial6.png,,,0,4,redHorizontal,a,50,65,male,2021-02-24_18h26.57.611,exp11,2020.2.6,Win32,60,IwAR0VKvOVLfO9x4NH2ByDS5JjHnaE1WnLh7ltAewcCBZxKhEo_J5XvgtxSNM,,,,,,,,,,,
,,,,,,,,,,,,,,p,1,0.568,space,0.393,0,97,97,7,1,0_dist_red/trial8.png,,,1,0,redHorizontal,p,50,65,male,2021-02-24_18h26.57.611,exp11,2020.2.6,Win32,60,IwAR0VKvOVLfO9x4NH2ByDS5JjHnaE1WnLh7ltAewcCBZxKhEo_J5XvgtxSNM,,,,,,,,,,,
,,,,,,,,,,,,,,a,1,1.149,space,0.418,0,98,98,133,1,0_targ_4_dist_red/trial9.png,,,0,4,redHorizontal,a,50,65,male,2021-02-24_18h26.57.611,exp11,2020.2.6,Win32,60,IwAR0VKvOVLfO9x4NH2ByDS5JjHnaE1WnLh7ltAewcCBZxKhEo_J5XvgtxSNM,,,,,,,,,,,
,,,,,,,,,,,,,,a,1,1.026,space,0.417,0,99,99,102,1,0_targ_1_dist_red/trial3.png,,,0,1,redHorizontal,a,50,65,male,2021-02-24_18h26.57.611,exp11,2020.2.6,Win32,60,IwAR0VKvOVLfO9x4NH2ByDS5JjHnaE1WnLh7ltAewcCBZxKhEo_J5XvgtxSNM,,,,,,,,,,,
,,,,,,,,,,,,,,p,1,0.677,space,0.318,0,100,100,25,1,3_dist_red/trial1.png,,,1,3,redHorizontal,p,50,65,male,2021-02-24_18h26.57.611,exp11,2020.2.6,Win32,60,IwAR0VKvOVLfO9x4NH2ByDS5JjHnaE1WnLh7ltAewcCBZxKhEo_J5XvgtxSNM,,,,,,,,,,,
,,,,,,,,,,,,,,p,1,0.927,space,0.245,0,101,101,41,1,3_dist_red/trial17.png,,,1,3,redHorizontal,p,50,65,male,2021-02-24_18h26.57.611,exp11,2020.2.6,Win32,60,IwAR0VKvOVLfO9x4NH2ByDS5JjHnaE1WnLh7ltAewcCBZxKhEo_J5XvgtxSNM,,,,,,,,,,,
,,,,,,,,,,,,,,a,1,1.048,space,0.401,0,102,102,115,1,0_targ_1_dist_red/trial6.png,,,0,1,redHorizontal,a,50,65,male,2021-02-24_18h26.57.611,exp11,2020.2.6,Win32,60,IwAR0VKvOVLfO9x4NH2ByDS5JjHnaE1WnLh7ltAewcCBZxKhEo_J5XvgtxSNM,,,,,,,,,,,
,,,,,,,,,,,,,,a,1,1.061,space,0.4,0,103,103,149,1,0_targ_4_dist_red/trial25.png,,,0,4,redHorizontal,a,50,65,male,2021-02-24_18h26.57.611,exp11,2020.2.6,Win32,60,IwAR0VKvOVLfO9x4NH2ByDS5JjHnaE1WnLh7ltAewcCBZxKhEo_J5XvgtxSNM,,,,,,,,,,,
,,,,,,,,,,,,,,p,1,0.696,space,0.37,0,104,104,28,1,3_dist_red/trial4.png,,,1,3,redHorizontal,p,50,65,male,2021-02-24_18h26.57.611,exp11,2020.2.6,Win32,60,IwAR0VKvOVLfO9x4NH2ByDS5JjHnaE1WnLh7ltAewcCBZxKhEo_J5XvgtxSNM,,,,,,,,,,,
,,,,,,,,,,,,,,a,1,1.112,space,0.458,0,105,105,155,1,0_targ_10_dist_red/trial6.png,,,0,10,redHorizontal,a,50,65,male,2021-02-24_18h26.57.611,exp11,2020.2.6,Win32,60,IwAR0VKvOVLfO9x4NH2ByDS5JjHnaE1WnLh7ltAewcCBZxKhEo_J5XvgtxSNM,,,,,,,,,,,
,,,,,,,,,,,,,,p,1,0.743,space,0.282,0,106,106,93,1,15_dist_red/trial19.png,,,1,15,redHorizontal,p,50,65,male,2021-02-24_18h26.57.611,exp11,2020.2.6,Win32,60,IwAR0VKvOVLfO9x4NH2ByDS5JjHnaE1WnLh7ltAewcCBZxKhEo_J5XvgtxSNM,,,,,,,,,,,
,,,,,,,,,,,,,,p,1,0.926,space,0.517,0,107,107,35,1,3_dist_red/trial11.png,,,1,3,redHorizontal,p,50,65,male,2021-02-24_18h26.57.611,exp11,2020.2.6,Win32,60,IwAR0VKvOVLfO9x4NH2ByDS5JjHnaE1WnLh7ltAewcCBZxKhEo_J5XvgtxSNM,,,,,,,,,,,
,,,,,,,,,,,,,,a,1,1.083,space,0.351,0,108,108,117,1,0_targ_1_dist_red/trial18.png,,,0,1,redHorizontal,a,50,65,male,2021-02-24_18h26.57.611,exp11,2020.2.6,Win32,60,IwAR0VKvOVLfO9x4NH2ByDS5JjHnaE1WnLh7ltAewcCBZxKhEo_J5XvgtxSNM,,,,,,,,,,,
,,,,,,,,,,,,,,p,1,0.743,space,0.555,0,109,109,33,1,3_dist_red/trial9.png,,,1,3,redHorizontal,p,50,65,male,2021-02-24_18h26.57.611,exp11,2020.2.6,Win32,60,IwAR0VKvOVLfO9x4NH2ByDS5JjHnaE1WnLh7ltAewcCBZxKhEo_J5XvgtxSNM,,,,,,,,,,,
,,,,,,,,,,,,,,a,1,0.976,space,0.375,0,110,110,173,1,0_targ_10_dist_red/trial24.png,,,0,10,redHorizontal,a,50,65,male,2021-02-24_18h26.57.611,exp11,2020.2.6,Win32,60,IwAR0VKvOVLfO9x4NH2ByDS5JjHnaE1WnLh7ltAewcCBZxKhEo_J5XvgtxSNM,,,,,,,,,,,
,,,,,,,,,,,,,,a,1,0.98,space,0.357,0,111,111,106,1,0_targ_1_dist_red/trial7.png,,,0,1,redHorizontal,a,50,65,male,2021-02-24_18h26.57.611,exp11,2020.2.6,Win32,60,IwAR0VKvOVLfO9x4NH2ByDS5JjHnaE1WnLh7ltAewcCBZxKhEo_J5XvgtxSNM,,,,,,,,,,,
,,,,,,,,,,,,,,p,1,0.93,space,0.358,0,112,112,29,1,3_dist_red/trial5.png,,,1,3,redHorizontal,p,50,65,male,2021-02-24_18h26.57.611,exp11,2020.2.6,Win32,60,IwAR0VKvOVLfO9x4NH2ByDS5JjHnaE1WnLh7ltAewcCBZxKhEo_J5XvgtxSNM,,,,,,,,,,,
,,,,,,,,,,,,,,p,1,0.734,space,0.388,0,113,113,32,1,3_dist_red/trial8.png,,,1,3,redHorizontal,p,50,65,male,2021-02-24_18h26.57.611,exp11,2020.2.6,Win32,60,IwAR0VKvOVLfO9x4NH2ByDS5JjHnaE1WnLh7ltAewcCBZxKhEo_J5XvgtxSNM,,,,,,,,,,,
,,,,,,,,,,,,,,a,1,1.081,space,0.435,0,114,114,160,1,0_targ_10_dist_red/trial11.png,,,0,10,redHorizontal,a,50,65,male,2021-02-24_18h26.57.611,exp11,2020.2.6,Win32,60,IwAR0VKvOVLfO9x4NH2ByDS5JjHnaE1WnLh7ltAewcCBZxKhEo_J5XvgtxSNM,,,,,,,,,,,
,,,,,,,,,,,,,,a,1,1.167,space,0.401,0,115,115,101,1,0_targ_1_dist_red/trial2.png,,,0,1,redHorizontal,a,50,65,male,2021-02-24_18h26.57.611,exp11,2020.2.6,Win32,60,IwAR0VKvOVLfO9x4NH2ByDS5JjHnaE1WnLh7ltAewcCBZxKhEo_J5XvgtxSNM,,,,,,,,,,,
,,,,,,,,,,,,,,p,1,0.926,space,0.503,0,116,116,3,1,0_dist_red/trial4.png,,,1,0,redHorizontal,p,50,65,male,2021-02-24_18h26.57.611,exp11,2020.2.6,Win32,60,IwAR0VKvOVLfO9x4NH2ByDS5JjHnaE1WnLh7ltAewcCBZxKhEo_J5XvgtxSNM,,,,,,,,,,,
,,,,,,,,,,,,,,a,1,0.913,space,0.403,0,117,117,112,1,0_targ_1_dist_red/trial13.png,,,0,1,redHorizontal,a,50,65,male,2021-02-24_18h26.57.611,exp11,2020.2.6,Win32,60,IwAR0VKvOVLfO9x4NH2ByDS5JjHnaE1WnLh7ltAewcCBZxKhEo_J5XvgtxSNM,,,,,,,,,,,
,,,,,,,,,,,,,,p,1,0.712,space,0.401,0,118,118,61,1,9_dist_red/trial12.png,,,1,9,redHorizontal,p,50,65,male,2021-02-24_18h26.57.611,exp11,2020.2.6,Win32,60,IwAR0VKvOVLfO9x4NH2ByDS5JjHnaE1WnLh7ltAewcCBZxKhEo_J5XvgtxSNM,,,,,,,,,,,
,,,,,,,,,,,,,,p,1,0.984,space,0.516,0,119,119,1,1,0_dist_red/trial2.png,,,1,0,redHorizontal,p,50,65,male,2021-02-24_18h26.57.611,exp11,2020.2.6,Win32,60,IwAR0VKvOVLfO9x4NH2ByDS5JjHnaE1WnLh7ltAewcCBZxKhEo_J5XvgtxSNM,,,,,,,,,,,
,,,,,,,,,,,,,,p,1,0.727,space,0.432,0,120,120,50,1,9_dist_red/trial1.png,,,1,9,redHorizontal,p,50,65,male,2021-02-24_18h26.57.611,exp11,2020.2.6,Win32,60,IwAR0VKvOVLfO9x4NH2ByDS5JjHnaE1WnLh7ltAewcCBZxKhEo_J5XvgtxSNM,,,,,,,,,,,
,,,,,,,,,,,,,,a,1,1.766,space,0.377,0,121,121,188,1,0_targ_16_dist_red/trial14.png,,,0,16,redHorizontal,a,50,65,male,2021-02-24_18h26.57.611,exp11,2020.2.6,Win32,60,IwAR0VKvOVLfO9x4NH2ByDS5JjHnaE1WnLh7ltAewcCBZxKhEo_J5XvgtxSNM,,,,,,,,,,,
,,,,,,,,,,,,,,a,1,1.23,space,0.451,0,122,122,194,1,0_targ_16_dist_red/trial20.png,,,0,16,redHorizontal,a,50,65,male,2021-02-24_18h26.57.611,exp11,2020.2.6,Win32,60,IwAR0VKvOVLfO9x4NH2ByDS5JjHnaE1WnLh7ltAewcCBZxKhEo_J5XvgtxSNM,,,,,,,,,,,
,,,,,,,,,,,,,,p,1,0.56,space,0.467,0,123,123,24,1,0_dist_red/trial25.png,,,1,0,redHorizontal,p,50,65,male,2021-02-24_18h26.57.611,exp11,2020.2.6,Win32,60,IwAR0VKvOVLfO9x4NH2ByDS5JjHnaE1WnLh7ltAewcCBZxKhEo_J5XvgtxSNM,,,,,,,,,,,
,,,,,,,,,,,,,,p,1,0.717,space,0.334,0,124,124,64,1,9_dist_red/trial15.png,,,1,9,redHorizontal,p,50,65,male,2021-02-24_18h26.57.611,exp11,2020.2.6,Win32,60,IwAR0VKvOVLfO9x4NH2ByDS5JjHnaE1WnLh7ltAewcCBZxKhEo_J5XvgtxSNM,,,,,,,,,,,
,,,,,,,,,,,,,,p,1,0.542,space,0.318,0,125,125,12,1,0_dist_red/trial13.png,,,1,0,redHorizontal,p,50,65,male,2021-02-24_18h26.57.611,exp11,2020.2.6,Win32,60,IwAR0VKvOVLfO9x4NH2ByDS5JjHnaE1WnLh7ltAewcCBZxKhEo_J5XvgtxSNM,,,,,,,,,,,
,,,,,,,,,,,,,,a,1,1.26,space,0.422,0,126,126,154,1,0_targ_10_dist_red/trial5.png,,,0,10,redHorizontal,a,50,65,male,2021-02-24_18h26.57.611,exp11,2020.2.6,Win32,60,IwAR0VKvOVLfO9x4NH2ByDS5JjHnaE1WnLh7ltAewcCBZxKhEo_J5XvgtxSNM,,,,,,,,,,,
,,,,,,,,,,,,,,a,1,1.111,space,0.426,0,127,127,177,1,0_targ_16_dist_red/trial3.png,,,0,16,redHorizontal,a,50,65,male,2021-02-24_18h26.57.611,exp11,2020.2.6,Win32,60,IwAR0VKvOVLfO9x4NH2ByDS5JjHnaE1WnLh7ltAewcCBZxKhEo_J5XvgtxSNM,,,,,,,,,,,
,,,,,,,,,,,,,,p,1,0.994,space,0.253,0,128,128,49,1,3_dist_red/trial25.png,,,1,3,redHorizontal,p,50,65,male,2021-02-24_18h26.57.611,exp11,2020.2.6,Win32,60,IwAR0VKvOVLfO9x4NH2ByDS5JjHnaE1WnLh7ltAewcCBZxKhEo_J5XvgtxSNM,,,,,,,,,,,
,,,,,,,,,,,,,,a,1,1.225,space,0.438,0,129,129,196,1,0_targ_16_dist_red/trial22.png,,,0,16,redHorizontal,a,50,65,male,2021-02-24_18h26.57.611,exp11,2020.2.6,Win32,60,IwAR0VKvOVLfO9x4NH2ByDS5JjHnaE1WnLh7ltAewcCBZxKhEo_J5XvgtxSNM,,,,,,,,,,,
,,,,,,,,,,,,,,p,1,0.593,space,0.418,0,130,130,19,1,0_dist_red/trial20.png,,,1,0,redHorizontal,p,50,65,male,2021-02-24_18h26.57.611,exp11,2020.2.6,Win32,60,IwAR0VKvOVLfO9x4NH2ByDS5JjHnaE1WnLh7ltAewcCBZxKhEo_J5XvgtxSNM,,,,,,,,,,,
,,,,,,,,,,,,,,a,0,1.162,space,1.224,0,131,131,73,1,9_dist_red/trial24.png,,,1,9,redHorizontal,p,50,65,male,2021-02-24_18h26.57.611,exp11,2020.2.6,Win32,60,IwAR0VKvOVLfO9x4NH2ByDS5JjHnaE1WnLh7ltAewcCBZxKhEo_J5XvgtxSNM,,,,,,,,,,,
,,,,,,,,,,,,,,p,0,0.765,space,1.753,0,132,132,172,1,0_targ_10_dist_red/trial23.png,,,0,10,redHorizontal,a,50,65,male,2021-02-24_18h26.57.611,exp11,2020.2.6,Win32,60,IwAR0VKvOVLfO9x4NH2ByDS5JjHnaE1WnLh7ltAewcCBZxKhEo_J5XvgtxSNM,,,,,,,,,,,
,,,,,,,,,,,,,,p,1,0.06,space,1.932,0,133,133,68,1,9_dist_red/trial19.png,,,1,9,redHorizontal,p,50,65,male,2021-02-24_18h26.57.611,exp11,2020.2.6,Win32,60,IwAR0VKvOVLfO9x4NH2ByDS5JjHnaE1WnLh7ltAewcCBZxKhEo_J5XvgtxSNM,,,,,,,,,,,
,,,,,,,,,,,,,,p,1,0.734,space,0.321,0,134,134,94,1,15_dist_red/trial20.png,,,1,15,redHorizontal,p,50,65,male,2021-02-24_18h26.57.611,exp11,2020.2.6,Win32,60,IwAR0VKvOVLfO9x4NH2ByDS5JjHnaE1WnLh7ltAewcCBZxKhEo_J5XvgtxSNM,,,,,,,,,,,
,,,,,,,,,,,,,,p,1,0.612,space,0.242,0,135,135,62,1,9_dist_red/trial13.png,,,1,9,redHorizontal,p,50,65,male,2021-02-24_18h26.57.611,exp11,2020.2.6,Win32,60,IwAR0VKvOVLfO9x4NH2ByDS5JjHnaE1WnLh7ltAewcCBZxKhEo_J5XvgtxSNM,,,,,,,,,,,
,,,,,,,,,,,,,,p,1,0.676,space,0.994,0,136,136,0,1,0_dist_red/trial1.png,,,1,0,redHorizontal,p,50,65,male,2021-02-24_18h26.57.611,exp11,2020.2.6,Win32,60,IwAR0VKvOVLfO9x4NH2ByDS5JjHnaE1WnLh7ltAewcCBZxKhEo_J5XvgtxSNM,,,,,,,,,,,
,,,,,,,,,,,,,,a,1,1.561,space,0.57,0,137,137,184,1,0_targ_16_dist_red/trial10.png,,,0,16,redHorizontal,a,50,65,male,2021-02-24_18h26.57.611,exp11,2020.2.6,Win32,60,IwAR0VKvOVLfO9x4NH2ByDS5JjHnaE1WnLh7ltAewcCBZxKhEo_J5XvgtxSNM,,,,,,,,,,,
,,,,,,,,,,,,,,a,1,1.259,space,0.551,0,138,138,178,1,0_targ_16_dist_red/trial4.png,,,0,16,redHorizontal,a,50,65,male,2021-02-24_18h26.57.611,exp11,2020.2.6,Win32,60,IwAR0VKvOVLfO9x4NH2ByDS5JjHnaE1WnLh7ltAewcCBZxKhEo_J5XvgtxSNM,,,,,,,,,,,
,,,,,,,,,,,,,,p,1,0.561,space,0.368,0,139,139,10,1,0_dist_red/trial11.png,,,1,0,redHorizontal,p,50,65,male,2021-02-24_18h26.57.611,exp11,2020.2.6,Win32,60,IwAR0VKvOVLfO9x4NH2ByDS5JjHnaE1WnLh7ltAewcCBZxKhEo_J5XvgtxSNM,,,,,,,,,,,
,,,,,,,,,,,,,,a,1,0.798,space,0.418,0,140,140,164,1,0_targ_10_dist_red/trial15.png,,,0,10,redHorizontal,a,50,65,male,2021-02-24_18h26.57.611,exp11,2020.2.6,Win32,60,IwAR0VKvOVLfO9x4NH2ByDS5JjHnaE1WnLh7ltAewcCBZxKhEo_J5XvgtxSNM,,,,,,,,,,,
,,,,,,,,,,,,,,a,1,1.076,space,0.406,0,141,141,179,1,0_targ_16_dist_red/trial5.png,,,0,16,redHorizontal,a,50,65,male,2021-02-24_18h26.57.611,exp11,2020.2.6,Win32,60,IwAR0VKvOVLfO9x4NH2ByDS5JjHnaE1WnLh7ltAewcCBZxKhEo_J5XvgtxSNM,,,,,,,,,,,
,,,,,,,,,,,,,,p,1,0.675,space,0.453,0,142,142,42,1,3_dist_red/trial18.png,,,1,3,redHorizontal,p,50,65,male,2021-02-24_18h26.57.611,exp11,2020.2.6,Win32,60,IwAR0VKvOVLfO9x4NH2ByDS5JjHnaE1WnLh7ltAewcCBZxKhEo_J5XvgtxSNM,,,,,,,,,,,
,,,,,,,,,,,,,,a,1,1.043,space,0.533,0,143,143,175,1,0_targ_16_dist_red/trial1.png,,,0,16,redHorizontal,a,50,65,male,2021-02-24_18h26.57.611,exp11,2020.2.6,Win32,60,IwAR0VKvOVLfO9x4NH2ByDS5JjHnaE1WnLh7ltAewcCBZxKhEo_J5XvgtxSNM,,,,,,,,,,,
,,,,,,,,,,,,,,p,0,0.469,space,0.206,0,144,144,113,1,0_targ_1_dist_red/trial14.png,,,0,1,redHorizontal,a,50,65,male,2021-02-24_18h26.57.611,exp11,2020.2.6,Win32,60,IwAR0VKvOVLfO9x4NH2ByDS5JjHnaE1WnLh7ltAewcCBZxKhEo_J5XvgtxSNM,,,,,,,,,,,
,,,,,,,,,,,,,,a,1,1.062,space,0.654,0,145,145,109,1,0_targ_1_dist_red/trial10.png,,,0,1,redHorizontal,a,50,65,male,2021-02-24_18h26.57.611,exp11,2020.2.6,Win32,60,IwAR0VKvOVLfO9x4NH2ByDS5JjHnaE1WnLh7ltAewcCBZxKhEo_J5XvgtxSNM,,,,,,,,,,,
,,,,,,,,,,,,,,a,1,0.992,space,0.374,0,146,146,122,1,0_targ_1_dist_red/trial23.png,,,0,1,redHorizontal,a,50,65,male,2021-02-24_18h26.57.611,exp11,2020.2.6,Win32,60,IwAR0VKvOVLfO9x4NH2ByDS5JjHnaE1WnLh7ltAewcCBZxKhEo_J5XvgtxSNM,,,,,,,,,,,
,,,,,,,,,,,,,,p,1,0.812,space,0.401,0,147,147,30,1,3_dist_red/trial6.png,,,1,3,redHorizontal,p,50,65,male,2021-02-24_18h26.57.611,exp11,2020.2.6,Win32,60,IwAR0VKvOVLfO9x4NH2ByDS5JjHnaE1WnLh7ltAewcCBZxKhEo_J5XvgtxSNM,,,,,,,,,,,
,,,,,,,,,,,,,,p,1,0.709,space,0.326,0,148,148,37,1,3_dist_red/trial13.png,,,1,3,redHorizontal,p,50,65,male,2021-02-24_18h26.57.611,exp11,2020.2.6,Win32,60,IwAR0VKvOVLfO9x4NH2ByDS5JjHnaE1WnLh7ltAewcCBZxKhEo_J5XvgtxSNM,,,,,,,,,,,
,,,,,,,,,,,,,,p,1,1.044,space,0.601,0,149,149,81,1,15_dist_red/trial7.png,,,1,15,redHorizontal,p,50,65,male,2021-02-24_18h26.57.611,exp11,2020.2.6,Win32,60,IwAR0VKvOVLfO9x4NH2ByDS5JjHnaE1WnLh7ltAewcCBZxKhEo_J5XvgtxSNM,,,,,,,,,,,
,,,,,,,,,,,,,,p,1,1.077,space,0.441,0,150,150,75,1,15_dist_red/trial1.png,,,1,15,redHorizontal,p,50,65,male,2021-02-24_18h26.57.611,exp11,2020.2.6,Win32,60,IwAR0VKvOVLfO9x4NH2ByDS5JjHnaE1WnLh7ltAewcCBZxKhEo_J5XvgtxSNM,,,,,,,,,,,
,,,,,,,,,,,,,,p,1,0.742,space,0.522,0,151,151,31,1,3_dist_red/trial7.png,,,1,3,redHorizontal,p,50,65,male,2021-02-24_18h26.57.611,exp11,2020.2.6,Win32,60,IwAR0VKvOVLfO9x4NH2ByDS5JjHnaE1WnLh7ltAewcCBZxKhEo_J5XvgtxSNM,,,,,,,,,,,
,,,,,,,,,,,,,,a,1,1.36,space,0.475,0,152,152,151,1,0_targ_10_dist_red/trial2.png,,,0,10,redHorizontal,a,50,65,male,2021-02-24_18h26.57.611,exp11,2020.2.6,Win32,60,IwAR0VKvOVLfO9x4NH2ByDS5JjHnaE1WnLh7ltAewcCBZxKhEo_J5XvgtxSNM,,,,,,,,,,,
,,,,,,,,,,,,,,p,1,0.709,space,0.278,0,153,153,70,1,9_dist_red/trial21.png,,,1,9,redHorizontal,p,50,65,male,2021-02-24_18h26.57.611,exp11,2020.2.6,Win32,60,IwAR0VKvOVLfO9x4NH2ByDS5JjHnaE1WnLh7ltAewcCBZxKhEo_J5XvgtxSNM,,,,,,,,,,,
,,,,,,,,,,,,,,p,1,0.594,space,0.257,0,154,154,16,1,0_dist_red/trial17.png,,,1,0,redHorizontal,p,50,65,male,2021-02-24_18h26.57.611,exp11,2020.2.6,Win32,60,IwAR0VKvOVLfO9x4NH2ByDS5JjHnaE1WnLh7ltAewcCBZxKhEo_J5XvgtxSNM,,,,,,,,,,,
,,,,,,,,,,,,,,p,1,0.98,space,0.389,0,155,155,79,1,15_dist_red/trial5.png,,,1,15,redHorizontal,p,50,65,male,2021-02-24_18h26.57.611,exp11,2020.2.6,Win32,60,IwAR0VKvOVLfO9x4NH2ByDS5JjHnaE1WnLh7ltAewcCBZxKhEo_J5XvgtxSNM,,,,,,,,,,,
,,,,,,,,,,,,,,p,1,0.792,space,0.216,0,156,156,90,1,15_dist_red/trial16.png,,,1,15,redHorizontal,p,50,65,male,2021-02-24_18h26.57.611,exp11,2020.2.6,Win32,60,IwAR0VKvOVLfO9x4NH2ByDS5JjHnaE1WnLh7ltAewcCBZxKhEo_J5XvgtxSNM,,,,,,,,,,,
,,,,,,,,,,,,,,a,1,1.06,space,0.458,0,157,157,127,1,0_targ_4_dist_red/trial3.png,,,0,4,redHorizontal,a,50,65,male,2021-02-24_18h26.57.611,exp11,2020.2.6,Win32,60,IwAR0VKvOVLfO9x4NH2ByDS5JjHnaE1WnLh7ltAewcCBZxKhEo_J5XvgtxSNM,,,,,,,,,,,
,,,,,,,,,,,,,,p,1,0.8,space,0.257,0,158,158,91,1,15_dist_red/trial17.png,,,1,15,redHorizontal,p,50,65,male,2021-02-24_18h26.57.611,exp11,2020.2.6,Win32,60,IwAR0VKvOVLfO9x4NH2ByDS5JjHnaE1WnLh7ltAewcCBZxKhEo_J5XvgtxSNM,,,,,,,,,,,
,,,,,,,,,,,,,,p,1,0.66,space,0.208,0,159,159,18,1,0_dist_red/trial19.png,,,1,0,redHorizontal,p,50,65,male,2021-02-24_18h26.57.611,exp11,2020.2.6,Win32,60,IwAR0VKvOVLfO9x4NH2ByDS5JjHnaE1WnLh7ltAewcCBZxKhEo_J5XvgtxSNM,,,,,,,,,,,
,,,,,,,,,,,,,,p,1,0.576,space,0.185,0,160,160,4,1,0_dist_red/trial5.png,,,1,0,redHorizontal,p,50,65,male,2021-02-24_18h26.57.611,exp11,2020.2.6,Win32,60,IwAR0VKvOVLfO9x4NH2ByDS5JjHnaE1WnLh7ltAewcCBZxKhEo_J5XvgtxSNM,,,,,,,,,,,
,,,,,,,,,,,,,,p,1,0.812,space,0.192,0,161,161,45,1,3_dist_red/trial21.png,,,1,3,redHorizontal,p,50,65,male,2021-02-24_18h26.57.611,exp11,2020.2.6,Win32,60,IwAR0VKvOVLfO9x4NH2ByDS5JjHnaE1WnLh7ltAewcCBZxKhEo_J5XvgtxSNM,,,,,,,,,,,
,,,,,,,,,,,,,,p,1,0.751,space,0.143,0,162,162,2,1,0_dist_red/trial3.png,,,1,0,redHorizontal,p,50,65,male,2021-02-24_18h26.57.611,exp11,2020.2.6,Win32,60,IwAR0VKvOVLfO9x4NH2ByDS5JjHnaE1WnLh7ltAewcCBZxKhEo_J5XvgtxSNM,,,,,,,,,,,
,,,,,,,,,,,,,,a,1,1.787,space,0.467,0,163,163,190,1,0_targ_16_dist_red/trial16.png,,,0,16,redHorizontal,a,50,65,male,2021-02-24_18h26.57.611,exp11,2020.2.6,Win32,60,IwAR0VKvOVLfO9x4NH2ByDS5JjHnaE1WnLh7ltAewcCBZxKhEo_J5XvgtxSNM,,,,,,,,,,,
,,,,,,,,,,,,,,p,1,0.627,space,0.271,0,164,164,15,1,0_dist_red/trial16.png,,,1,0,redHorizontal,p,50,65,male,2021-02-24_18h26.57.611,exp11,2020.2.6,Win32,60,IwAR0VKvOVLfO9x4NH2ByDS5JjHnaE1WnLh7ltAewcCBZxKhEo_J5XvgtxSNM,,,,,,,,,,,
,,,,,,,,,,,,,,p,1,0.527,space,0.267,0,165,165,6,1,0_dist_red/trial7.png,,,1,0,redHorizontal,p,50,65,male,2021-02-24_18h26.57.611,exp11,2020.2.6,Win32,60,IwAR0VKvOVLfO9x4NH2ByDS5JjHnaE1WnLh7ltAewcCBZxKhEo_J5XvgtxSNM,,,,,,,,,,,
,,,,,,,,,,,,,,a,1,1.176,space,0.357,0,166,166,144,1,0_targ_4_dist_red/trial20.png,,,0,4,redHorizontal,a,50,65,male,2021-02-24_18h26.57.611,exp11,2020.2.6,Win32,60,IwAR0VKvOVLfO9x4NH2ByDS5JjHnaE1WnLh7ltAewcCBZxKhEo_J5XvgtxSNM,,,,,,,,,,,
,,,,,,,,,,,,,,p,1,0.615,space,0.218,0,167,167,66,1,9_dist_red/trial17.png,,,1,9,redHorizontal,p,50,65,male,2021-02-24_18h26.57.611,exp11,2020.2.6,Win32,60,IwAR0VKvOVLfO9x4NH2ByDS5JjHnaE1WnLh7ltAewcCBZxKhEo_J5XvgtxSNM,,,,,,,,,,,
,,,,,,,,,,,,,,a,1,1.098,space,0.486,0,168,168,189,1,0_targ_16_dist_red/trial15.png,,,0,16,redHorizontal,a,50,65,male,2021-02-24_18h26.57.611,exp11,2020.2.6,Win32,60,IwAR0VKvOVLfO9x4NH2ByDS5JjHnaE1WnLh7ltAewcCBZxKhEo_J5XvgtxSNM,,,,,,,,,,,
,,,,,,,,,,,,,,a,1,1.349,space,0.391,0,169,169,123,1,0_targ_1_dist_red/trial24.png,,,0,1,redHorizontal,a,50,65,male,2021-02-24_18h26.57.611,exp11,2020.2.6,Win32,60,IwAR0VKvOVLfO9x4NH2ByDS5JjHnaE1WnLh7ltAewcCBZxKhEo_J5XvgtxSNM,,,,,,,,,,,
,,,,,,,,,,,,,,a,1,1.228,space,0.419,0,170,170,174,1,0_targ_10_dist_red/trial25.png,,,0,10,redHorizontal,a,50,65,male,2021-02-24_18h26.57.611,exp11,2020.2.6,Win32,60,IwAR0VKvOVLfO9x4NH2ByDS5JjHnaE1WnLh7ltAewcCBZxKhEo_J5XvgtxSNM,,,,,,,,,,,
,,,,,,,,,,,,,,p,1,0.693,space,0.324,0,171,171,36,1,3_dist_red/trial12.png,,,1,3,redHorizontal,p,50,65,male,2021-02-24_18h26.57.611,exp11,2020.2.6,Win32,60,IwAR0VKvOVLfO9x4NH2ByDS5JjHnaE1WnLh7ltAewcCBZxKhEo_J5XvgtxSNM,,,,,,,,,,,
,,,,,,,,,,,,,,p,1,1.298,space,0.318,0,172,172,88,1,15_dist_red/trial14.png,,,1,15,redHorizontal,p,50,65,male,2021-02-24_18h26.57.611,exp11,2020.2.6,Win32,60,IwAR0VKvOVLfO9x4NH2ByDS5JjHnaE1WnLh7ltAewcCBZxKhEo_J5XvgtxSNM,,,,,,,,,,,
,,,,,,,,,,,,,,a,1,1.243,space,0.474,0,173,173,180,1,0_targ_16_dist_red/trial6.png,,,0,16,redHorizontal,a,50,65,male,2021-02-24_18h26.57.611,exp11,2020.2.6,Win32,60,IwAR0VKvOVLfO9x4NH2ByDS5JjHnaE1WnLh7ltAewcCBZxKhEo_J5XvgtxSNM,,,,,,,,,,,
,,,,,,,,,,,,,,p,1,0.644,space,0.233,0,174,174,83,1,15_dist_red/trial9.png,,,1,15,redHorizontal,p,50,65,male,2021-02-24_18h26.57.611,exp11,2020.2.6,Win32,60,IwAR0VKvOVLfO9x4NH2ByDS5JjHnaE1WnLh7ltAewcCBZxKhEo_J5XvgtxSNM,,,,,,,,,,,
,,,,,,,,,,,,,,a,1,1.31,space,0.35,0,175,175,120,1,0_targ_1_dist_red/trial21.png,,,0,1,redHorizontal,a,50,65,male,2021-02-24_18h26.57.611,exp11,2020.2.6,Win32,60,IwAR0VKvOVLfO9x4NH2ByDS5JjHnaE1WnLh7ltAewcCBZxKhEo_J5XvgtxSNM,,,,,,,,,,,
,,,,,,,,,,,,,,a,1,1.209,space,0.385,0,176,176,157,1,0_targ_10_dist_red/trial8.png,,,0,10,redHorizontal,a,50,65,male,2021-02-24_18h26.57.611,exp11,2020.2.6,Win32,60,IwAR0VKvOVLfO9x4NH2ByDS5JjHnaE1WnLh7ltAewcCBZxKhEo_J5XvgtxSNM,,,,,,,,,,,
,,,,,,,,,,,,,,p,1,0.793,space,0.383,0,177,177,77,1,15_dist_red/trial3.png,,,1,15,redHorizontal,p,50,65,male,2021-02-24_18h26.57.611,exp11,2020.2.6,Win32,60,IwAR0VKvOVLfO9x4NH2ByDS5JjHnaE1WnLh7ltAewcCBZxKhEo_J5XvgtxSNM,,,,,,,,,,,
,,,,,,,,,,,,,,a,1,1.06,space,0.425,0,178,178,152,1,0_targ_10_dist_red/trial3.png,,,0,10,redHorizontal,a,50,65,male,2021-02-24_18h26.57.611,exp11,2020.2.6,Win32,60,IwAR0VKvOVLfO9x4NH2ByDS5JjHnaE1WnLh7ltAewcCBZxKhEo_J5XvgtxSNM,,,,,,,,,,,
,,,,,,,,,,,,,,a,1,0.827,space,0.359,0,179,179,161,1,0_targ_10_dist_red/trial12.png,,,0,10,redHorizontal,a,50,65,male,2021-02-24_18h26.57.611,exp11,2020.2.6,Win32,60,IwAR0VKvOVLfO9x4NH2ByDS5JjHnaE1WnLh7ltAewcCBZxKhEo_J5XvgtxSNM,,,,,,,,,,,
,,,,,,,,,,,,,,p,1,0.627,space,0.404,0,180,180,43,1,3_dist_red/trial19.png,,,1,3,redHorizontal,p,50,65,male,2021-02-24_18h26.57.611,exp11,2020.2.6,Win32,60,IwAR0VKvOVLfO9x4NH2ByDS5JjHnaE1WnLh7ltAewcCBZxKhEo_J5XvgtxSNM,,,,,,,,,,,
,,,,,,,,,,,,,,a,1,1.061,space,0.46,0,181,181,185,1,0_targ_16_dist_red/trial11.png,,,0,16,redHorizontal,a,50,65,male,2021-02-24_18h26.57.611,exp11,2020.2.6,Win32,60,IwAR0VKvOVLfO9x4NH2ByDS5JjHnaE1WnLh7ltAewcCBZxKhEo_J5XvgtxSNM,,,,,,,,,,,
,,,,,,,,,,,,,,p,1,0.693,space,0.344,0,182,182,89,1,15_dist_red/trial15.png,,,1,15,redHorizontal,p,50,65,male,2021-02-24_18h26.57.611,exp11,2020.2.6,Win32,60,IwAR0VKvOVLfO9x4NH2ByDS5JjHnaE1WnLh7ltAewcCBZxKhEo_J5XvgtxSNM,,,,,,,,,,,
,,,,,,,,,,,,,,a,1,0.978,space,0.4,0,183,183,182,1,0_targ_16_dist_red/trial8.png,,,0,16,redHorizontal,a,50,65,male,2021-02-24_18h26.57.611,exp11,2020.2.6,Win32,60,IwAR0VKvOVLfO9x4NH2ByDS5JjHnaE1WnLh7ltAewcCBZxKhEo_J5XvgtxSNM,,,,,,,,,,,
,,,,,,,,,,,,,,p,1,0.643,space,0.285,0,184,184,74,1,9_dist_red/trial25.png,,,1,9,redHorizontal,p,50,65,male,2021-02-24_18h26.57.611,exp11,2020.2.6,Win32,60,IwAR0VKvOVLfO9x4NH2ByDS5JjHnaE1WnLh7ltAewcCBZxKhEo_J5XvgtxSNM,,,,,,,,,,,
,,,,,,,,,,,,,,a,1,0.732,space,0.386,0,185,185,167,1,0_targ_10_dist_red/trial18.png,,,0,10,redHorizontal,a,50,65,male,2021-02-24_18h26.57.611,exp11,2020.2.6,Win32,60,IwAR0VKvOVLfO9x4NH2ByDS5JjHnaE1WnLh7ltAewcCBZxKhEo_J5XvgtxSNM,,,,,,,,,,,
,,,,,,,,,,,,,,a,1,0.969,space,0.435,0,186,186,168,1,0_targ_10_dist_red/trial19.png,,,0,10,redHorizontal,a,50,65,male,2021-02-24_18h26.57.611,exp11,2020.2.6,Win32,60,IwAR0VKvOVLfO9x4NH2ByDS5JjHnaE1WnLh7ltAewcCBZxKhEo_J5XvgtxSNM,,,,,,,,,,,
,,,,,,,,,,,,,,p,1,1.094,space,0.486,0,187,187,63,1,9_dist_red/trial14.png,,,1,9,redHorizontal,p,50,65,male,2021-02-24_18h26.57.611,exp11,2020.2.6,Win32,60,IwAR0VKvOVLfO9x4NH2ByDS5JjHnaE1WnLh7ltAewcCBZxKhEo_J5XvgtxSNM,,,,,,,,,,,
,,,,,,,,,,,,,,a,1,0.88,space,0.434,0,188,188,170,1,0_targ_10_dist_red/trial21.png,,,0,10,redHorizontal,a,50,65,male,2021-02-24_18h26.57.611,exp11,2020.2.6,Win32,60,IwAR0VKvOVLfO9x4NH2ByDS5JjHnaE1WnLh7ltAewcCBZxKhEo_J5XvgtxSNM,,,,,,,,,,,
,,,,,,,,,,,,,,a,1,0.818,space,0.374,0,189,189,166,1,0_targ_10_dist_red/trial17.png,,,0,10,redHorizontal,a,50,65,male,2021-02-24_18h26.57.611,exp11,2020.2.6,Win32,60,IwAR0VKvOVLfO9x4NH2ByDS5JjHnaE1WnLh7ltAewcCBZxKhEo_J5XvgtxSNM,,,,,,,,,,,
,,,,,,,,,,,,,,p,1,0.678,space,0.281,0,190,190,52,1,9_dist_red/trial3.png,,,1,9,redHorizontal,p,50,65,male,2021-02-24_18h26.57.611,exp11,2020.2.6,Win32,60,IwAR0VKvOVLfO9x4NH2ByDS5JjHnaE1WnLh7ltAewcCBZxKhEo_J5XvgtxSNM,,,,,,,,,,,
,,,,,,,,,,,,,,a,1,0.71,space,0.354,0,191,191,136,1,0_targ_4_dist_red/trial12.png,,,0,4,redHorizontal,a,50,65,male,2021-02-24_18h26.57.611,exp11,2020.2.6,Win32,60,IwAR0VKvOVLfO9x4NH2ByDS5JjHnaE1WnLh7ltAewcCBZxKhEo_J5XvgtxSNM,,,,,,,,,,,
,,,,,,,,,,,,,,a,1,0.709,space,0.336,0,192,192,141,1,0_targ_4_dist_red/trial17.png,,,0,4,redHorizontal,a,50,65,male,2021-02-24_18h26.57.611,exp11,2020.2.6,Win32,60,IwAR0VKvOVLfO9x4NH2ByDS5JjHnaE1WnLh7ltAewcCBZxKhEo_J5XvgtxSNM,,,,,,,,,,,
,,,,,,,,,,,,,,p,1,0.661,space,0.317,0,193,193,26,1,3_dist_red/trial2.png,,,1,3,redHorizontal,p,50,65,male,2021-02-24_18h26.57.611,exp11,2020.2.6,Win32,60,IwAR0VKvOVLfO9x4NH2ByDS5JjHnaE1WnLh7ltAewcCBZxKhEo_J5XvgtxSNM,,,,,,,,,,,
,,,,,,,,,,,,,,a,1,0.71,space,0.351,0,194,194,103,1,0_targ_1_dist_red/trial4.png,,,0,1,redHorizontal,a,50,65,male,2021-02-24_18h26.57.611,exp11,2020.2.6,Win32,60,IwAR0VKvOVLfO9x4NH2ByDS5JjHnaE1WnLh7ltAewcCBZxKhEo_J5XvgtxSNM,,,,,,,,,,,
,,,,,,,,,,,,,,a,1,0.826,space,0.376,0,195,195,171,1,0_targ_10_dist_red/trial22.png,,,0,10,redHorizontal,a,50,65,male,2021-02-24_18h26.57.611,exp11,2020.2.6,Win32,60,IwAR0VKvOVLfO9x4NH2ByDS5JjHnaE1WnLh7ltAewcCBZxKhEo_J5XvgtxSNM,,,,,,,,,,,
,,,,,,,,,,,,,,a,1,1.244,space,0.841,0,196,196,195,1,0_targ_16_dist_red/trial21.png,,,0,16,redHorizontal,a,50,65,male,2021-02-24_18h26.57.611,exp11,2020.2.6,Win32,60,IwAR0VKvOVLfO9x4NH2ByDS5JjHnaE1WnLh7ltAewcCBZxKhEo_J5XvgtxSNM,,,,,,,,,,,
,,,,,,,,,,,,,,p,1,0.765,space,0.254,0,197,197,47,1,3_dist_red/trial23.png,,,1,3,redHorizontal,p,50,65,male,2021-02-24_18h26.57.611,exp11,2020.2.6,Win32,60,IwAR0VKvOVLfO9x4NH2ByDS5JjHnaE1WnLh7ltAewcCBZxKhEo_J5XvgtxSNM,,,,,,,,,,,
,,,,,,,,,,,,,,a,1,0.876,space,0.459,0,198,198,192,1,0_targ_16_dist_red/trial18.png,,,0,16,redHorizontal,a,50,65,male,2021-02-24_18h26.57.611,exp11,2020.2.6,Win32,60,IwAR0VKvOVLfO9x4NH2ByDS5JjHnaE1WnLh7ltAewcCBZxKhEo_J5XvgtxSNM,,,,,,,,,,,
,,,,,,,,,,,,,,p,1,0.66,space,0.277,0,199,199,22,1,0_dist_red/trial23.png,,,1,0,redHorizontal,p,50,65,male,2021-02-24_18h26.57.611,exp11,2020.2.6,Win32,60,IwAR0VKvOVLfO9x4NH2ByDS5JjHnaE1WnLh7ltAewcCBZxKhEo_J5XvgtxSNM,,,,,,,,,,,
,,,,,,,,,,,,,,,,,,,,,,,,,,,,,,,50,65,male,2021-02-24_18h26.57.611,exp11,2020.2.6,Win32,60,IwAR0VKvOVLfO9x4NH2ByDS5JjHnaE1WnLh7ltAewcCBZxKhEo_J5XvgtxSNM,0,0,0,1,1,conRed.xlsx,red horizontal,Look for red horizontal bar (target) and indicate if it is present or absent in the array. If red horizontal target is present press 'p' and if absent press 'a'. Press SPACE to start.,,,
,,,,,,,,,,space,29.41,space,3.442,a,1,1.788,space,1.309,0,0,0,114,1,0_targ_1_dist_green/trial15.png,,,0,1,greenverival,a,50,65,male,2021-02-24_18h26.57.611,exp11,2020.2.6,Win32,60,IwAR0VKvOVLfO9x4NH2ByDS5JjHnaE1WnLh7ltAewcCBZxKhEo_J5XvgtxSNM,,,,,,,,,,,
,,,,,,,,,,,,,,a,1,5.217,space,2.009,0,1,1,103,1,0_targ_1_dist_green/trial4.png,,,0,1,greenverival,a,50,65,male,2021-02-24_18h26.57.611,exp11,2020.2.6,Win32,60,IwAR0VKvOVLfO9x4NH2ByDS5JjHnaE1WnLh7ltAewcCBZxKhEo_J5XvgtxSNM,,,,,,,,,,,
,,,,,,,,,,,,,,p,1,1.834,space,0.401,0,2,2,22,1,0_dist_green/trial23.png,,,1,0,greenverival,p,50,65,male,2021-02-24_18h26.57.611,exp11,2020.2.6,Win32,60,IwAR0VKvOVLfO9x4NH2ByDS5JjHnaE1WnLh7ltAewcCBZxKhEo_J5XvgtxSNM,,,,,,,,,,,
,,,,,,,,,,,,,,a,1,1.694,space,0.633,0,3,3,168,1,0_targ_10_dist_green/trial19.png,,,0,10,greenverival,a,50,65,male,2021-02-24_18h26.57.611,exp11,2020.2.6,Win32,60,IwAR0VKvOVLfO9x4NH2ByDS5JjHnaE1WnLh7ltAewcCBZxKhEo_J5XvgtxSNM,,,,,,,,,,,
,,,,,,,,,,,,,,a,1,0.827,space,0.585,0,4,4,185,1,0_targ_16_dist_green/trial11.png,,,0,16,greenverival,a,50,65,male,2021-02-24_18h26.57.611,exp11,2020.2.6,Win32,60,IwAR0VKvOVLfO9x4NH2ByDS5JjHnaE1WnLh7ltAewcCBZxKhEo_J5XvgtxSNM,,,,,,,,,,,
,,,,,,,,,,,,,,a,1,1.443,space,0.495,0,5,5,106,1,0_targ_1_dist_green/trial7.png,,,0,1,greenverival,a,50,65,male,2021-02-24_18h26.57.611,exp11,2020.2.6,Win32,60,IwAR0VKvOVLfO9x4NH2ByDS5JjHnaE1WnLh7ltAewcCBZxKhEo_J5XvgtxSNM,,,,,,,,,,,
,,,,,,,,,,,,,,p,1,0.943,space,0.788,0,6,6,30,1,3_dist_green/trial6.png,,,1,3,greenverival,p,50,65,male,2021-02-24_18h26.57.611,exp11,2020.2.6,Win32,60,IwAR0VKvOVLfO9x4NH2ByDS5JjHnaE1WnLh7ltAewcCBZxKhEo_J5XvgtxSNM,,,,,,,,,,,
,,,,,,,,,,,,,,p,1,0.578,space,0.356,0,7,7,10,1,0_dist_green/trial11.png,,,1,0,greenverival,p,50,65,male,2021-02-24_18h26.57.611,exp11,2020.2.6,Win32,60,IwAR0VKvOVLfO9x4NH2ByDS5JjHnaE1WnLh7ltAewcCBZxKhEo_J5XvgtxSNM,,,,,,,,,,,
,,,,,,,,,,,,,,p,1,1.132,space,0.337,0,8,8,63,1,9_dist_green/trial14.png,,,1,9,greenverival,p,50,65,male,2021-02-24_18h26.57.611,exp11,2020.2.6,Win32,60,IwAR0VKvOVLfO9x4NH2ByDS5JjHnaE1WnLh7ltAewcCBZxKhEo_J5XvgtxSNM,,,,,,,,,,,
,,,,,,,,,,,,,,p,1,0.595,space,0.239,0,9,9,15,1,0_dist_green/trial16.png,,,1,0,greenverival,p,50,65,male,2021-02-24_18h26.57.611,exp11,2020.2.6,Win32,60,IwAR0VKvOVLfO9x4NH2ByDS5JjHnaE1WnLh7ltAewcCBZxKhEo_J5XvgtxSNM,,,,,,,,,,,
,,,,,,,,,,,,,,p,1,0.727,space,0.202,0,10,10,45,1,3_dist_green/trial21.png,,,1,3,greenverival,p,50,65,male,2021-02-24_18h26.57.611,exp11,2020.2.6,Win32,60,IwAR0VKvOVLfO9x4NH2ByDS5JjHnaE1WnLh7ltAewcCBZxKhEo_J5XvgtxSNM,,,,,,,,,,,
,,,,,,,,,,,,,,a,1,1.259,space,0.378,0,11,11,170,1,0_targ_10_dist_green/trial21.png,,,0,10,greenverival,a,50,65,male,2021-02-24_18h26.57.611,exp11,2020.2.6,Win32,60,IwAR0VKvOVLfO9x4NH2ByDS5JjHnaE1WnLh7ltAewcCBZxKhEo_J5XvgtxSNM,,,,,,,,,,,
,,,,,,,,,,,,,,p,1,0.667,space,0.252,0,12,12,21,1,0_dist_green/trial22.png,,,1,0,greenverival,p,50,65,male,2021-02-24_18h26.57.611,exp11,2020.2.6,Win32,60,IwAR0VKvOVLfO9x4NH2ByDS5JjHnaE1WnLh7ltAewcCBZxKhEo_J5XvgtxSNM,,,,,,,,,,,
,,,,,,,,,,,,,,a,1,0.927,space,0.356,0,13,13,108,1,0_targ_1_dist_green/trial9.png,,,0,1,greenverival,a,50,65,male,2021-02-24_18h26.57.611,exp11,2020.2.6,Win32,60,IwAR0VKvOVLfO9x4NH2ByDS5JjHnaE1WnLh7ltAewcCBZxKhEo_J5XvgtxSNM,,,,,,,,,,,
,,,,,,,,,,,,,,a,1,0.958,space,0.35,0,14,14,162,1,0_targ_10_dist_green/trial13.png,,,0,10,greenverival,a,50,65,male,2021-02-24_18h26.57.611,exp11,2020.2.6,Win32,60,IwAR0VKvOVLfO9x4NH2ByDS5JjHnaE1WnLh7ltAewcCBZxKhEo_J5XvgtxSNM,,,,,,,,,,,
,,,,,,,,,,,,,,p,1,0.634,space,0.236,0,15,15,37,1,3_dist_green/trial13.png,,,1,3,greenverival,p,50,65,male,2021-02-24_18h26.57.611,exp11,2020.2.6,Win32,60,IwAR0VKvOVLfO9x4NH2ByDS5JjHnaE1WnLh7ltAewcCBZxKhEo_J5XvgtxSNM,,,,,,,,,,,
,,,,,,,,,,,,,,a,1,1.044,space,0.351,0,16,16,188,1,0_targ_16_dist_green/trial14.png,,,0,16,greenverival,a,50,65,male,2021-02-24_18h26.57.611,exp11,2020.2.6,Win32,60,IwAR0VKvOVLfO9x4NH2ByDS5JjHnaE1WnLh7ltAewcCBZxKhEo_J5XvgtxSNM,,,,,,,,,,,
,,,,,,,,,,,,,,a,1,0.929,space,0.884,0,17,17,137,1,0_targ_4_dist_green/trial13.png,,,0,4,greenverival,a,50,65,male,2021-02-24_18h26.57.611,exp11,2020.2.6,Win32,60,IwAR0VKvOVLfO9x4NH2ByDS5JjHnaE1WnLh7ltAewcCBZxKhEo_J5XvgtxSNM,,,,,,,,,,,
,,,,,,,,,,,,,,p,1,0.714,space,0.369,0,18,18,43,1,3_dist_green/trial19.png,,,1,3,greenverival,p,50,65,male,2021-02-24_18h26.57.611,exp11,2020.2.6,Win32,60,IwAR0VKvOVLfO9x4NH2ByDS5JjHnaE1WnLh7ltAewcCBZxKhEo_J5XvgtxSNM,,,,,,,,,,,
,,,,,,,,,,,,,,p,1,1.31,space,0.489,0,19,19,51,1,9_dist_green/trial2.png,,,1,9,greenverival,p,50,65,male,2021-02-24_18h26.57.611,exp11,2020.2.6,Win32,60,IwAR0VKvOVLfO9x4NH2ByDS5JjHnaE1WnLh7ltAewcCBZxKhEo_J5XvgtxSNM,,,,,,,,,,,
,,,,,,,,,,,,,,a,1,1.026,space,0.45,0,20,20,152,1,0_targ_10_dist_green/trial3.png,,,0,10,greenverival,a,50,65,male,2021-02-24_18h26.57.611,exp11,2020.2.6,Win32,60,IwAR0VKvOVLfO9x4NH2ByDS5JjHnaE1WnLh7ltAewcCBZxKhEo_J5XvgtxSNM,,,,,,,,,,,
,,,,,,,,,,,,,,a,1,1.027,space,0.351,0,21,21,190,1,0_targ_16_dist_green/trial16.png,,,0,16,greenverival,a,50,65,male,2021-02-24_18h26.57.611,exp11,2020.2.6,Win32,60,IwAR0VKvOVLfO9x4NH2ByDS5JjHnaE1WnLh7ltAewcCBZxKhEo_J5XvgtxSNM,,,,,,,,,,,
,,,,,,,,,,,,,,p,1,0.81,space,0.266,0,22,22,36,1,3_dist_green/trial12.png,,,1,3,greenverival,p,50,65,male,2021-02-24_18h26.57.611,exp11,2020.2.6,Win32,60,IwAR0VKvOVLfO9x4NH2ByDS5JjHnaE1WnLh7ltAewcCBZxKhEo_J5XvgtxSNM,,,,,,,,,,,
,,,,,,,,,,,,,,p,1,0.852,space,0.293,0,23,23,65,1,9_dist_green/trial16.png,,,1,9,greenverival,p,50,65,male,2021-02-24_18h26.57.611,exp11,2020.2.6,Win32,60,IwAR0VKvOVLfO9x4NH2ByDS5JjHnaE1WnLh7ltAewcCBZxKhEo_J5XvgtxSNM,,,,,,,,,,,
,,,,,,,,,,,,,,p,1,0.627,space,0.212,0,24,24,68,1,9_dist_green/trial19.png,,,1,9,greenverival,p,50,65,male,2021-02-24_18h26.57.611,exp11,2020.2.6,Win32,60,IwAR0VKvOVLfO9x4NH2ByDS5JjHnaE1WnLh7ltAewcCBZxKhEo_J5XvgtxSNM,,,,,,,,,,,
,,,,,,,,,,,,,,p,1,1.059,space,0.253,0,25,25,91,1,15_dist_green/trial17.png,,,1,15,greenverival,p,50,65,male,2021-02-24_18h26.57.611,exp11,2020.2.6,Win32,60,IwAR0VKvOVLfO9x4NH2ByDS5JjHnaE1WnLh7ltAewcCBZxKhEo_J5XvgtxSNM,,,,,,,,,,,
,,,,,,,,,,,,,,a,1,1.11,space,0.433,0,26,26,145,1,0_targ_4_dist_green/trial21.png,,,0,4,greenverival,a,50,65,male,2021-02-24_18h26.57.611,exp11,2020.2.6,Win32,60,IwAR0VKvOVLfO9x4NH2ByDS5JjHnaE1WnLh7ltAewcCBZxKhEo_J5XvgtxSNM,,,,,,,,,,,
,,,,,,,,,,,,,,a,1,0.96,space,0.434,0,27,27,166,1,0_targ_10_dist_green/trial17.png,,,0,10,greenverival,a,50,65,male,2021-02-24_18h26.57.611,exp11,2020.2.6,Win32,60,IwAR0VKvOVLfO9x4NH2ByDS5JjHnaE1WnLh7ltAewcCBZxKhEo_J5XvgtxSNM,,,,,,,,,,,
,,,,,,,,,,,,,,a,1,1.044,space,0.467,0,28,28,134,1,0_targ_4_dist_green/trial10.png,,,0,4,greenverival,a,50,65,male,2021-02-24_18h26.57.611,exp11,2020.2.6,Win32,60,IwAR0VKvOVLfO9x4NH2ByDS5JjHnaE1WnLh7ltAewcCBZxKhEo_J5XvgtxSNM,,,,,,,,,,,
,,,,,,,,,,,,,,a,1,0.827,space,0.454,0,29,29,138,1,0_targ_4_dist_green/trial14.png,,,0,4,greenverival,a,50,65,male,2021-02-24_18h26.57.611,exp11,2020.2.6,Win32,60,IwAR0VKvOVLfO9x4NH2ByDS5JjHnaE1WnLh7ltAewcCBZxKhEo_J5XvgtxSNM,,,,,,,,,,,
,,,,,,,,,,,,,,a,1,1.028,space,0.485,0,30,30,175,1,0_targ_16_dist_green/trial1.png,,,0,16,greenverival,a,50,65,male,2021-02-24_18h26.57.611,exp11,2020.2.6,Win32,60,IwAR0VKvOVLfO9x4NH2ByDS5JjHnaE1WnLh7ltAewcCBZxKhEo_J5XvgtxSNM,,,,,,,,,,,
,,,,,,,,,,,,,,a,1,1.443,space,0.468,0,31,31,193,1,0_targ_16_dist_green/trial19.png,,,0,16,greenverival,a,50,65,male,2021-02-24_18h26.57.611,exp11,2020.2.6,Win32,60,IwAR0VKvOVLfO9x4NH2ByDS5JjHnaE1WnLh7ltAewcCBZxKhEo_J5XvgtxSNM,,,,,,,,,,,
,,,,,,,,,,,,,,a,1,0.782,space,0.475,0,32,32,173,1,0_targ_10_dist_green/trial24.png,,,0,10,greenverival,a,50,65,male,2021-02-24_18h26.57.611,exp11,2020.2.6,Win32,60,IwAR0VKvOVLfO9x4NH2ByDS5JjHnaE1WnLh7ltAewcCBZxKhEo_J5XvgtxSNM,,,,,,,,,,,
,,,,,,,,,,,,,,p,1,0.66,space,0.233,0,33,33,59,1,9_dist_green/trial10.png,,,1,9,greenverival,p,50,65,male,2021-02-24_18h26.57.611,exp11,2020.2.6,Win32,60,IwAR0VKvOVLfO9x4NH2ByDS5JjHnaE1WnLh7ltAewcCBZxKhEo_J5XvgtxSNM,,,,,,,,,,,
,,,,,,,,,,,,,,p,1,0.651,space,0.206,0,34,34,38,1,3_dist_green/trial14.png,,,1,3,greenverival,p,50,65,male,2021-02-24_18h26.57.611,exp11,2020.2.6,Win32,60,IwAR0VKvOVLfO9x4NH2ByDS5JjHnaE1WnLh7ltAewcCBZxKhEo_J5XvgtxSNM,,,,,,,,,,,
,,,,,,,,,,,,,,p,1,0.943,space,0.225,0,35,35,95,1,15_dist_green/trial21.png,,,1,15,greenverival,p,50,65,male,2021-02-24_18h26.57.611,exp11,2020.2.6,Win32,60,IwAR0VKvOVLfO9x4NH2ByDS5JjHnaE1WnLh7ltAewcCBZxKhEo_J5XvgtxSNM,,,,,,,,,,,
,,,,,,,,,,,,,,a,1,1.344,space,0.426,0,36,36,116,1,0_targ_1_dist_green/trial17.png,,,0,1,greenverival,a,50,65,male,2021-02-24_18h26.57.611,exp11,2020.2.6,Win32,60,IwAR0VKvOVLfO9x4NH2ByDS5JjHnaE1WnLh7ltAewcCBZxKhEo_J5XvgtxSNM,,,,,,,,,,,
,,,,,,,,,,,,,,p,1,0.811,space,0.251,0,37,37,83,1,15_dist_green/trial9.png,,,1,15,greenverival,p,50,65,male,2021-02-24_18h26.57.611,exp11,2020.2.6,Win32,60,IwAR0VKvOVLfO9x4NH2ByDS5JjHnaE1WnLh7ltAewcCBZxKhEo_J5XvgtxSNM,,,,,,,,,,,
,,,,,,,,,,,,,,p,1,0.693,space,0.218,0,38,38,94,1,15_dist_green/trial20.png,,,1,15,greenverival,p,50,65,male,2021-02-24_18h26.57.611,exp11,2020.2.6,Win32,60,IwAR0VKvOVLfO9x4NH2ByDS5JjHnaE1WnLh7ltAewcCBZxKhEo_J5XvgtxSNM,,,,,,,,,,,
,,,,,,,,,,,,,,p,1,0.7,space,0.321,0,39,39,1,1,0_dist_green/trial2.png,,,1,0,greenverival,p,50,65,male,2021-02-24_18h26.57.611,exp11,2020.2.6,Win32,60,IwAR0VKvOVLfO9x4NH2ByDS5JjHnaE1WnLh7ltAewcCBZxKhEo_J5XvgtxSNM,,,,,,,,,,,
,,,,,,,,,,,,,,a,1,1.068,space,0.455,0,40,40,182,1,0_targ_16_dist_green/trial8.png,,,0,16,greenverival,a,50,65,male,2021-02-24_18h26.57.611,exp11,2020.2.6,Win32,60,IwAR0VKvOVLfO9x4NH2ByDS5JjHnaE1WnLh7ltAewcCBZxKhEo_J5XvgtxSNM,,,,,,,,,,,
,,,,,,,,,,,,,,a,1,1.007,space,0.484,0,41,41,125,1,0_targ_4_dist_green/trial1.png,,,0,4,greenverival,a,50,65,male,2021-02-24_18h26.57.611,exp11,2020.2.6,Win32,60,IwAR0VKvOVLfO9x4NH2ByDS5JjHnaE1WnLh7ltAewcCBZxKhEo_J5XvgtxSNM,,,,,,,,,,,
,,,,,,,,,,,,,,p,1,0.5,space,0.193,0,42,42,19,1,0_dist_green/trial20.png,,,1,0,greenverival,p,50,65,male,2021-02-24_18h26.57.611,exp11,2020.2.6,Win32,60,IwAR0VKvOVLfO9x4NH2ByDS5JjHnaE1WnLh7ltAewcCBZxKhEo_J5XvgtxSNM,,,,,,,,,,,
,,,,,,,,,,,,,,a,1,1.065,space,0.405,0,43,43,143,1,0_targ_4_dist_green/trial19.png,,,0,4,greenverival,a,50,65,male,2021-02-24_18h26.57.611,exp11,2020.2.6,Win32,60,IwAR0VKvOVLfO9x4NH2ByDS5JjHnaE1WnLh7ltAewcCBZxKhEo_J5XvgtxSNM,,,,,,,,,,,
,,,,,,,,,,,,,,p,1,0.744,space,0.176,0,44,44,53,1,9_dist_green/trial4.png,,,1,9,greenverival,p,50,65,male,2021-02-24_18h26.57.611,exp11,2020.2.6,Win32,60,IwAR0VKvOVLfO9x4NH2ByDS5JjHnaE1WnLh7ltAewcCBZxKhEo_J5XvgtxSNM,,,,,,,,,,,
,,,,,,,,,,,,,,a,1,0.941,space,0.468,0,45,45,118,1,0_targ_1_dist_green/trial19.png,,,0,1,greenverival,a,50,65,male,2021-02-24_18h26.57.611,exp11,2020.2.6,Win32,60,IwAR0VKvOVLfO9x4NH2ByDS5JjHnaE1WnLh7ltAewcCBZxKhEo_J5XvgtxSNM,,,,,,,,,,,
,,,,,,,,,,,,,,p,1,0.901,space,0.202,0,46,46,71,1,9_dist_green/trial22.png,,,1,9,greenverival,p,50,65,male,2021-02-24_18h26.57.611,exp11,2020.2.6,Win32,60,IwAR0VKvOVLfO9x4NH2ByDS5JjHnaE1WnLh7ltAewcCBZxKhEo_J5XvgtxSNM,,,,,,,,,,,
,,,,,,,,,,,,,,a,1,0.742,space,0.383,0,47,47,178,1,0_targ_16_dist_green/trial4.png,,,0,16,greenverival,a,50,65,male,2021-02-24_18h26.57.611,exp11,2020.2.6,Win32,60,IwAR0VKvOVLfO9x4NH2ByDS5JjHnaE1WnLh7ltAewcCBZxKhEo_J5XvgtxSNM,,,,,,,,,,,
,,,,,,,,,,,,,,a,1,0.776,space,0.392,0,48,48,132,1,0_targ_4_dist_green/trial8.png,,,0,4,greenverival,a,50,65,male,2021-02-24_18h26.57.611,exp11,2020.2.6,Win32,60,IwAR0VKvOVLfO9x4NH2ByDS5JjHnaE1WnLh7ltAewcCBZxKhEo_J5XvgtxSNM,,,,,,,,,,,
,,,,,,,,,,,,,,p,1,0.893,space,0.386,0,49,49,72,1,9_dist_green/trial23.png,,,1,9,greenverival,p,50,65,male,2021-02-24_18h26.57.611,exp11,2020.2.6,Win32,60,IwAR0VKvOVLfO9x4NH2ByDS5JjHnaE1WnLh7ltAewcCBZxKhEo_J5XvgtxSNM,,,,,,,,,,,
,,,,,,,,,,,,,,a,1,1.458,space,0.384,0,50,50,154,1,0_targ_10_dist_green/trial5.png,,,0,10,greenverival,a,50,65,male,2021-02-24_18h26.57.611,exp11,2020.2.6,Win32,60,IwAR0VKvOVLfO9x4NH2ByDS5JjHnaE1WnLh7ltAewcCBZxKhEo_J5XvgtxSNM,,,,,,,,,,,
,,,,,,,,,,,,,,a,1,1.827,space,0.45,0,51,51,192,1,0_targ_16_dist_green/trial18.png,,,0,16,greenverival,a,50,65,male,2021-02-24_18h26.57.611,exp11,2020.2.6,Win32,60,IwAR0VKvOVLfO9x4NH2ByDS5JjHnaE1WnLh7ltAewcCBZxKhEo_J5XvgtxSNM,,,,,,,,,,,
,,,,,,,,,,,,,,a,1,1.077,space,0.426,0,52,52,120,1,0_targ_1_dist_green/trial21.png,,,0,1,greenverival,a,50,65,male,2021-02-24_18h26.57.611,exp11,2020.2.6,Win32,60,IwAR0VKvOVLfO9x4NH2ByDS5JjHnaE1WnLh7ltAewcCBZxKhEo_J5XvgtxSNM,,,,,,,,,,,
,,,,,,,,,,,,,,a,1,0.701,space,0.45,0,53,53,122,1,0_targ_1_dist_green/trial23.png,,,0,1,greenverival,a,50,65,male,2021-02-24_18h26.57.611,exp11,2020.2.6,Win32,60,IwAR0VKvOVLfO9x4NH2ByDS5JjHnaE1WnLh7ltAewcCBZxKhEo_J5XvgtxSNM,,,,,,,,,,,
,,,,,,,,,,,,,,a,1,0.893,space,0.434,0,54,54,164,1,0_targ_10_dist_green/trial15.png,,,0,10,greenverival,a,50,65,male,2021-02-24_18h26.57.611,exp11,2020.2.6,Win32,60,IwAR0VKvOVLfO9x4NH2ByDS5JjHnaE1WnLh7ltAewcCBZxKhEo_J5XvgtxSNM,,,,,,,,,,,
,,,,,,,,,,,,,,p,1,0.747,space,0.236,0,55,55,78,1,15_dist_green/trial4.png,,,1,15,greenverival,p,50,65,male,2021-02-24_18h26.57.611,exp11,2020.2.6,Win32,60,IwAR0VKvOVLfO9x4NH2ByDS5JjHnaE1WnLh7ltAewcCBZxKhEo_J5XvgtxSNM,,,,,,,,,,,
,,,,,,,,,,,,,,a,1,1.061,space,0.444,0,56,56,128,1,0_targ_4_dist_green/trial4.png,,,0,4,greenverival,a,50,65,male,2021-02-24_18h26.57.611,exp11,2020.2.6,Win32,60,IwAR0VKvOVLfO9x4NH2ByDS5JjHnaE1WnLh7ltAewcCBZxKhEo_J5XvgtxSNM,,,,,,,,,,,
,,,,,,,,,,,,,,a,1,0.943,space,0.401,0,57,57,124,1,0_targ_1_dist_green/trial25.png,,,0,1,greenverival,a,50,65,male,2021-02-24_18h26.57.611,exp11,2020.2.6,Win32,60,IwAR0VKvOVLfO9x4NH2ByDS5JjHnaE1WnLh7ltAewcCBZxKhEo_J5XvgtxSNM,,,,,,,,,,,
,,,,,,,,,,,,,,p,1,0.644,space,0.291,0,58,58,3,1,0_dist_green/trial4.png,,,1,0,greenverival,p,50,65,male,2021-02-24_18h26.57.611,exp11,2020.2.6,Win32,60,IwAR0VKvOVLfO9x4NH2ByDS5JjHnaE1WnLh7ltAewcCBZxKhEo_J5XvgtxSNM,,,,,,,,,,,
,,,,,,,,,,,,,,a,1,1.525,space,0.371,0,59,59,179,1,0_targ_16_dist_green/trial5.png,,,0,16,greenverival,a,50,65,male,2021-02-24_18h26.57.611,exp11,2020.2.6,Win32,60,IwAR0VKvOVLfO9x4NH2ByDS5JjHnaE1WnLh7ltAewcCBZxKhEo_J5XvgtxSNM,,,,,,,,,,,
,,,,,,,,,,,,,,a,1,1.813,space,0.403,0,60,60,197,1,0_targ_16_dist_green/trial23.png,,,0,16,greenverival,a,50,65,male,2021-02-24_18h26.57.611,exp11,2020.2.6,Win32,60,IwAR0VKvOVLfO9x4NH2ByDS5JjHnaE1WnLh7ltAewcCBZxKhEo_J5XvgtxSNM,,,,,,,,,,,
,,,,,,,,,,,,,,a,1,1.085,space,0.383,0,61,61,123,1,0_targ_1_dist_green/trial24.png,,,0,1,greenverival,a,50,65,male,2021-02-24_18h26.57.611,exp11,2020.2.6,Win32,60,IwAR0VKvOVLfO9x4NH2ByDS5JjHnaE1WnLh7ltAewcCBZxKhEo_J5XvgtxSNM,,,,,,,,,,,
,,,,,,,,,,,,,,a,1,0.91,space,0.393,0,62,62,101,1,0_targ_1_dist_green/trial2.png,,,0,1,greenverival,a,50,65,male,2021-02-24_18h26.57.611,exp11,2020.2.6,Win32,60,IwAR0VKvOVLfO9x4NH2ByDS5JjHnaE1WnLh7ltAewcCBZxKhEo_J5XvgtxSNM,,,,,,,,,,,
,,,,,,,,,,,,,,a,1,1.498,space,0.386,0,63,63,191,1,0_targ_16_dist_green/trial17.png,,,0,16,greenverival,a,50,65,male,2021-02-24_18h26.57.611,exp11,2020.2.6,Win32,60,IwAR0VKvOVLfO9x4NH2ByDS5JjHnaE1WnLh7ltAewcCBZxKhEo_J5XvgtxSNM,,,,,,,,,,,
,,,,,,,,,,,,,,a,1,1.064,space,0.506,0,64,64,195,1,0_targ_16_dist_green/trial21.png,,,0,16,greenverival,a,50,65,male,2021-02-24_18h26.57.611,exp11,2020.2.6,Win32,60,IwAR0VKvOVLfO9x4NH2ByDS5JjHnaE1WnLh7ltAewcCBZxKhEo_J5XvgtxSNM,,,,,,,,,,,
,,,,,,,,,,,,,,a,1,2.094,space,0.081,0,65,65,198,1,0_targ_16_dist_green/trial24.png,,,0,16,greenverival,a,50,65,male,2021-02-24_18h26.57.611,exp11,2020.2.6,Win32,60,IwAR0VKvOVLfO9x4NH2ByDS5JjHnaE1WnLh7ltAewcCBZxKhEo_J5XvgtxSNM,,,,,,,,,,,
,,,,,,,,,,,,,,p,1,1.009,space,0.318,0,66,66,92,1,15_dist_green/trial18.png,,,1,15,greenverival,p,50,65,male,2021-02-24_18h26.57.611,exp11,2020.2.6,Win32,60,IwAR0VKvOVLfO9x4NH2ByDS5JjHnaE1WnLh7ltAewcCBZxKhEo_J5XvgtxSNM,,,,,,,,,,,
,,,,,,,,,,,,,,p,1,0.649,space,0.207,0,67,67,64,1,9_dist_green/trial15.png,,,1,9,greenverival,p,50,65,male,2021-02-24_18h26.57.611,exp11,2020.2.6,Win32,60,IwAR0VKvOVLfO9x4NH2ByDS5JjHnaE1WnLh7ltAewcCBZxKhEo_J5XvgtxSNM,,,,,,,,,,,
,,,,,,,,,,,,,,a,1,1.092,space,0.4,0,68,68,183,1,0_targ_16_dist_green/trial9.png,,,0,16,greenverival,a,50,65,male,2021-02-24_18h26.57.611,exp11,2020.2.6,Win32,60,IwAR0VKvOVLfO9x4NH2ByDS5JjHnaE1WnLh7ltAewcCBZxKhEo_J5XvgtxSNM,,,,,,,,,,,
,,,,,,,,,,,,,,a,1,2.145,space,0.425,0,69,69,107,1,0_targ_1_dist_green/trial8.png,,,0,1,greenverival,a,50,65,male,2021-02-24_18h26.57.611,exp11,2020.2.6,Win32,60,IwAR0VKvOVLfO9x4NH2ByDS5JjHnaE1WnLh7ltAewcCBZxKhEo_J5XvgtxSNM,,,,,,,,,,,
,,,,,,,,,,,,,,a,1,1.101,space,0.393,0,70,70,146,1,0_targ_4_dist_green/trial22.png,,,0,4,greenverival,a,50,65,male,2021-02-24_18h26.57.611,exp11,2020.2.6,Win32,60,IwAR0VKvOVLfO9x4NH2ByDS5JjHnaE1WnLh7ltAewcCBZxKhEo_J5XvgtxSNM,,,,,,,,,,,
,,,,,,,,,,,,,,p,1,0.595,space,0.202,0,71,71,17,1,0_dist_green/trial18.png,,,1,0,greenverival,p,50,65,male,2021-02-24_18h26.57.611,exp11,2020.2.6,Win32,60,IwAR0VKvOVLfO9x4NH2ByDS5JjHnaE1WnLh7ltAewcCBZxKhEo_J5XvgtxSNM,,,,,,,,,,,
,,,,,,,,,,,,,,p,1,0.664,space,0.186,0,72,72,28,1,3_dist_green/trial4.png,,,1,3,greenverival,p,50,65,male,2021-02-24_18h26.57.611,exp11,2020.2.6,Win32,60,IwAR0VKvOVLfO9x4NH2ByDS5JjHnaE1WnLh7ltAewcCBZxKhEo_J5XvgtxSNM,,,,,,,,,,,
,,,,,,,,,,,,,,p,1,0.67,space,0.203,0,73,73,29,1,3_dist_green/trial5.png,,,1,3,greenverival,p,50,65,male,2021-02-24_18h26.57.611,exp11,2020.2.6,Win32,60,IwAR0VKvOVLfO9x4NH2ByDS5JjHnaE1WnLh7ltAewcCBZxKhEo_J5XvgtxSNM,,,,,,,,,,,
,,,,,,,,,,,,,,a,1,1.5,space,0.935,0,74,74,111,1,0_targ_1_dist_green/trial12.png,,,0,1,greenverival,a,50,65,male,2021-02-24_18h26.57.611,exp11,2020.2.6,Win32,60,IwAR0VKvOVLfO9x4NH2ByDS5JjHnaE1WnLh7ltAewcCBZxKhEo_J5XvgtxSNM,,,,,,,,,,,
,,,,,,,,,,,,,,a,1,0.995,space,0.34,0,75,75,160,1,0_targ_10_dist_green/trial11.png,,,0,10,greenverival,a,50,65,male,2021-02-24_18h26.57.611,exp11,2020.2.6,Win32,60,IwAR0VKvOVLfO9x4NH2ByDS5JjHnaE1WnLh7ltAewcCBZxKhEo_J5XvgtxSNM,,,,,,,,,,,
,,,,,,,,,,,,,,a,1,0.998,space,0.417,0,76,76,144,1,0_targ_4_dist_green/trial20.png,,,0,4,greenverival,a,50,65,male,2021-02-24_18h26.57.611,exp11,2020.2.6,Win32,60,IwAR0VKvOVLfO9x4NH2ByDS5JjHnaE1WnLh7ltAewcCBZxKhEo_J5XvgtxSNM,,,,,,,,,,,
,,,,,,,,,,,,,,p,1,0.849,space,0.185,0,77,77,70,1,9_dist_green/trial21.png,,,1,9,greenverival,p,50,65,male,2021-02-24_18h26.57.611,exp11,2020.2.6,Win32,60,IwAR0VKvOVLfO9x4NH2ByDS5JjHnaE1WnLh7ltAewcCBZxKhEo_J5XvgtxSNM,,,,,,,,,,,
,,,,,,,,,,,,,,p,1,0.75,space,0.15,0,78,78,50,1,9_dist_green/trial1.png,,,1,9,greenverival,p,50,65,male,2021-02-24_18h26.57.611,exp11,2020.2.6,Win32,60,IwAR0VKvOVLfO9x4NH2ByDS5JjHnaE1WnLh7ltAewcCBZxKhEo_J5XvgtxSNM,,,,,,,,,,,
,,,,,,,,,,,,,,a,1,1.014,space,0.384,0,79,79,105,1,0_targ_1_dist_green/trial6.png,,,0,1,greenverival,a,50,65,male,2021-02-24_18h26.57.611,exp11,2020.2.6,Win32,60,IwAR0VKvOVLfO9x4NH2ByDS5JjHnaE1WnLh7ltAewcCBZxKhEo_J5XvgtxSNM,,,,,,,,,,,
,,,,,,,,,,,,,,a,1,0.994,space,0.388,0,80,80,135,1,0_targ_4_dist_green/trial11.png,,,0,4,greenverival,a,50,65,male,2021-02-24_18h26.57.611,exp11,2020.2.6,Win32,60,IwAR0VKvOVLfO9x4NH2ByDS5JjHnaE1WnLh7ltAewcCBZxKhEo_J5XvgtxSNM,,,,,,,,,,,
,,,,,,,,,,,,,,a,1,0.816,space,0.37,0,81,81,165,1,0_targ_10_dist_green/trial16.png,,,0,10,greenverival,a,50,65,male,2021-02-24_18h26.57.611,exp11,2020.2.6,Win32,60,IwAR0VKvOVLfO9x4NH2ByDS5JjHnaE1WnLh7ltAewcCBZxKhEo_J5XvgtxSNM,,,,,,,,,,,
,,,,,,,,,,,,,,a,1,1.125,space,0.453,0,82,82,194,1,0_targ_16_dist_green/trial20.png,,,0,16,greenverival,a,50,65,male,2021-02-24_18h26.57.611,exp11,2020.2.6,Win32,60,IwAR0VKvOVLfO9x4NH2ByDS5JjHnaE1WnLh7ltAewcCBZxKhEo_J5XvgtxSNM,,,,,,,,,,,
,,,,,,,,,,,,,,p,1,0.81,space,0.384,0,83,83,75,1,15_dist_green/trial1.png,,,1,15,greenverival,p,50,65,male,2021-02-24_18h26.57.611,exp11,2020.2.6,Win32,60,IwAR0VKvOVLfO9x4NH2ByDS5JjHnaE1WnLh7ltAewcCBZxKhEo_J5XvgtxSNM,,,,,,,,,,,
,,,,,,,,,,,,,,a,1,1.076,space,0.356,0,84,84,119,1,0_targ_1_dist_green/trial20.png,,,0,1,greenverival,a,50,65,male,2021-02-24_18h26.57.611,exp11,2020.2.6,Win32,60,IwAR0VKvOVLfO9x4NH2ByDS5JjHnaE1WnLh7ltAewcCBZxKhEo_J5XvgtxSNM,,,,,,,,,,,
,,,,,,,,,,,,,,p,1,0.709,space,0.194,0,85,85,25,1,3_dist_green/trial1.png,,,1,3,greenverival,p,50,65,male,2021-02-24_18h26.57.611,exp11,2020.2.6,Win32,60,IwAR0VKvOVLfO9x4NH2ByDS5JjHnaE1WnLh7ltAewcCBZxKhEo_J5XvgtxSNM,,,,,,,,,,,
,,,,,,,,,,,,,,p,1,0.743,space,0.158,0,86,86,52,1,9_dist_green/trial3.png,,,1,9,greenverival,p,50,65,male,2021-02-24_18h26.57.611,exp11,2020.2.6,Win32,60,IwAR0VKvOVLfO9x4NH2ByDS5JjHnaE1WnLh7ltAewcCBZxKhEo_J5XvgtxSNM,,,,,,,,,,,
,,,,,,,,,,,,,,a,1,0.898,space,0.469,0,87,87,153,1,0_targ_10_dist_green/trial4.png,,,0,10,greenverival,a,50,65,male,2021-02-24_18h26.57.611,exp11,2020.2.6,Win32,60,IwAR0VKvOVLfO9x4NH2ByDS5JjHnaE1WnLh7ltAewcCBZxKhEo_J5XvgtxSNM,,,,,,,,,,,
,,,,,,,,,,,,,,a,1,1.127,space,0.368,0,88,88,184,1,0_targ_16_dist_green/trial10.png,,,0,16,greenverival,a,50,65,male,2021-02-24_18h26.57.611,exp11,2020.2.6,Win32,60,IwAR0VKvOVLfO9x4NH2ByDS5JjHnaE1WnLh7ltAewcCBZxKhEo_J5XvgtxSNM,,,,,,,,,,,
,,,,,,,,,,,,,,a,1,1.343,space,0.484,0,89,89,177,1,0_targ_16_dist_green/trial3.png,,,0,16,greenverival,a,50,65,male,2021-02-24_18h26.57.611,exp11,2020.2.6,Win32,60,IwAR0VKvOVLfO9x4NH2ByDS5JjHnaE1WnLh7ltAewcCBZxKhEo_J5XvgtxSNM,,,,,,,,,,,
,,,,,,,,,,,,,,a,1,0.898,space,0.391,0,90,90,157,1,0_targ_10_dist_green/trial8.png,,,0,10,greenverival,a,50,65,male,2021-02-24_18h26.57.611,exp11,2020.2.6,Win32,60,IwAR0VKvOVLfO9x4NH2ByDS5JjHnaE1WnLh7ltAewcCBZxKhEo_J5XvgtxSNM,,,,,,,,,,,
,,,,,,,,,,,,,,p,1,0.761,space,0.168,0,91,91,46,1,3_dist_green/trial22.png,,,1,3,greenverival,p,50,65,male,2021-02-24_18h26.57.611,exp11,2020.2.6,Win32,60,IwAR0VKvOVLfO9x4NH2ByDS5JjHnaE1WnLh7ltAewcCBZxKhEo_J5XvgtxSNM,,,,,,,,,,,
,,,,,,,,,,,,,,a,1,1.046,space,0.39,0,92,92,189,1,0_targ_16_dist_green/trial15.png,,,0,16,greenverival,a,50,65,male,2021-02-24_18h26.57.611,exp11,2020.2.6,Win32,60,IwAR0VKvOVLfO9x4NH2ByDS5JjHnaE1WnLh7ltAewcCBZxKhEo_J5XvgtxSNM,,,,,,,,,,,
,,,,,,,,,,,,,,p,1,0.783,space,0.252,0,93,93,76,1,15_dist_green/trial2.png,,,1,15,greenverival,p,50,65,male,2021-02-24_18h26.57.611,exp11,2020.2.6,Win32,60,IwAR0VKvOVLfO9x4NH2ByDS5JjHnaE1WnLh7ltAewcCBZxKhEo_J5XvgtxSNM,,,,,,,,,,,
,,,,,,,,,,,,,,a,1,0.812,space,0.384,0,94,94,131,1,0_targ_4_dist_green/trial7.png,,,0,4,greenverival,a,50,65,male,2021-02-24_18h26.57.611,exp11,2020.2.6,Win32,60,IwAR0VKvOVLfO9x4NH2ByDS5JjHnaE1WnLh7ltAewcCBZxKhEo_J5XvgtxSNM,,,,,,,,,,,
,,,,,,,,,,,,,,a,1,0.843,space,0.353,0,95,95,169,1,0_targ_10_dist_green/trial20.png,,,0,10,greenverival,a,50,65,male,2021-02-24_18h26.57.611,exp11,2020.2.6,Win32,60,IwAR0VKvOVLfO9x4NH2ByDS5JjHnaE1WnLh7ltAewcCBZxKhEo_J5XvgtxSNM,,,,,,,,,,,
,,,,,,,,,,,,,,p,1,0.627,space,0.168,0,96,96,9,1,0_dist_green/trial10.png,,,1,0,greenverival,p,50,65,male,2021-02-24_18h26.57.611,exp11,2020.2.6,Win32,60,IwAR0VKvOVLfO9x4NH2ByDS5JjHnaE1WnLh7ltAewcCBZxKhEo_J5XvgtxSNM,,,,,,,,,,,
,,,,,,,,,,,,,,a,1,0.71,space,0.345,0,97,97,149,1,0_targ_4_dist_green/trial25.png,,,0,4,greenverival,a,50,65,male,2021-02-24_18h26.57.611,exp11,2020.2.6,Win32,60,IwAR0VKvOVLfO9x4NH2ByDS5JjHnaE1WnLh7ltAewcCBZxKhEo_J5XvgtxSNM,,,,,,,,,,,
,,,,,,,,,,,,,,a,1,2.942,space,0.934,0,98,98,104,1,0_targ_1_dist_green/trial5.png,,,0,1,greenverival,a,50,65,male,2021-02-24_18h26.57.611,exp11,2020.2.6,Win32,60,IwAR0VKvOVLfO9x4NH2ByDS5JjHnaE1WnLh7ltAewcCBZxKhEo_J5XvgtxSNM,,,,,,,,,,,
,,,,,,,,,,,,,,p,1,0.871,space,0.26,0,99,99,56,1,9_dist_green/trial7.png,,,1,9,greenverival,p,50,65,male,2021-02-24_18h26.57.611,exp11,2020.2.6,Win32,60,IwAR0VKvOVLfO9x4NH2ByDS5JjHnaE1WnLh7ltAewcCBZxKhEo_J5XvgtxSNM,,,,,,,,,,,
,,,,,,,,,,,,,,p,1,0.601,space,0.167,0,100,100,0,1,0_dist_green/trial1.png,,,1,0,greenverival,p,50,65,male,2021-02-24_18h26.57.611,exp11,2020.2.6,Win32,60,IwAR0VKvOVLfO9x4NH2ByDS5JjHnaE1WnLh7ltAewcCBZxKhEo_J5XvgtxSNM,,,,,,,,,,,
,,,,,,,,,,,,,,p,1,0.726,space,0.155,0,101,101,39,1,3_dist_green/trial15.png,,,1,3,greenverival,p,50,65,male,2021-02-24_18h26.57.611,exp11,2020.2.6,Win32,60,IwAR0VKvOVLfO9x4NH2ByDS5JjHnaE1WnLh7ltAewcCBZxKhEo_J5XvgtxSNM,,,,,,,,,,,
,,,,,,,,,,,,,,a,1,1.106,space,0.392,0,102,102,142,1,0_targ_4_dist_green/trial18.png,,,0,4,greenverival,a,50,65,male,2021-02-24_18h26.57.611,exp11,2020.2.6,Win32,60,IwAR0VKvOVLfO9x4NH2ByDS5JjHnaE1WnLh7ltAewcCBZxKhEo_J5XvgtxSNM,,,,,,,,,,,
,,,,,,,,,,,,,,p,1,0.793,space,0.217,0,103,103,96,1,15_dist_green/trial22.png,,,1,15,greenverival,p,50,65,male,2021-02-24_18h26.57.611,exp11,2020.2.6,Win32,60,IwAR0VKvOVLfO9x4NH2ByDS5JjHnaE1WnLh7ltAewcCBZxKhEo_J5XvgtxSNM,,,,,,,,,,,
,,,,,,,,,,,,,,p,1,0.676,space,0.253,0,104,104,11,1,0_dist_green/trial12.png,,,1,0,greenverival,p,50,65,male,2021-02-24_18h26.57.611,exp11,2020.2.6,Win32,60,IwAR0VKvOVLfO9x4NH2ByDS5JjHnaE1WnLh7ltAewcCBZxKhEo_J5XvgtxSNM,,,,,,,,,,,
,,,,,,,,,,,,,,p,1,1.142,space,0.551,0,105,105,90,1,15_dist_green/trial16.png,,,1,15,greenverival,p,50,65,male,2021-02-24_18h26.57.611,exp11,2020.2.6,Win32,60,IwAR0VKvOVLfO9x4NH2ByDS5JjHnaE1WnLh7ltAewcCBZxKhEo_J5XvgtxSNM,,,,,,,,,,,
,,,,,,,,,,,,,,p,1,0.583,space,0.175,0,106,106,16,1,0_dist_green/trial17.png,,,1,0,greenverival,p,50,65,male,2021-02-24_18h26.57.611,exp11,2020.2.6,Win32,60,IwAR0VKvOVLfO9x4NH2ByDS5JjHnaE1WnLh7ltAewcCBZxKhEo_J5XvgtxSNM,,,,,,,,,,,
,,,,,,,,,,,,,,p,1,0.761,space,0.184,0,107,107,99,1,15_dist_green/trial25.png,,,1,15,greenverival,p,50,65,male,2021-02-24_18h26.57.611,exp11,2020.2.6,Win32,60,IwAR0VKvOVLfO9x4NH2ByDS5JjHnaE1WnLh7ltAewcCBZxKhEo_J5XvgtxSNM,,,,,,,,,,,
,,,,,,,,,,,,,,p,1,1.062,space,0.201,0,108,108,67,1,9_dist_green/trial18.png,,,1,9,greenverival,p,50,65,male,2021-02-24_18h26.57.611,exp11,2020.2.6,Win32,60,IwAR0VKvOVLfO9x4NH2ByDS5JjHnaE1WnLh7ltAewcCBZxKhEo_J5XvgtxSNM,,,,,,,,,,,
,,,,,,,,,,,,,,p,1,0.734,space,0.185,0,109,109,42,1,3_dist_green/trial18.png,,,1,3,greenverival,p,50,65,male,2021-02-24_18h26.57.611,exp11,2020.2.6,Win32,60,IwAR0VKvOVLfO9x4NH2ByDS5JjHnaE1WnLh7ltAewcCBZxKhEo_J5XvgtxSNM,,,,,,,,,,,
,,,,,,,,,,,,,,p,1,0.63,space,0.19,0,110,110,5,1,0_dist_green/trial6.png,,,1,0,greenverival,p,50,65,male,2021-02-24_18h26.57.611,exp11,2020.2.6,Win32,60,IwAR0VKvOVLfO9x4NH2ByDS5JjHnaE1WnLh7ltAewcCBZxKhEo_J5XvgtxSNM,,,,,,,,,,,
,,,,,,,,,,,,,,a,1,1.113,space,0.45,0,111,111,151,1,0_targ_10_dist_green/trial2.png,,,0,10,greenverival,a,50,65,male,2021-02-24_18h26.57.611,exp11,2020.2.6,Win32,60,IwAR0VKvOVLfO9x4NH2ByDS5JjHnaE1WnLh7ltAewcCBZxKhEo_J5XvgtxSNM,,,,,,,,,,,
,,,,,,,,,,,,,,p,1,0.733,space,0.358,0,112,112,48,1,3_dist_green/trial24.png,,,1,3,greenverival,p,50,65,male,2021-02-24_18h26.57.611,exp11,2020.2.6,Win32,60,IwAR0VKvOVLfO9x4NH2ByDS5JjHnaE1WnLh7ltAewcCBZxKhEo_J5XvgtxSNM,,,,,,,,,,,
,,,,,,,,,,,,,,a,1,0.946,space,0.489,0,113,113,172,1,0_targ_10_dist_green/trial23.png,,,0,10,greenverival,a,50,65,male,2021-02-24_18h26.57.611,exp11,2020.2.6,Win32,60,IwAR0VKvOVLfO9x4NH2ByDS5JjHnaE1WnLh7ltAewcCBZxKhEo_J5XvgtxSNM,,,,,,,,,,,
,,,,,,,,,,,,,,p,1,0.561,space,0.417,0,114,114,8,1,0_dist_green/trial9.png,,,1,0,greenverival,p,50,65,male,2021-02-24_18h26.57.611,exp11,2020.2.6,Win32,60,IwAR0VKvOVLfO9x4NH2ByDS5JjHnaE1WnLh7ltAewcCBZxKhEo_J5XvgtxSNM,,,,,,,,,,,
,,,,,,,,,,,,,,a,1,1.863,space,1.326,0,115,115,148,1,0_targ_4_dist_green/trial24.png,,,0,4,greenverival,a,50,65,male,2021-02-24_18h26.57.611,exp11,2020.2.6,Win32,60,IwAR0VKvOVLfO9x4NH2ByDS5JjHnaE1WnLh7ltAewcCBZxKhEo_J5XvgtxSNM,,,,,,,,,,,
,,,,,,,,,,,,,,a,1,1.345,space,0.486,0,116,116,186,1,0_targ_16_dist_green/trial12.png,,,0,16,greenverival,a,50,65,male,2021-02-24_18h26.57.611,exp11,2020.2.6,Win32,60,IwAR0VKvOVLfO9x4NH2ByDS5JjHnaE1WnLh7ltAewcCBZxKhEo_J5XvgtxSNM,,,,,,,,,,,
,,,,,,,,,,,,,,p,1,0.565,space,0.205,0,117,117,2,1,0_dist_green/trial3.png,,,1,0,greenverival,p,50,65,male,2021-02-24_18h26.57.611,exp11,2020.2.6,Win32,60,IwAR0VKvOVLfO9x4NH2ByDS5JjHnaE1WnLh7ltAewcCBZxKhEo_J5XvgtxSNM,,,,,,,,,,,
,,,,,,,,,,,,,,p,1,0.767,space,0.183,0,118,118,79,1,15_dist_green/trial5.png,,,1,15,greenverival,p,50,65,male,2021-02-24_18h26.57.611,exp11,2020.2.6,Win32,60,IwAR0VKvOVLfO9x4NH2ByDS5JjHnaE1WnLh7ltAewcCBZxKhEo_J5XvgtxSNM,,,,,,,,,,,
,,,,,,,,,,,,,,a,1,1.242,space,0.419,0,119,119,117,1,0_targ_1_dist_green/trial18.png,,,0,1,greenverival,a,50,65,male,2021-02-24_18h26.57.611,exp11,2020.2.6,Win32,60,IwAR0VKvOVLfO9x4NH2ByDS5JjHnaE1WnLh7ltAewcCBZxKhEo_J5XvgtxSNM,,,,,,,,,,,
,,,,,,,,,,,,,,a,1,0.881,space,0.709,0,120,120,196,1,0_targ_16_dist_green/trial22.png,,,0,16,greenverival,a,50,65,male,2021-02-24_18h26.57.611,exp11,2020.2.6,Win32,60,IwAR0VKvOVLfO9x4NH2ByDS5JjHnaE1WnLh7ltAewcCBZxKhEo_J5XvgtxSNM,,,,,,,,,,,
,,,,,,,,,,,,,,a,1,1.445,space,0.435,0,121,121,150,1,0_targ_10_dist_green/trial1.png,,,0,10,greenverival,a,50,65,male,2021-02-24_18h26.57.611,exp11,2020.2.6,Win32,60,IwAR0VKvOVLfO9x4NH2ByDS5JjHnaE1WnLh7ltAewcCBZxKhEo_J5XvgtxSNM,,,,,,,,,,,
,,,,,,,,,,,,,,p,1,0.608,space,0.325,0,122,122,7,1,0_dist_green/trial8.png,,,1,0,greenverival,p,50,65,male,2021-02-24_18h26.57.611,exp11,2020.2.6,Win32,60,IwAR0VKvOVLfO9x4NH2ByDS5JjHnaE1WnLh7ltAewcCBZxKhEo_J5XvgtxSNM,,,,,,,,,,,
,,,,,,,,,,,,,,p,1,1.078,space,0.267,0,123,123,89,1,15_dist_green/trial15.png,,,1,15,greenverival,p,50,65,male,2021-02-24_18h26.57.611,exp11,2020.2.6,Win32,60,IwAR0VKvOVLfO9x4NH2ByDS5JjHnaE1WnLh7ltAewcCBZxKhEo_J5XvgtxSNM,,,,,,,,,,,
,,,,,,,,,,,,,,p,1,0.693,space,0.22,0,124,124,31,1,3_dist_green/trial7.png,,,1,3,greenverival,p,50,65,male,2021-02-24_18h26.57.611,exp11,2020.2.6,Win32,60,IwAR0VKvOVLfO9x4NH2ByDS5JjHnaE1WnLh7ltAewcCBZxKhEo_J5XvgtxSNM,,,,,,,,,,,
,,,,,,,,,,,,,,a,1,0.861,space,0.96,0,125,125,113,1,0_targ_1_dist_green/trial14.png,,,0,1,greenverival,a,50,65,male,2021-02-24_18h26.57.611,exp11,2020.2.6,Win32,60,IwAR0VKvOVLfO9x4NH2ByDS5JjHnaE1WnLh7ltAewcCBZxKhEo_J5XvgtxSNM,,,,,,,,,,,
,,,,,,,,,,,,,,a,1,1.093,space,0.434,0,126,126,181,1,0_targ_16_dist_green/trial7.png,,,0,16,greenverival,a,50,65,male,2021-02-24_18h26.57.611,exp11,2020.2.6,Win32,60,IwAR0VKvOVLfO9x4NH2ByDS5JjHnaE1WnLh7ltAewcCBZxKhEo_J5XvgtxSNM,,,,,,,,,,,
,,,,,,,,,,,,,,a,1,1.714,space,0.486,0,127,127,136,1,0_targ_4_dist_green/trial12.png,,,0,4,greenverival,a,50,65,male,2021-02-24_18h26.57.611,exp11,2020.2.6,Win32,60,IwAR0VKvOVLfO9x4NH2ByDS5JjHnaE1WnLh7ltAewcCBZxKhEo_J5XvgtxSNM,,,,,,,,,,,
,,,,,,,,,,,,,,a,1,1.095,space,0.418,0,128,128,155,1,0_targ_10_dist_green/trial6.png,,,0,10,greenverival,a,50,65,male,2021-02-24_18h26.57.611,exp11,2020.2.6,Win32,60,IwAR0VKvOVLfO9x4NH2ByDS5JjHnaE1WnLh7ltAewcCBZxKhEo_J5XvgtxSNM,,,,,,,,,,,
,,,,,,,,,,,,,,a,1,1.646,space,0.4,0,129,129,167,1,0_targ_10_dist_green/trial18.png,,,0,10,greenverival,a,50,65,male,2021-02-24_18h26.57.611,exp11,2020.2.6,Win32,60,IwAR0VKvOVLfO9x4NH2ByDS5JjHnaE1WnLh7ltAewcCBZxKhEo_J5XvgtxSNM,,,,,,,,,,,
,,,,,,,,,,,,,,a,1,1.056,space,0.404,0,130,130,147,1,0_targ_4_dist_green/trial23.png,,,0,4,greenverival,a,50,65,male,2021-02-24_18h26.57.611,exp11,2020.2.6,Win32,60,IwAR0VKvOVLfO9x4NH2ByDS5JjHnaE1WnLh7ltAewcCBZxKhEo_J5XvgtxSNM,,,,,,,,,,,
,,,,,,,,,,,,,,p,1,0.61,space,0.316,0,131,131,69,1,9_dist_green/trial20.png,,,1,9,greenverival,p,50,65,male,2021-02-24_18h26.57.611,exp11,2020.2.6,Win32,60,IwAR0VKvOVLfO9x4NH2ByDS5JjHnaE1WnLh7ltAewcCBZxKhEo_J5XvgtxSNM,,,,,,,,,,,
,,,,,,,,,,,,,,p,1,0.562,space,0.268,0,132,132,18,1,0_dist_green/trial19.png,,,1,0,greenverival,p,50,65,male,2021-02-24_18h26.57.611,exp11,2020.2.6,Win32,60,IwAR0VKvOVLfO9x4NH2ByDS5JjHnaE1WnLh7ltAewcCBZxKhEo_J5XvgtxSNM,,,,,,,,,,,
,,,,,,,,,,,,,,p,1,0.582,space,0.233,0,133,133,54,1,9_dist_green/trial5.png,,,1,9,greenverival,p,50,65,male,2021-02-24_18h26.57.611,exp11,2020.2.6,Win32,60,IwAR0VKvOVLfO9x4NH2ByDS5JjHnaE1WnLh7ltAewcCBZxKhEo_J5XvgtxSNM,,,,,,,,,,,
,,,,,,,,,,,,,,p,1,0.464,space,0.204,0,134,134,13,1,0_dist_green/trial14.png,,,1,0,greenverival,p,50,65,male,2021-02-24_18h26.57.611,exp11,2020.2.6,Win32,60,IwAR0VKvOVLfO9x4NH2ByDS5JjHnaE1WnLh7ltAewcCBZxKhEo_J5XvgtxSNM,,,,,,,,,,,
,,,,,,,,,,,,,,a,1,1.026,space,0.418,0,135,135,110,1,0_targ_1_dist_green/trial11.png,,,0,1,greenverival,a,50,65,male,2021-02-24_18h26.57.611,exp11,2020.2.6,Win32,60,IwAR0VKvOVLfO9x4NH2ByDS5JjHnaE1WnLh7ltAewcCBZxKhEo_J5XvgtxSNM,,,,,,,,,,,
,,,,,,,,,,,,,,p,1,0.909,space,0.194,0,136,136,41,1,3_dist_green/trial17.png,,,1,3,greenverival,p,50,65,male,2021-02-24_18h26.57.611,exp11,2020.2.6,Win32,60,IwAR0VKvOVLfO9x4NH2ByDS5JjHnaE1WnLh7ltAewcCBZxKhEo_J5XvgtxSNM,,,,,,,,,,,
,,,,,,,,,,,,,,p,1,0.731,space,0.276,0,137,137,33,1,3_dist_green/trial9.png,,,1,3,greenverival,p,50,65,male,2021-02-24_18h26.57.611,exp11,2020.2.6,Win32,60,IwAR0VKvOVLfO9x4NH2ByDS5JjHnaE1WnLh7ltAewcCBZxKhEo_J5XvgtxSNM,,,,,,,,,,,
,,,,,,,,,,,,,,a,1,0.91,space,0.386,0,138,138,141,1,0_targ_4_dist_green/trial17.png,,,0,4,greenverival,a,50,65,male,2021-02-24_18h26.57.611,exp11,2020.2.6,Win32,60,IwAR0VKvOVLfO9x4NH2ByDS5JjHnaE1WnLh7ltAewcCBZxKhEo_J5XvgtxSNM,,,,,,,,,,,
,,,,,,,,,,,,,,p,1,0.878,space,0.451,0,139,139,27,1,3_dist_green/trial3.png,,,1,3,greenverival,p,50,65,male,2021-02-24_18h26.57.611,exp11,2020.2.6,Win32,60,IwAR0VKvOVLfO9x4NH2ByDS5JjHnaE1WnLh7ltAewcCBZxKhEo_J5XvgtxSNM,,,,,,,,,,,
,,,,,,,,,,,,,,p,1,0.893,space,0.362,0,140,140,47,1,3_dist_green/trial23.png,,,1,3,greenverival,p,50,65,male,2021-02-24_18h26.57.611,exp11,2020.2.6,Win32,60,IwAR0VKvOVLfO9x4NH2ByDS5JjHnaE1WnLh7ltAewcCBZxKhEo_J5XvgtxSNM,,,,,,,,,,,
,,,,,,,,,,,,,,a,1,0.901,space,0.359,0,141,141,133,1,0_targ_4_dist_green/trial9.png,,,0,4,greenverival,a,50,65,male,2021-02-24_18h26.57.611,exp11,2020.2.6,Win32,60,IwAR0VKvOVLfO9x4NH2ByDS5JjHnaE1WnLh7ltAewcCBZxKhEo_J5XvgtxSNM,,,,,,,,,,,
,,,,,,,,,,,,,,a,1,1.229,space,0.435,0,142,142,161,1,0_targ_10_dist_green/trial12.png,,,0,10,greenverival,a,50,65,male,2021-02-24_18h26.57.611,exp11,2020.2.6,Win32,60,IwAR0VKvOVLfO9x4NH2ByDS5JjHnaE1WnLh7ltAewcCBZxKhEo_J5XvgtxSNM,,,,,,,,,,,
,,,,,,,,,,,,,,p,1,0.595,space,0.402,0,143,143,97,1,15_dist_green/trial23.png,,,1,15,greenverival,p,50,65,male,2021-02-24_18h26.57.611,exp11,2020.2.6,Win32,60,IwAR0VKvOVLfO9x4NH2ByDS5JjHnaE1WnLh7ltAewcCBZxKhEo_J5XvgtxSNM,,,,,,,,,,,
,,,,,,,,,,,,,,p,1,0.743,space,0.236,0,144,144,82,1,15_dist_green/trial8.png,,,1,15,greenverival,p,50,65,male,2021-02-24_18h26.57.611,exp11,2020.2.6,Win32,60,IwAR0VKvOVLfO9x4NH2ByDS5JjHnaE1WnLh7ltAewcCBZxKhEo_J5XvgtxSNM,,,,,,,,,,,
,,,,,,,,,,,,,,a,1,1.11,space,0.342,0,145,145,129,1,0_targ_4_dist_green/trial5.png,,,0,4,greenverival,a,50,65,male,2021-02-24_18h26.57.611,exp11,2020.2.6,Win32,60,IwAR0VKvOVLfO9x4NH2ByDS5JjHnaE1WnLh7ltAewcCBZxKhEo_J5XvgtxSNM,,,,,,,,,,,
,,,,,,,,,,,,,,p,1,0.712,space,0.243,0,146,146,93,1,15_dist_green/trial19.png,,,1,15,greenverival,p,50,65,male,2021-02-24_18h26.57.611,exp11,2020.2.6,Win32,60,IwAR0VKvOVLfO9x4NH2ByDS5JjHnaE1WnLh7ltAewcCBZxKhEo_J5XvgtxSNM,,,,,,,,,,,
,,,,,,,,,,,,,,p,1,1.514,space,0.509,0,147,147,86,1,15_dist_green/trial12.png,,,1,15,greenverival,p,50,65,male,2021-02-24_18h26.57.611,exp11,2020.2.6,Win32,60,IwAR0VKvOVLfO9x4NH2ByDS5JjHnaE1WnLh7ltAewcCBZxKhEo_J5XvgtxSNM,,,,,,,,,,,
,,,,,,,,,,,,,,p,1,0.726,space,0.318,0,148,148,77,1,15_dist_green/trial3.png,,,1,15,greenverival,p,50,65,male,2021-02-24_18h26.57.611,exp11,2020.2.6,Win32,60,IwAR0VKvOVLfO9x4NH2ByDS5JjHnaE1WnLh7ltAewcCBZxKhEo_J5XvgtxSNM,,,,,,,,,,,
,,,,,,,,,,,,,,p,1,0.692,space,0.233,0,149,149,66,1,9_dist_green/trial17.png,,,1,9,greenverival,p,50,65,male,2021-02-24_18h26.57.611,exp11,2020.2.6,Win32,60,IwAR0VKvOVLfO9x4NH2ByDS5JjHnaE1WnLh7ltAewcCBZxKhEo_J5XvgtxSNM,,,,,,,,,,,
,,,,,,,,,,,,,,p,1,0.68,space,0.222,0,150,150,73,1,9_dist_green/trial24.png,,,1,9,greenverival,p,50,65,male,2021-02-24_18h26.57.611,exp11,2020.2.6,Win32,60,IwAR0VKvOVLfO9x4NH2ByDS5JjHnaE1WnLh7ltAewcCBZxKhEo_J5XvgtxSNM,,,,,,,,,,,
,,,,,,,,,,,,,,p,1,0.576,space,0.177,0,151,151,88,1,15_dist_green/trial14.png,,,1,15,greenverival,p,50,65,male,2021-02-24_18h26.57.611,exp11,2020.2.6,Win32,60,IwAR0VKvOVLfO9x4NH2ByDS5JjHnaE1WnLh7ltAewcCBZxKhEo_J5XvgtxSNM,,,,,,,,,,,
,,,,,,,,,,,,,,a,1,0.994,space,0.343,0,152,152,126,1,0_targ_4_dist_green/trial2.png,,,0,4,greenverival,a,50,65,male,2021-02-24_18h26.57.611,exp11,2020.2.6,Win32,60,IwAR0VKvOVLfO9x4NH2ByDS5JjHnaE1WnLh7ltAewcCBZxKhEo_J5XvgtxSNM,,,,,,,,,,,
,,,,,,,,,,,,,,a,1,1.125,space,0.369,0,153,153,176,1,0_targ_16_dist_green/trial2.png,,,0,16,greenverival,a,50,65,male,2021-02-24_18h26.57.611,exp11,2020.2.6,Win32,60,IwAR0VKvOVLfO9x4NH2ByDS5JjHnaE1WnLh7ltAewcCBZxKhEo_J5XvgtxSNM,,,,,,,,,,,
,,,,,,,,,,,,,,p,1,0.644,space,0.256,0,154,154,84,1,15_dist_green/trial10.png,,,1,15,greenverival,p,50,65,male,2021-02-24_18h26.57.611,exp11,2020.2.6,Win32,60,IwAR0VKvOVLfO9x4NH2ByDS5JjHnaE1WnLh7ltAewcCBZxKhEo_J5XvgtxSNM,,,,,,,,,,,
,,,,,,,,,,,,,,p,1,0.618,space,0.367,0,155,155,23,1,0_dist_green/trial24.png,,,1,0,greenverival,p,50,65,male,2021-02-24_18h26.57.611,exp11,2020.2.6,Win32,60,IwAR0VKvOVLfO9x4NH2ByDS5JjHnaE1WnLh7ltAewcCBZxKhEo_J5XvgtxSNM,,,,,,,,,,,
,,,,,,,,,,,,,,p,1,0.878,space,0.269,0,156,156,49,1,3_dist_green/trial25.png,,,1,3,greenverival,p,50,65,male,2021-02-24_18h26.57.611,exp11,2020.2.6,Win32,60,IwAR0VKvOVLfO9x4NH2ByDS5JjHnaE1WnLh7ltAewcCBZxKhEo_J5XvgtxSNM,,,,,,,,,,,
,,,,,,,,,,,,,,a,1,0.91,space,0.336,0,157,157,102,1,0_targ_1_dist_green/trial3.png,,,0,1,greenverival,a,50,65,male,2021-02-24_18h26.57.611,exp11,2020.2.6,Win32,60,IwAR0VKvOVLfO9x4NH2ByDS5JjHnaE1WnLh7ltAewcCBZxKhEo_J5XvgtxSNM,,,,,,,,,,,
,,,,,,,,,,,,,,a,1,0.866,space,0.339,0,158,158,115,1,0_targ_1_dist_green/trial6.png,,,0,1,greenverival,a,50,65,male,2021-02-24_18h26.57.611,exp11,2020.2.6,Win32,60,IwAR0VKvOVLfO9x4NH2ByDS5JjHnaE1WnLh7ltAewcCBZxKhEo_J5XvgtxSNM,,,,,,,,,,,
,,,,,,,,,,,,,,a,1,1.128,space,0.35,0,159,159,159,1,0_targ_10_dist_green/trial10.png,,,0,10,greenverival,a,50,65,male,2021-02-24_18h26.57.611,exp11,2020.2.6,Win32,60,IwAR0VKvOVLfO9x4NH2ByDS5JjHnaE1WnLh7ltAewcCBZxKhEo_J5XvgtxSNM,,,,,,,,,,,
,,,,,,,,,,,,,,p,1,0.602,space,0.22,0,160,160,58,1,9_dist_green/trial9.png,,,1,9,greenverival,p,50,65,male,2021-02-24_18h26.57.611,exp11,2020.2.6,Win32,60,IwAR0VKvOVLfO9x4NH2ByDS5JjHnaE1WnLh7ltAewcCBZxKhEo_J5XvgtxSNM,,,,,,,,,,,
,,,,,,,,,,,,,,a,1,1.61,space,0.402,0,161,161,121,1,0_targ_1_dist_green/trial22.png,,,0,1,greenverival,a,50,65,male,2021-02-24_18h26.57.611,exp11,2020.2.6,Win32,60,IwAR0VKvOVLfO9x4NH2ByDS5JjHnaE1WnLh7ltAewcCBZxKhEo_J5XvgtxSNM,,,,,,,,,,,
,,,,,,,,,,,,,,p,1,0.644,space,0.221,0,162,162,14,1,0_dist_green/trial15.png,,,1,0,greenverival,p,50,65,male,2021-02-24_18h26.57.611,exp11,2020.2.6,Win32,60,IwAR0VKvOVLfO9x4NH2ByDS5JjHnaE1WnLh7ltAewcCBZxKhEo_J5XvgtxSNM,,,,,,,,,,,
,,,,,,,,,,,,,,p,1,0.532,space,0.205,0,163,163,20,1,0_dist_green/trial21.png,,,1,0,greenverival,p,50,65,male,2021-02-24_18h26.57.611,exp11,2020.2.6,Win32,60,IwAR0VKvOVLfO9x4NH2ByDS5JjHnaE1WnLh7ltAewcCBZxKhEo_J5XvgtxSNM,,,,,,,,,,,
,,,,,,,,,,,,,,p,1,0.682,space,0.284,0,164,164,57,1,9_dist_green/trial8.png,,,1,9,greenverival,p,50,65,male,2021-02-24_18h26.57.611,exp11,2020.2.6,Win32,60,IwAR0VKvOVLfO9x4NH2ByDS5JjHnaE1WnLh7ltAewcCBZxKhEo_J5XvgtxSNM,,,,,,,,,,,
,,,,,,,,,,,,,,a,1,1.192,space,0.37,0,165,165,199,1,0_targ_16_dist_green/trial25.png,,,0,16,greenverival,a,50,65,male,2021-02-24_18h26.57.611,exp11,2020.2.6,Win32,60,IwAR0VKvOVLfO9x4NH2ByDS5JjHnaE1WnLh7ltAewcCBZxKhEo_J5XvgtxSNM,,,,,,,,,,,
,,,,,,,,,,,,,,a,1,1.16,space,0.501,0,166,166,163,1,0_targ_10_dist_green/trial14.png,,,0,10,greenverival,a,50,65,male,2021-02-24_18h26.57.611,exp11,2020.2.6,Win32,60,IwAR0VKvOVLfO9x4NH2ByDS5JjHnaE1WnLh7ltAewcCBZxKhEo_J5XvgtxSNM,,,,,,,,,,,
,,,,,,,,,,,,,,a,1,0.9,space,0.373,0,167,167,139,1,0_targ_4_dist_green/trial15.png,,,0,4,greenverival,a,50,65,male,2021-02-24_18h26.57.611,exp11,2020.2.6,Win32,60,IwAR0VKvOVLfO9x4NH2ByDS5JjHnaE1WnLh7ltAewcCBZxKhEo_J5XvgtxSNM,,,,,,,,,,,
,,,,,,,,,,,,,,a,1,0.855,space,0.466,0,168,168,174,1,0_targ_10_dist_green/trial25.png,,,0,10,greenverival,a,50,65,male,2021-02-24_18h26.57.611,exp11,2020.2.6,Win32,60,IwAR0VKvOVLfO9x4NH2ByDS5JjHnaE1WnLh7ltAewcCBZxKhEo_J5XvgtxSNM,,,,,,,,,,,
,,,,,,,,,,,,,,a,1,1.742,space,0.385,0,169,169,112,1,0_targ_1_dist_green/trial13.png,,,0,1,greenverival,a,50,65,male,2021-02-24_18h26.57.611,exp11,2020.2.6,Win32,60,IwAR0VKvOVLfO9x4NH2ByDS5JjHnaE1WnLh7ltAewcCBZxKhEo_J5XvgtxSNM,,,,,,,,,,,
,,,,,,,,,,,,,,a,1,1.085,space,0.452,0,170,170,109,1,0_targ_1_dist_green/trial10.png,,,0,1,greenverival,a,50,65,male,2021-02-24_18h26.57.611,exp11,2020.2.6,Win32,60,IwAR0VKvOVLfO9x4NH2ByDS5JjHnaE1WnLh7ltAewcCBZxKhEo_J5XvgtxSNM,,,,,,,,,,,
,,,,,,,,,,,,,,p,1,0.593,space,0.222,0,171,171,74,1,9_dist_green/trial25.png,,,1,9,greenverival,p,50,65,male,2021-02-24_18h26.57.611,exp11,2020.2.6,Win32,60,IwAR0VKvOVLfO9x4NH2ByDS5JjHnaE1WnLh7ltAewcCBZxKhEo_J5XvgtxSNM,,,,,,,,,,,
,,,,,,,,,,,,,,p,1,0.56,space,0.132,0,172,172,24,1,0_dist_green/trial25.png,,,1,0,greenverival,p,50,65,male,2021-02-24_18h26.57.611,exp11,2020.2.6,Win32,60,IwAR0VKvOVLfO9x4NH2ByDS5JjHnaE1WnLh7ltAewcCBZxKhEo_J5XvgtxSNM,,,,,,,,,,,
,,,,,,,,,,,,,,p,1,0.593,space,0.144,0,173,173,62,1,9_dist_green/trial13.png,,,1,9,greenverival,p,50,65,male,2021-02-24_18h26.57.611,exp11,2020.2.6,Win32,60,IwAR0VKvOVLfO9x4NH2ByDS5JjHnaE1WnLh7ltAewcCBZxKhEo_J5XvgtxSNM,,,,,,,,,,,
,,,,,,,,,,,,,,a,1,1.728,space,0.353,0,174,174,158,1,0_targ_10_dist_green/trial9.png,,,0,10,greenverival,a,50,65,male,2021-02-24_18h26.57.611,exp11,2020.2.6,Win32,60,IwAR0VKvOVLfO9x4NH2ByDS5JjHnaE1WnLh7ltAewcCBZxKhEo_J5XvgtxSNM,,,,,,,,,,,
,,,,,,,,,,,,,,p,1,0.667,space,0.15,0,175,175,61,1,9_dist_green/trial12.png,,,1,9,greenverival,p,50,65,male,2021-02-24_18h26.57.611,exp11,2020.2.6,Win32,60,IwAR0VKvOVLfO9x4NH2ByDS5JjHnaE1WnLh7ltAewcCBZxKhEo_J5XvgtxSNM,,,,,,,,,,,
,,,,,,,,,,,,,,a,1,0.912,space,0.517,0,176,176,171,1,0_targ_10_dist_green/trial22.png,,,0,10,greenverival,a,50,65,male,2021-02-24_18h26.57.611,exp11,2020.2.6,Win32,60,IwAR0VKvOVLfO9x4NH2ByDS5JjHnaE1WnLh7ltAewcCBZxKhEo_J5XvgtxSNM,,,,,,,,,,,
,,,,,,,,,,,,,,p,1,0.926,space,0.19,0,177,177,85,1,15_dist_green/trial11.png,,,1,15,greenverival,p,50,65,male,2021-02-24_18h26.57.611,exp11,2020.2.6,Win32,60,IwAR0VKvOVLfO9x4NH2ByDS5JjHnaE1WnLh7ltAewcCBZxKhEo_J5XvgtxSNM,,,,,,,,,,,
,,,,,,,,,,,,,,p,1,0.643,space,0.141,0,178,178,80,1,15_dist_green/trial6.png,,,1,15,greenverival,p,50,65,male,2021-02-24_18h26.57.611,exp11,2020.2.6,Win32,60,IwAR0VKvOVLfO9x4NH2ByDS5JjHnaE1WnLh7ltAewcCBZxKhEo_J5XvgtxSNM,,,,,,,,,,,
,,,,,,,,,,,,,,p,1,0.61,space,0.124,0,179,179,55,1,9_dist_green/trial6.png,,,1,9,greenverival,p,50,65,male,2021-02-24_18h26.57.611,exp11,2020.2.6,Win32,60,IwAR0VKvOVLfO9x4NH2ByDS5JjHnaE1WnLh7ltAewcCBZxKhEo_J5XvgtxSNM,,,,,,,,,,,
,,,,,,,,,,,,,,a,1,1.125,space,0.454,0,180,180,100,1,0_targ_1_dist_green/trial1.png,,,0,1,greenverival,a,50,65,male,2021-02-24_18h26.57.611,exp11,2020.2.6,Win32,60,IwAR0VKvOVLfO9x4NH2ByDS5JjHnaE1WnLh7ltAewcCBZxKhEo_J5XvgtxSNM,,,,,,,,,,,
,,,,,,,,,,,,,,p,1,0.659,space,0.259,0,181,181,87,1,15_dist_green/trial13.png,,,1,15,greenverival,p,50,65,male,2021-02-24_18h26.57.611,exp11,2020.2.6,Win32,60,IwAR0VKvOVLfO9x4NH2ByDS5JjHnaE1WnLh7ltAewcCBZxKhEo_J5XvgtxSNM,,,,,,,,,,,
,,,,,,,,,,,,,,p,1,0.859,space,0.2,0,182,182,40,1,3_dist_green/trial16.png,,,1,3,greenverival,p,50,65,male,2021-02-24_18h26.57.611,exp11,2020.2.6,Win32,60,IwAR0VKvOVLfO9x4NH2ByDS5JjHnaE1WnLh7ltAewcCBZxKhEo_J5XvgtxSNM,,,,,,,,,,,
,,,,,,,,,,,,,,a,1,1.104,space,0.386,0,183,183,140,1,0_targ_4_dist_green/trial6.png,,,0,4,greenverival,a,50,65,male,2021-02-24_18h26.57.611,exp11,2020.2.6,Win32,60,IwAR0VKvOVLfO9x4NH2ByDS5JjHnaE1WnLh7ltAewcCBZxKhEo_J5XvgtxSNM,,,,,,,,,,,
,,,,,,,,,,,,,,p,1,1.436,space,0.222,0,184,184,44,1,3_dist_green/trial20.png,,,1,3,greenverival,p,50,65,male,2021-02-24_18h26.57.611,exp11,2020.2.6,Win32,60,IwAR0VKvOVLfO9x4NH2ByDS5JjHnaE1WnLh7ltAewcCBZxKhEo_J5XvgtxSNM,,,,,,,,,,,
,,,,,,,,,,,,,,a,1,1.27,space,0.442,0,185,185,180,1,0_targ_16_dist_green/trial6.png,,,0,16,greenverival,a,50,65,male,2021-02-24_18h26.57.611,exp11,2020.2.6,Win32,60,IwAR0VKvOVLfO9x4NH2ByDS5JjHnaE1WnLh7ltAewcCBZxKhEo_J5XvgtxSNM,,,,,,,,,,,
,,,,,,,,,,,,,,a,1,0.993,space,0.401,0,186,186,187,1,0_targ_16_dist_green/trial13.png,,,0,16,greenverival,a,50,65,male,2021-02-24_18h26.57.611,exp11,2020.2.6,Win32,60,IwAR0VKvOVLfO9x4NH2ByDS5JjHnaE1WnLh7ltAewcCBZxKhEo_J5XvgtxSNM,,,,,,,,,,,
,,,,,,,,,,,,,,p,1,0.541,space,0.369,0,187,187,6,1,0_dist_green/trial7.png,,,1,0,greenverival,p,50,65,male,2021-02-24_18h26.57.611,exp11,2020.2.6,Win32,60,IwAR0VKvOVLfO9x4NH2ByDS5JjHnaE1WnLh7ltAewcCBZxKhEo_J5XvgtxSNM,,,,,,,,,,,
,,,,,,,,,,,,,,p,1,0.415,space,0.271,0,188,188,35,1,3_dist_green/trial11.png,,,1,3,greenverival,p,50,65,male,2021-02-24_18h26.57.611,exp11,2020.2.6,Win32,60,IwAR0VKvOVLfO9x4NH2ByDS5JjHnaE1WnLh7ltAewcCBZxKhEo_J5XvgtxSNM,,,,,,,,,,,
,,,,,,,,,,,,,,a,1,1.095,space,0.487,0,189,189,130,1,0_targ_4_dist_green/trial6.png,,,0,4,greenverival,a,50,65,male,2021-02-24_18h26.57.611,exp11,2020.2.6,Win32,60,IwAR0VKvOVLfO9x4NH2ByDS5JjHnaE1WnLh7ltAewcCBZxKhEo_J5XvgtxSNM,,,,,,,,,,,
,,,,,,,,,,,,,,a,1,1.011,space,0.434,0,190,190,156,1,0_targ_10_dist_green/trial7.png,,,0,10,greenverival,a,50,65,male,2021-02-24_18h26.57.611,exp11,2020.2.6,Win32,60,IwAR0VKvOVLfO9x4NH2ByDS5JjHnaE1WnLh7ltAewcCBZxKhEo_J5XvgtxSNM,,,,,,,,,,,
,,,,,,,,,,,,,,p,1,0.561,space,0.251,0,191,191,12,1,0_dist_green/trial13.png,,,1,0,greenverival,p,50,65,male,2021-02-24_18h26.57.611,exp11,2020.2.6,Win32,60,IwAR0VKvOVLfO9x4NH2ByDS5JjHnaE1WnLh7ltAewcCBZxKhEo_J5XvgtxSNM,,,,,,,,,,,
,,,,,,,,,,,,,,p,1,0.581,space,0.301,0,192,192,4,1,0_dist_green/trial5.png,,,1,0,greenverival,p,50,65,male,2021-02-24_18h26.57.611,exp11,2020.2.6,Win32,60,IwAR0VKvOVLfO9x4NH2ByDS5JjHnaE1WnLh7ltAewcCBZxKhEo_J5XvgtxSNM,,,,,,,,,,,
,,,,,,,,,,,,,,p,1,0.866,space,0.327,0,193,193,60,1,9_dist_green/trial11.png,,,1,9,greenverival,p,50,65,male,2021-02-24_18h26.57.611,exp11,2020.2.6,Win32,60,IwAR0VKvOVLfO9x4NH2ByDS5JjHnaE1WnLh7ltAewcCBZxKhEo_J5XvgtxSNM,,,,,,,,,,,
,,,,,,,,,,,,,,p,1,0.627,space,0.268,0,194,194,26,1,3_dist_green/trial2.png,,,1,3,greenverival,p,50,65,male,2021-02-24_18h26.57.611,exp11,2020.2.6,Win32,60,IwAR0VKvOVLfO9x4NH2ByDS5JjHnaE1WnLh7ltAewcCBZxKhEo_J5XvgtxSNM,,,,,,,,,,,
,,,,,,,,,,,,,,p,1,0.558,space,0.301,0,195,195,81,1,15_dist_green/trial7.png,,,1,15,greenverival,p,50,65,male,2021-02-24_18h26.57.611,exp11,2020.2.6,Win32,60,IwAR0VKvOVLfO9x4NH2ByDS5JjHnaE1WnLh7ltAewcCBZxKhEo_J5XvgtxSNM,,,,,,,,,,,
,,,,,,,,,,,,,,a,1,0.993,space,0.455,0,196,196,127,1,0_targ_4_dist_green/trial3.png,,,0,4,greenverival,a,50,65,male,2021-02-24_18h26.57.611,exp11,2020.2.6,Win32,60,IwAR0VKvOVLfO9x4NH2ByDS5JjHnaE1WnLh7ltAewcCBZxKhEo_J5XvgtxSNM,,,,,,,,,,,
,,,,,,,,,,,,,,p,1,1.35,space,0.333,0,197,197,98,1,15_dist_green/trial24.png,,,1,15,greenverival,p,50,65,male,2021-02-24_18h26.57.611,exp11,2020.2.6,Win32,60,IwAR0VKvOVLfO9x4NH2ByDS5JjHnaE1WnLh7ltAewcCBZxKhEo_J5XvgtxSNM,,,,,,,,,,,
,,,,,,,,,,,,,,p,1,0.708,space,0.223,0,198,198,32,1,3_dist_green/trial8.png,,,1,3,greenverival,p,50,65,male,2021-02-24_18h26.57.611,exp11,2020.2.6,Win32,60,IwAR0VKvOVLfO9x4NH2ByDS5JjHnaE1WnLh7ltAewcCBZxKhEo_J5XvgtxSNM,,,,,,,,,,,
,,,,,,,,,,,,,,p,1,0.561,space,0.22,0,199,199,34,1,3_dist_green/trial10.png,,,1,3,greenverival,p,50,65,male,2021-02-24_18h26.57.611,exp11,2020.2.6,Win32,60,IwAR0VKvOVLfO9x4NH2ByDS5JjHnaE1WnLh7ltAewcCBZxKhEo_J5XvgtxSNM,,,,,,,,,,,
,,,,,,,,,,,,,,,,,,,,,,,,,,,,,,,50,65,male,2021-02-24_18h26.57.611,exp11,2020.2.6,Win32,60,IwAR0VKvOVLfO9x4NH2ByDS5JjHnaE1WnLh7ltAewcCBZxKhEo_J5XvgtxSNM,0,1,1,0,1,conGreen.xlsx,green vertical,Look for green vertical bar (target) and indicate if it is present or absent in the array. If green vertical target is present press 'p' and if absent press 'a'. Press SPACE to start.,,,
