key_resp_6.keys,key_resp_6.rt,key_resp_7.keys,key_resp_7.rt,key_resp_8.keys,key_resp_8.rt,key_resp_10.keys,key_resp_10.rt,key_resp_9.keys,key_resp_9.rt,key_resp_3.keys,key_resp_3.rt,key_resp_5.keys,key_resp_5.rt,key_resp.keys,key_resp.corr,key_resp.rt,key_resp_4.keys,key_resp_4.rt,trials.thisRepN,trials.thisTrialN,trials.thisN,trials.thisIndex,trials.ran,ImageFile,tarPos,tarSize,targPres,numDist,targetName,correctAns,participant,age,sex,date,expName,psychopyVersion,OS,frameRate,fbclid,trials_2.thisRepN,trials_2.thisTrialN,trials_2.thisN,trials_2.thisIndex,trials_2.ran,condsFile,targName,instructionText,colTarget,sizeTarg,posit
space,2.079740001,space,20.378885,space,11.92613,space,34.312075,space,9.27805,space,12.47236,space,8.359715,p,0,1.43127,space,6.565059999,0,0,0,105,1,0_targ_1_dist_green/trial6.png,,,0,1,greenverival,a,53,20,F,2021-02-22_14h37.35.130,exp11,2020.2.6,Win32,60,IwAR2p1jO_G1NvGpsqal5bKEKGB4vbw4uwO9Bz-P0aFZNlkSdCKj8RvcwL9UQ,,,,,,,,,,,
,,,,,,,,,,,,,,p,1,1.593975,space,2.58258,0,1,1,63,1,9_dist_green/trial14.png,,,1,9,greenverival,p,53,20,F,2021-02-22_14h37.35.130,exp11,2020.2.6,Win32,60,IwAR2p1jO_G1NvGpsqal5bKEKGB4vbw4uwO9Bz-P0aFZNlkSdCKj8RvcwL9UQ,,,,,,,,,,,
,,,,,,,,,,,,,,p,1,0.812099999,space,0.636415001,0,2,2,30,1,3_dist_green/trial6.png,,,1,3,greenverival,p,53,20,F,2021-02-22_14h37.35.130,exp11,2020.2.6,Win32,60,IwAR2p1jO_G1NvGpsqal5bKEKGB4vbw4uwO9Bz-P0aFZNlkSdCKj8RvcwL9UQ,,,,,,,,,,,
,,,,,,,,,,,,,,p,1,0.613884998,space,0.785935,0,3,3,85,1,15_dist_green/trial11.png,,,1,15,greenverival,p,53,20,F,2021-02-22_14h37.35.130,exp11,2020.2.6,Win32,60,IwAR2p1jO_G1NvGpsqal5bKEKGB4vbw4uwO9Bz-P0aFZNlkSdCKj8RvcwL9UQ,,,,,,,,,,,
,,,,,,,,,,,,,,p,1,0.582234999,space,0.912095001,0,4,4,43,1,3_dist_green/trial19.png,,,1,3,greenverival,p,53,20,F,2021-02-22_14h37.35.130,exp11,2020.2.6,Win32,60,IwAR2p1jO_G1NvGpsqal5bKEKGB4vbw4uwO9Bz-P0aFZNlkSdCKj8RvcwL9UQ,,,,,,,,,,,
,,,,,,,,,,,,,,p,0,0.569839999,space,2.027670002,0,5,5,175,1,0_targ_16_dist_green/trial1.png,,,0,16,greenverival,a,53,20,F,2021-02-22_14h37.35.130,exp11,2020.2.6,Win32,60,IwAR2p1jO_G1NvGpsqal5bKEKGB4vbw4uwO9Bz-P0aFZNlkSdCKj8RvcwL9UQ,,,,,,,,,,,
,,,,,,,,,,,,,,p,1,1.112775002,space,1.30009,0,6,6,97,1,15_dist_green/trial23.png,,,1,15,greenverival,p,53,20,F,2021-02-22_14h37.35.130,exp11,2020.2.6,Win32,60,IwAR2p1jO_G1NvGpsqal5bKEKGB4vbw4uwO9Bz-P0aFZNlkSdCKj8RvcwL9UQ,,,,,,,,,,,
,,,,,,,,,,,,,,p,1,0.88954,space,0.723100001,0,7,7,78,1,15_dist_green/trial4.png,,,1,15,greenverival,p,53,20,F,2021-02-22_14h37.35.130,exp11,2020.2.6,Win32,60,IwAR2p1jO_G1NvGpsqal5bKEKGB4vbw4uwO9Bz-P0aFZNlkSdCKj8RvcwL9UQ,,,,,,,,,,,
,,,,,,,,,,,,,,p,1,0.9629,space,0.917084999,0,8,8,98,1,15_dist_green/trial24.png,,,1,15,greenverival,p,53,20,F,2021-02-22_14h37.35.130,exp11,2020.2.6,Win32,60,IwAR2p1jO_G1NvGpsqal5bKEKGB4vbw4uwO9Bz-P0aFZNlkSdCKj8RvcwL9UQ,,,,,,,,,,,
,,,,,,,,,,,,,,p,0,17.307915,space,0.184330001,0,9,9,165,1,0_targ_10_dist_green/trial16.png,,,0,10,greenverival,a,53,20,F,2021-02-22_14h37.35.130,exp11,2020.2.6,Win32,60,IwAR2p1jO_G1NvGpsqal5bKEKGB4vbw4uwO9Bz-P0aFZNlkSdCKj8RvcwL9UQ,,,,,,,,,,,
,,,,,,,,,,,,,,p,1,1.152025001,space,0.941465,0,10,10,19,1,0_dist_green/trial20.png,,,1,0,greenverival,p,53,20,F,2021-02-22_14h37.35.130,exp11,2020.2.6,Win32,60,IwAR2p1jO_G1NvGpsqal5bKEKGB4vbw4uwO9Bz-P0aFZNlkSdCKj8RvcwL9UQ,,,,,,,,,,,
,,,,,,,,,,,,,,a,1,21.558935,space,2.349909998,0,11,11,129,1,0_targ_4_dist_green/trial5.png,,,0,4,greenverival,a,53,20,F,2021-02-22_14h37.35.130,exp11,2020.2.6,Win32,60,IwAR2p1jO_G1NvGpsqal5bKEKGB4vbw4uwO9Bz-P0aFZNlkSdCKj8RvcwL9UQ,,,,,,,,,,,
,,,,,,,,,,,,,,p,1,2.649359999,space,1.004420001,0,12,12,91,1,15_dist_green/trial17.png,,,1,15,greenverival,p,53,20,F,2021-02-22_14h37.35.130,exp11,2020.2.6,Win32,60,IwAR2p1jO_G1NvGpsqal5bKEKGB4vbw4uwO9Bz-P0aFZNlkSdCKj8RvcwL9UQ,,,,,,,,,,,
,,,,,,,,,,,,,,p,1,1.019979998,space,0.799945001,0,13,13,87,1,15_dist_green/trial13.png,,,1,15,greenverival,p,53,20,F,2021-02-22_14h37.35.130,exp11,2020.2.6,Win32,60,IwAR2p1jO_G1NvGpsqal5bKEKGB4vbw4uwO9Bz-P0aFZNlkSdCKj8RvcwL9UQ,,,,,,,,,,,
,,,,,,,,,,,,,,p,1,1.961620001,space,0.845854999,0,14,14,20,1,0_dist_green/trial21.png,,,1,0,greenverival,p,53,20,F,2021-02-22_14h37.35.130,exp11,2020.2.6,Win32,60,IwAR2p1jO_G1NvGpsqal5bKEKGB4vbw4uwO9Bz-P0aFZNlkSdCKj8RvcwL9UQ,,,,,,,,,,,
,,,,,,,,,,,,,,a,1,1.29586,space,0.944639999,0,15,15,174,1,0_targ_10_dist_green/trial25.png,,,0,10,greenverival,a,53,20,F,2021-02-22_14h37.35.130,exp11,2020.2.6,Win32,60,IwAR2p1jO_G1NvGpsqal5bKEKGB4vbw4uwO9Bz-P0aFZNlkSdCKj8RvcwL9UQ,,,,,,,,,,,
,,,,,,,,,,,,,,a,1,1.103219999,space,0.833725,0,16,16,189,1,0_targ_16_dist_green/trial15.png,,,0,16,greenverival,a,53,20,F,2021-02-22_14h37.35.130,exp11,2020.2.6,Win32,60,IwAR2p1jO_G1NvGpsqal5bKEKGB4vbw4uwO9Bz-P0aFZNlkSdCKj8RvcwL9UQ,,,,,,,,,,,
,,,,,,,,,,,,,,p,1,1.046325,space,0.817115,0,17,17,0,1,0_dist_green/trial1.png,,,1,0,greenverival,p,53,20,F,2021-02-22_14h37.35.130,exp11,2020.2.6,Win32,60,IwAR2p1jO_G1NvGpsqal5bKEKGB4vbw4uwO9Bz-P0aFZNlkSdCKj8RvcwL9UQ,,,,,,,,,,,
,,,,,,,,,,,,,,a,1,1.454064999,space,0.823309999,0,18,18,180,1,0_targ_16_dist_green/trial6.png,,,0,16,greenverival,a,53,20,F,2021-02-22_14h37.35.130,exp11,2020.2.6,Win32,60,IwAR2p1jO_G1NvGpsqal5bKEKGB4vbw4uwO9Bz-P0aFZNlkSdCKj8RvcwL9UQ,,,,,,,,,,,
,,,,,,,,,,,,,,p,1,2.012445001,space,0.475300001,0,19,19,73,1,9_dist_green/trial24.png,,,1,9,greenverival,p,53,20,F,2021-02-22_14h37.35.130,exp11,2020.2.6,Win32,60,IwAR2p1jO_G1NvGpsqal5bKEKGB4vbw4uwO9Bz-P0aFZNlkSdCKj8RvcwL9UQ,,,,,,,,,,,
,,,,,,,,,,,,,,a,1,0.6143,space,0.46682,0,20,20,147,1,0_targ_4_dist_green/trial23.png,,,0,4,greenverival,a,53,20,F,2021-02-22_14h37.35.130,exp11,2020.2.6,Win32,60,IwAR2p1jO_G1NvGpsqal5bKEKGB4vbw4uwO9Bz-P0aFZNlkSdCKj8RvcwL9UQ,,,,,,,,,,,
,,,,,,,,,,,,,,p,1,0.805204999,space,0.624244999,0,21,21,21,1,0_dist_green/trial22.png,,,1,0,greenverival,p,53,20,F,2021-02-22_14h37.35.130,exp11,2020.2.6,Win32,60,IwAR2p1jO_G1NvGpsqal5bKEKGB4vbw4uwO9Bz-P0aFZNlkSdCKj8RvcwL9UQ,,,,,,,,,,,
,,,,,,,,,,,,,,a,1,0.63277,space,0.467319999,0,22,22,163,1,0_targ_10_dist_green/trial14.png,,,0,10,greenverival,a,53,20,F,2021-02-22_14h37.35.130,exp11,2020.2.6,Win32,60,IwAR2p1jO_G1NvGpsqal5bKEKGB4vbw4uwO9Bz-P0aFZNlkSdCKj8RvcwL9UQ,,,,,,,,,,,
,,,,,,,,,,,,,,a,1,0.972200001,space,0.460055001,0,23,23,169,1,0_targ_10_dist_green/trial20.png,,,0,10,greenverival,a,53,20,F,2021-02-22_14h37.35.130,exp11,2020.2.6,Win32,60,IwAR2p1jO_G1NvGpsqal5bKEKGB4vbw4uwO9Bz-P0aFZNlkSdCKj8RvcwL9UQ,,,,,,,,,,,
,,,,,,,,,,,,,,p,1,1.34616,space,0.524900001,0,24,24,76,1,15_dist_green/trial2.png,,,1,15,greenverival,p,53,20,F,2021-02-22_14h37.35.130,exp11,2020.2.6,Win32,60,IwAR2p1jO_G1NvGpsqal5bKEKGB4vbw4uwO9Bz-P0aFZNlkSdCKj8RvcwL9UQ,,,,,,,,,,,
,,,,,,,,,,,,,,a,1,0.614474999,space,0.412945,0,25,25,172,1,0_targ_10_dist_green/trial23.png,,,0,10,greenverival,a,53,20,F,2021-02-22_14h37.35.130,exp11,2020.2.6,Win32,60,IwAR2p1jO_G1NvGpsqal5bKEKGB4vbw4uwO9Bz-P0aFZNlkSdCKj8RvcwL9UQ,,,,,,,,,,,
,,,,,,,,,,,,,,a,1,0.603794999,space,0.58371,0,26,26,185,1,0_targ_16_dist_green/trial11.png,,,0,16,greenverival,a,53,20,F,2021-02-22_14h37.35.130,exp11,2020.2.6,Win32,60,IwAR2p1jO_G1NvGpsqal5bKEKGB4vbw4uwO9Bz-P0aFZNlkSdCKj8RvcwL9UQ,,,,,,,,,,,
,,,,,,,,,,,,,,a,1,0.59633,space,0.376605,0,27,27,148,1,0_targ_4_dist_green/trial24.png,,,0,4,greenverival,a,53,20,F,2021-02-22_14h37.35.130,exp11,2020.2.6,Win32,60,IwAR2p1jO_G1NvGpsqal5bKEKGB4vbw4uwO9Bz-P0aFZNlkSdCKj8RvcwL9UQ,,,,,,,,,,,
,,,,,,,,,,,,,,a,1,0.521199999,space,0.384930002,0,28,28,152,1,0_targ_10_dist_green/trial3.png,,,0,10,greenverival,a,53,20,F,2021-02-22_14h37.35.130,exp11,2020.2.6,Win32,60,IwAR2p1jO_G1NvGpsqal5bKEKGB4vbw4uwO9Bz-P0aFZNlkSdCKj8RvcwL9UQ,,,,,,,,,,,
,,,,,,,,,,,,,,p,1,1.57896,space,0.483525001,0,29,29,53,1,9_dist_green/trial4.png,,,1,9,greenverival,p,53,20,F,2021-02-22_14h37.35.130,exp11,2020.2.6,Win32,60,IwAR2p1jO_G1NvGpsqal5bKEKGB4vbw4uwO9Bz-P0aFZNlkSdCKj8RvcwL9UQ,,,,,,,,,,,
,,,,,,,,,,,,,,p,1,2.030185001,space,0.39016,0,30,30,46,1,3_dist_green/trial22.png,,,1,3,greenverival,p,53,20,F,2021-02-22_14h37.35.130,exp11,2020.2.6,Win32,60,IwAR2p1jO_G1NvGpsqal5bKEKGB4vbw4uwO9Bz-P0aFZNlkSdCKj8RvcwL9UQ,,,,,,,,,,,
,,,,,,,,,,,,,,p,1,1.045775,space,0.441920001,0,31,31,55,1,9_dist_green/trial6.png,,,1,9,greenverival,p,53,20,F,2021-02-22_14h37.35.130,exp11,2020.2.6,Win32,60,IwAR2p1jO_G1NvGpsqal5bKEKGB4vbw4uwO9Bz-P0aFZNlkSdCKj8RvcwL9UQ,,,,,,,,,,,
,,,,,,,,,,,,,,p,1,1.32869,space,0.417129999,0,32,32,95,1,15_dist_green/trial21.png,,,1,15,greenverival,p,53,20,F,2021-02-22_14h37.35.130,exp11,2020.2.6,Win32,60,IwAR2p1jO_G1NvGpsqal5bKEKGB4vbw4uwO9Bz-P0aFZNlkSdCKj8RvcwL9UQ,,,,,,,,,,,
,,,,,,,,,,,,,,p,1,1.087245001,space,0.418679999,0,33,33,71,1,9_dist_green/trial22.png,,,1,9,greenverival,p,53,20,F,2021-02-22_14h37.35.130,exp11,2020.2.6,Win32,60,IwAR2p1jO_G1NvGpsqal5bKEKGB4vbw4uwO9Bz-P0aFZNlkSdCKj8RvcwL9UQ,,,,,,,,,,,
,,,,,,,,,,,,,,a,1,0.655025,space,0.466869999,0,34,34,110,1,0_targ_1_dist_green/trial11.png,,,0,1,greenverival,a,53,20,F,2021-02-22_14h37.35.130,exp11,2020.2.6,Win32,60,IwAR2p1jO_G1NvGpsqal5bKEKGB4vbw4uwO9Bz-P0aFZNlkSdCKj8RvcwL9UQ,,,,,,,,,,,
,,,,,,,,,,,,,,a,1,1.172924999,space,0.396934999,0,35,35,137,1,0_targ_4_dist_green/trial13.png,,,0,4,greenverival,a,53,20,F,2021-02-22_14h37.35.130,exp11,2020.2.6,Win32,60,IwAR2p1jO_G1NvGpsqal5bKEKGB4vbw4uwO9Bz-P0aFZNlkSdCKj8RvcwL9UQ,,,,,,,,,,,
,,,,,,,,,,,,,,p,1,1.287205001,space,0.45015,0,36,36,82,1,15_dist_green/trial8.png,,,1,15,greenverival,p,53,20,F,2021-02-22_14h37.35.130,exp11,2020.2.6,Win32,60,IwAR2p1jO_G1NvGpsqal5bKEKGB4vbw4uwO9Bz-P0aFZNlkSdCKj8RvcwL9UQ,,,,,,,,,,,
,,,,,,,,,,,,,,p,0,1.102085,space,0.97879,0,37,37,158,1,0_targ_10_dist_green/trial9.png,,,0,10,greenverival,a,53,20,F,2021-02-22_14h37.35.130,exp11,2020.2.6,Win32,60,IwAR2p1jO_G1NvGpsqal5bKEKGB4vbw4uwO9Bz-P0aFZNlkSdCKj8RvcwL9UQ,,,,,,,,,,,
,,,,,,,,,,,,,,a,1,1.06628,space,0.391094999,0,38,38,142,1,0_targ_4_dist_green/trial18.png,,,0,4,greenverival,a,53,20,F,2021-02-22_14h37.35.130,exp11,2020.2.6,Win32,60,IwAR2p1jO_G1NvGpsqal5bKEKGB4vbw4uwO9Bz-P0aFZNlkSdCKj8RvcwL9UQ,,,,,,,,,,,
,,,,,,,,,,,,,,p,1,1.02091,space,0.583730001,0,39,39,27,1,3_dist_green/trial3.png,,,1,3,greenverival,p,53,20,F,2021-02-22_14h37.35.130,exp11,2020.2.6,Win32,60,IwAR2p1jO_G1NvGpsqal5bKEKGB4vbw4uwO9Bz-P0aFZNlkSdCKj8RvcwL9UQ,,,,,,,,,,,
,,,,,,,,,,,,,,a,0,0.75467,space,4.077945,0,40,40,61,1,9_dist_green/trial12.png,,,1,9,greenverival,p,53,20,F,2021-02-22_14h37.35.130,exp11,2020.2.6,Win32,60,IwAR2p1jO_G1NvGpsqal5bKEKGB4vbw4uwO9Bz-P0aFZNlkSdCKj8RvcwL9UQ,,,,,,,,,,,
,,,,,,,,,,,,,,a,1,1.843865,space,0.550965,0,41,41,170,1,0_targ_10_dist_green/trial21.png,,,0,10,greenverival,a,53,20,F,2021-02-22_14h37.35.130,exp11,2020.2.6,Win32,60,IwAR2p1jO_G1NvGpsqal5bKEKGB4vbw4uwO9Bz-P0aFZNlkSdCKj8RvcwL9UQ,,,,,,,,,,,
,,,,,,,,,,,,,,p,1,1.222655,space,0.938575,0,42,42,75,1,15_dist_green/trial1.png,,,1,15,greenverival,p,53,20,F,2021-02-22_14h37.35.130,exp11,2020.2.6,Win32,60,IwAR2p1jO_G1NvGpsqal5bKEKGB4vbw4uwO9Bz-P0aFZNlkSdCKj8RvcwL9UQ,,,,,,,,,,,
,,,,,,,,,,,,,,a,1,0.90206,space,0.94984,0,43,43,166,1,0_targ_10_dist_green/trial17.png,,,0,10,greenverival,a,53,20,F,2021-02-22_14h37.35.130,exp11,2020.2.6,Win32,60,IwAR2p1jO_G1NvGpsqal5bKEKGB4vbw4uwO9Bz-P0aFZNlkSdCKj8RvcwL9UQ,,,,,,,,,,,
,,,,,,,,,,,,,,a,1,0.813750001,space,0.472995,0,44,44,133,1,0_targ_4_dist_green/trial9.png,,,0,4,greenverival,a,53,20,F,2021-02-22_14h37.35.130,exp11,2020.2.6,Win32,60,IwAR2p1jO_G1NvGpsqal5bKEKGB4vbw4uwO9Bz-P0aFZNlkSdCKj8RvcwL9UQ,,,,,,,,,,,
,,,,,,,,,,,,,,p,1,1.190400001,space,0.444979999,0,45,45,70,1,9_dist_green/trial21.png,,,1,9,greenverival,p,53,20,F,2021-02-22_14h37.35.130,exp11,2020.2.6,Win32,60,IwAR2p1jO_G1NvGpsqal5bKEKGB4vbw4uwO9Bz-P0aFZNlkSdCKj8RvcwL9UQ,,,,,,,,,,,
,,,,,,,,,,,,,,p,1,1.906995,space,0.490595,0,46,46,40,1,3_dist_green/trial16.png,,,1,3,greenverival,p,53,20,F,2021-02-22_14h37.35.130,exp11,2020.2.6,Win32,60,IwAR2p1jO_G1NvGpsqal5bKEKGB4vbw4uwO9Bz-P0aFZNlkSdCKj8RvcwL9UQ,,,,,,,,,,,
,,,,,,,,,,,,,,a,1,0.829915,space,0.41013,0,47,47,171,1,0_targ_10_dist_green/trial22.png,,,0,10,greenverival,a,53,20,F,2021-02-22_14h37.35.130,exp11,2020.2.6,Win32,60,IwAR2p1jO_G1NvGpsqal5bKEKGB4vbw4uwO9Bz-P0aFZNlkSdCKj8RvcwL9UQ,,,,,,,,,,,
,,,,,,,,,,,,,,p,1,1.090405,space,0.461604999,0,48,48,22,1,0_dist_green/trial23.png,,,1,0,greenverival,p,53,20,F,2021-02-22_14h37.35.130,exp11,2020.2.6,Win32,60,IwAR2p1jO_G1NvGpsqal5bKEKGB4vbw4uwO9Bz-P0aFZNlkSdCKj8RvcwL9UQ,,,,,,,,,,,
,,,,,,,,,,,,,,p,1,0.890245,space,0.467065001,0,49,49,5,1,0_dist_green/trial6.png,,,1,0,greenverival,p,53,20,F,2021-02-22_14h37.35.130,exp11,2020.2.6,Win32,60,IwAR2p1jO_G1NvGpsqal5bKEKGB4vbw4uwO9Bz-P0aFZNlkSdCKj8RvcwL9UQ,,,,,,,,,,,
,,,,,,,,,,,,,,a,1,1.096065,space,0.394865001,0,50,50,126,1,0_targ_4_dist_green/trial2.png,,,0,4,greenverival,a,53,20,F,2021-02-22_14h37.35.130,exp11,2020.2.6,Win32,60,IwAR2p1jO_G1NvGpsqal5bKEKGB4vbw4uwO9Bz-P0aFZNlkSdCKj8RvcwL9UQ,,,,,,,,,,,
,,,,,,,,,,,,,,a,1,1.506104998,space,1.306685001,0,51,51,173,1,0_targ_10_dist_green/trial24.png,,,0,10,greenverival,a,53,20,F,2021-02-22_14h37.35.130,exp11,2020.2.6,Win32,60,IwAR2p1jO_G1NvGpsqal5bKEKGB4vbw4uwO9Bz-P0aFZNlkSdCKj8RvcwL9UQ,,,,,,,,,,,
,,,,,,,,,,,,,,a,0,0.846129999,space,0.01021,0,52,52,1,1,0_dist_green/trial2.png,,,1,0,greenverival,p,53,20,F,2021-02-22_14h37.35.130,exp11,2020.2.6,Win32,60,IwAR2p1jO_G1NvGpsqal5bKEKGB4vbw4uwO9Bz-P0aFZNlkSdCKj8RvcwL9UQ,,,,,,,,,,,
,,,,,,,,,,,,,,a,1,1.328915,space,0.400899999,0,53,53,181,1,0_targ_16_dist_green/trial7.png,,,0,16,greenverival,a,53,20,F,2021-02-22_14h37.35.130,exp11,2020.2.6,Win32,60,IwAR2p1jO_G1NvGpsqal5bKEKGB4vbw4uwO9Bz-P0aFZNlkSdCKj8RvcwL9UQ,,,,,,,,,,,
,,,,,,,,,,,,,,a,1,1.212269999,space,0.452175001,0,54,54,183,1,0_targ_16_dist_green/trial9.png,,,0,16,greenverival,a,53,20,F,2021-02-22_14h37.35.130,exp11,2020.2.6,Win32,60,IwAR2p1jO_G1NvGpsqal5bKEKGB4vbw4uwO9Bz-P0aFZNlkSdCKj8RvcwL9UQ,,,,,,,,,,,
,,,,,,,,,,,,,,a,1,0.688560002,space,0.751884999,0,55,55,101,1,0_targ_1_dist_green/trial2.png,,,0,1,greenverival,a,53,20,F,2021-02-22_14h37.35.130,exp11,2020.2.6,Win32,60,IwAR2p1jO_G1NvGpsqal5bKEKGB4vbw4uwO9Bz-P0aFZNlkSdCKj8RvcwL9UQ,,,,,,,,,,,
,,,,,,,,,,,,,,p,1,1.3871,space,0.428610001,0,56,56,79,1,15_dist_green/trial5.png,,,1,15,greenverival,p,53,20,F,2021-02-22_14h37.35.130,exp11,2020.2.6,Win32,60,IwAR2p1jO_G1NvGpsqal5bKEKGB4vbw4uwO9Bz-P0aFZNlkSdCKj8RvcwL9UQ,,,,,,,,,,,
,,,,,,,,,,,,,,p,1,1.862115001,space,0.401215,0,57,57,26,1,3_dist_green/trial2.png,,,1,3,greenverival,p,53,20,F,2021-02-22_14h37.35.130,exp11,2020.2.6,Win32,60,IwAR2p1jO_G1NvGpsqal5bKEKGB4vbw4uwO9Bz-P0aFZNlkSdCKj8RvcwL9UQ,,,,,,,,,,,
,,,,,,,,,,,,,,a,1,0.81498,space,0.373430001,0,58,58,109,1,0_targ_1_dist_green/trial10.png,,,0,1,greenverival,a,53,20,F,2021-02-22_14h37.35.130,exp11,2020.2.6,Win32,60,IwAR2p1jO_G1NvGpsqal5bKEKGB4vbw4uwO9Bz-P0aFZNlkSdCKj8RvcwL9UQ,,,,,,,,,,,
,,,,,,,,,,,,,,p,1,1.18548,space,0.4561,0,59,59,31,1,3_dist_green/trial7.png,,,1,3,greenverival,p,53,20,F,2021-02-22_14h37.35.130,exp11,2020.2.6,Win32,60,IwAR2p1jO_G1NvGpsqal5bKEKGB4vbw4uwO9Bz-P0aFZNlkSdCKj8RvcwL9UQ,,,,,,,,,,,
,,,,,,,,,,,,,,a,1,1.3123,space,0.351265,0,60,60,187,1,0_targ_16_dist_green/trial13.png,,,0,16,greenverival,a,53,20,F,2021-02-22_14h37.35.130,exp11,2020.2.6,Win32,60,IwAR2p1jO_G1NvGpsqal5bKEKGB4vbw4uwO9Bz-P0aFZNlkSdCKj8RvcwL9UQ,,,,,,,,,,,
,,,,,,,,,,,,,,p,1,1.195985001,space,0.422215,0,61,61,77,1,15_dist_green/trial3.png,,,1,15,greenverival,p,53,20,F,2021-02-22_14h37.35.130,exp11,2020.2.6,Win32,60,IwAR2p1jO_G1NvGpsqal5bKEKGB4vbw4uwO9Bz-P0aFZNlkSdCKj8RvcwL9UQ,,,,,,,,,,,
,,,,,,,,,,,,,,p,1,0.916230001,space,0.468425,0,62,62,6,1,0_dist_green/trial7.png,,,1,0,greenverival,p,53,20,F,2021-02-22_14h37.35.130,exp11,2020.2.6,Win32,60,IwAR2p1jO_G1NvGpsqal5bKEKGB4vbw4uwO9Bz-P0aFZNlkSdCKj8RvcwL9UQ,,,,,,,,,,,
,,,,,,,,,,,,,,a,1,1.080845,space,0.269925,0,63,63,176,1,0_targ_16_dist_green/trial2.png,,,0,16,greenverival,a,53,20,F,2021-02-22_14h37.35.130,exp11,2020.2.6,Win32,60,IwAR2p1jO_G1NvGpsqal5bKEKGB4vbw4uwO9Bz-P0aFZNlkSdCKj8RvcwL9UQ,,,,,,,,,,,
,,,,,,,,,,,,,,a,1,0.745760001,space,0.452739999,0,64,64,140,1,0_targ_4_dist_green/trial6.png,,,0,4,greenverival,a,53,20,F,2021-02-22_14h37.35.130,exp11,2020.2.6,Win32,60,IwAR2p1jO_G1NvGpsqal5bKEKGB4vbw4uwO9Bz-P0aFZNlkSdCKj8RvcwL9UQ,,,,,,,,,,,
,,,,,,,,,,,,,,p,1,1.129009999,space,0.389565,0,65,65,15,1,0_dist_green/trial16.png,,,1,0,greenverival,p,53,20,F,2021-02-22_14h37.35.130,exp11,2020.2.6,Win32,60,IwAR2p1jO_G1NvGpsqal5bKEKGB4vbw4uwO9Bz-P0aFZNlkSdCKj8RvcwL9UQ,,,,,,,,,,,
,,,,,,,,,,,,,,a,0,0.75474,space,0.900395,0,66,66,33,1,3_dist_green/trial9.png,,,1,3,greenverival,p,53,20,F,2021-02-22_14h37.35.130,exp11,2020.2.6,Win32,60,IwAR2p1jO_G1NvGpsqal5bKEKGB4vbw4uwO9Bz-P0aFZNlkSdCKj8RvcwL9UQ,,,,,,,,,,,
,,,,,,,,,,,,,,a,1,1.678345,space,0.27758,0,67,67,155,1,0_targ_10_dist_green/trial6.png,,,0,10,greenverival,a,53,20,F,2021-02-22_14h37.35.130,exp11,2020.2.6,Win32,60,IwAR2p1jO_G1NvGpsqal5bKEKGB4vbw4uwO9Bz-P0aFZNlkSdCKj8RvcwL9UQ,,,,,,,,,,,
,,,,,,,,,,,,,,p,1,1.287375001,space,0.484175,0,68,68,7,1,0_dist_green/trial8.png,,,1,0,greenverival,p,53,20,F,2021-02-22_14h37.35.130,exp11,2020.2.6,Win32,60,IwAR2p1jO_G1NvGpsqal5bKEKGB4vbw4uwO9Bz-P0aFZNlkSdCKj8RvcwL9UQ,,,,,,,,,,,
,,,,,,,,,,,,,,a,1,1.444159999,space,0.462820001,0,69,69,136,1,0_targ_4_dist_green/trial12.png,,,0,4,greenverival,a,53,20,F,2021-02-22_14h37.35.130,exp11,2020.2.6,Win32,60,IwAR2p1jO_G1NvGpsqal5bKEKGB4vbw4uwO9Bz-P0aFZNlkSdCKj8RvcwL9UQ,,,,,,,,,,,
,,,,,,,,,,,,,,a,1,1.615884999,space,0.46276,0,70,70,123,1,0_targ_1_dist_green/trial24.png,,,0,1,greenverival,a,53,20,F,2021-02-22_14h37.35.130,exp11,2020.2.6,Win32,60,IwAR2p1jO_G1NvGpsqal5bKEKGB4vbw4uwO9Bz-P0aFZNlkSdCKj8RvcwL9UQ,,,,,,,,,,,
,,,,,,,,,,,,,,p,1,1.062510001,space,0.47267,0,71,71,45,1,3_dist_green/trial21.png,,,1,3,greenverival,p,53,20,F,2021-02-22_14h37.35.130,exp11,2020.2.6,Win32,60,IwAR2p1jO_G1NvGpsqal5bKEKGB4vbw4uwO9Bz-P0aFZNlkSdCKj8RvcwL9UQ,,,,,,,,,,,
,,,,,,,,,,,,,,p,1,0.89965,space,0.461984999,0,72,72,24,1,0_dist_green/trial25.png,,,1,0,greenverival,p,53,20,F,2021-02-22_14h37.35.130,exp11,2020.2.6,Win32,60,IwAR2p1jO_G1NvGpsqal5bKEKGB4vbw4uwO9Bz-P0aFZNlkSdCKj8RvcwL9UQ,,,,,,,,,,,
,,,,,,,,,,,,,,a,1,0.978495,space,0.400444999,0,73,73,139,1,0_targ_4_dist_green/trial15.png,,,0,4,greenverival,a,53,20,F,2021-02-22_14h37.35.130,exp11,2020.2.6,Win32,60,IwAR2p1jO_G1NvGpsqal5bKEKGB4vbw4uwO9Bz-P0aFZNlkSdCKj8RvcwL9UQ,,,,,,,,,,,
,,,,,,,,,,,,,,a,1,1.366315,space,0.39452,0,74,74,124,1,0_targ_1_dist_green/trial25.png,,,0,1,greenverival,a,53,20,F,2021-02-22_14h37.35.130,exp11,2020.2.6,Win32,60,IwAR2p1jO_G1NvGpsqal5bKEKGB4vbw4uwO9Bz-P0aFZNlkSdCKj8RvcwL9UQ,,,,,,,,,,,
,,,,,,,,,,,,,,p,1,1.162585,space,0.454059999,0,75,75,74,1,9_dist_green/trial25.png,,,1,9,greenverival,p,53,20,F,2021-02-22_14h37.35.130,exp11,2020.2.6,Win32,60,IwAR2p1jO_G1NvGpsqal5bKEKGB4vbw4uwO9Bz-P0aFZNlkSdCKj8RvcwL9UQ,,,,,,,,,,,
,,,,,,,,,,,,,,p,1,1.498199999,space,0.524349999,0,76,76,92,1,15_dist_green/trial18.png,,,1,15,greenverival,p,53,20,F,2021-02-22_14h37.35.130,exp11,2020.2.6,Win32,60,IwAR2p1jO_G1NvGpsqal5bKEKGB4vbw4uwO9Bz-P0aFZNlkSdCKj8RvcwL9UQ,,,,,,,,,,,
,,,,,,,,,,,,,,p,1,0.995364999,space,0.51135,0,77,77,67,1,9_dist_green/trial18.png,,,1,9,greenverival,p,53,20,F,2021-02-22_14h37.35.130,exp11,2020.2.6,Win32,60,IwAR2p1jO_G1NvGpsqal5bKEKGB4vbw4uwO9Bz-P0aFZNlkSdCKj8RvcwL9UQ,,,,,,,,,,,
,,,,,,,,,,,,,,a,1,0.780320002,space,0.39594,0,78,78,153,1,0_targ_10_dist_green/trial4.png,,,0,10,greenverival,a,53,20,F,2021-02-22_14h37.35.130,exp11,2020.2.6,Win32,60,IwAR2p1jO_G1NvGpsqal5bKEKGB4vbw4uwO9Bz-P0aFZNlkSdCKj8RvcwL9UQ,,,,,,,,,,,
,,,,,,,,,,,,,,a,1,1.26183,space,0.400655,0,79,79,184,1,0_targ_16_dist_green/trial10.png,,,0,16,greenverival,a,53,20,F,2021-02-22_14h37.35.130,exp11,2020.2.6,Win32,60,IwAR2p1jO_G1NvGpsqal5bKEKGB4vbw4uwO9Bz-P0aFZNlkSdCKj8RvcwL9UQ,,,,,,,,,,,
,,,,,,,,,,,,,,p,1,0.93551,space,0.45958,0,80,80,11,1,0_dist_green/trial12.png,,,1,0,greenverival,p,53,20,F,2021-02-22_14h37.35.130,exp11,2020.2.6,Win32,60,IwAR2p1jO_G1NvGpsqal5bKEKGB4vbw4uwO9Bz-P0aFZNlkSdCKj8RvcwL9UQ,,,,,,,,,,,
,,,,,,,,,,,,,,p,1,1.830180001,space,0.440699998,0,81,81,66,1,9_dist_green/trial17.png,,,1,9,greenverival,p,53,20,F,2021-02-22_14h37.35.130,exp11,2020.2.6,Win32,60,IwAR2p1jO_G1NvGpsqal5bKEKGB4vbw4uwO9Bz-P0aFZNlkSdCKj8RvcwL9UQ,,,,,,,,,,,
,,,,,,,,,,,,,,a,1,0.928395001,space,0.345775001,0,82,82,177,1,0_targ_16_dist_green/trial3.png,,,0,16,greenverival,a,53,20,F,2021-02-22_14h37.35.130,exp11,2020.2.6,Win32,60,IwAR2p1jO_G1NvGpsqal5bKEKGB4vbw4uwO9Bz-P0aFZNlkSdCKj8RvcwL9UQ,,,,,,,,,,,
,,,,,,,,,,,,,,a,1,0.967225,space,0.338025,0,83,83,162,1,0_targ_10_dist_green/trial13.png,,,0,10,greenverival,a,53,20,F,2021-02-22_14h37.35.130,exp11,2020.2.6,Win32,60,IwAR2p1jO_G1NvGpsqal5bKEKGB4vbw4uwO9Bz-P0aFZNlkSdCKj8RvcwL9UQ,,,,,,,,,,,
,,,,,,,,,,,,,,p,1,0.87936,space,0.388755001,0,84,84,10,1,0_dist_green/trial11.png,,,1,0,greenverival,p,53,20,F,2021-02-22_14h37.35.130,exp11,2020.2.6,Win32,60,IwAR2p1jO_G1NvGpsqal5bKEKGB4vbw4uwO9Bz-P0aFZNlkSdCKj8RvcwL9UQ,,,,,,,,,,,
,,,,,,,,,,,,,,a,1,2.065505,space,0.283894999,0,85,85,195,1,0_targ_16_dist_green/trial21.png,,,0,16,greenverival,a,53,20,F,2021-02-22_14h37.35.130,exp11,2020.2.6,Win32,60,IwAR2p1jO_G1NvGpsqal5bKEKGB4vbw4uwO9Bz-P0aFZNlkSdCKj8RvcwL9UQ,,,,,,,,,,,
,,,,,,,,,,,,,,p,1,0.97924,space,0.42458,0,86,86,39,1,3_dist_green/trial15.png,,,1,3,greenverival,p,53,20,F,2021-02-22_14h37.35.130,exp11,2020.2.6,Win32,60,IwAR2p1jO_G1NvGpsqal5bKEKGB4vbw4uwO9Bz-P0aFZNlkSdCKj8RvcwL9UQ,,,,,,,,,,,
,,,,,,,,,,,,,,p,1,0.967599999,space,0.47604,0,87,87,49,1,3_dist_green/trial25.png,,,1,3,greenverival,p,53,20,F,2021-02-22_14h37.35.130,exp11,2020.2.6,Win32,60,IwAR2p1jO_G1NvGpsqal5bKEKGB4vbw4uwO9Bz-P0aFZNlkSdCKj8RvcwL9UQ,,,,,,,,,,,
,,,,,,,,,,,,,,a,1,0.965640001,space,0.693809999,0,88,88,198,1,0_targ_16_dist_green/trial24.png,,,0,16,greenverival,a,53,20,F,2021-02-22_14h37.35.130,exp11,2020.2.6,Win32,60,IwAR2p1jO_G1NvGpsqal5bKEKGB4vbw4uwO9Bz-P0aFZNlkSdCKj8RvcwL9UQ,,,,,,,,,,,
,,,,,,,,,,,,,,a,1,0.89982,space,1.04095,0,89,89,168,1,0_targ_10_dist_green/trial19.png,,,0,10,greenverival,a,53,20,F,2021-02-22_14h37.35.130,exp11,2020.2.6,Win32,60,IwAR2p1jO_G1NvGpsqal5bKEKGB4vbw4uwO9Bz-P0aFZNlkSdCKj8RvcwL9UQ,,,,,,,,,,,
,,,,,,,,,,,,,,p,1,0.878825,space,0.445220001,0,90,90,4,1,0_dist_green/trial5.png,,,1,0,greenverival,p,53,20,F,2021-02-22_14h37.35.130,exp11,2020.2.6,Win32,60,IwAR2p1jO_G1NvGpsqal5bKEKGB4vbw4uwO9Bz-P0aFZNlkSdCKj8RvcwL9UQ,,,,,,,,,,,
,,,,,,,,,,,,,,a,1,1.669965001,space,0.280099999,0,91,91,138,1,0_targ_4_dist_green/trial14.png,,,0,4,greenverival,a,53,20,F,2021-02-22_14h37.35.130,exp11,2020.2.6,Win32,60,IwAR2p1jO_G1NvGpsqal5bKEKGB4vbw4uwO9Bz-P0aFZNlkSdCKj8RvcwL9UQ,,,,,,,,,,,
,,,,,,,,,,,,,,p,1,0.999645,space,0.446784999,0,92,92,83,1,15_dist_green/trial9.png,,,1,15,greenverival,p,53,20,F,2021-02-22_14h37.35.130,exp11,2020.2.6,Win32,60,IwAR2p1jO_G1NvGpsqal5bKEKGB4vbw4uwO9Bz-P0aFZNlkSdCKj8RvcwL9UQ,,,,,,,,,,,
,,,,,,,,,,,,,,p,1,1.086689999,space,0.43375,0,93,93,32,1,3_dist_green/trial8.png,,,1,3,greenverival,p,53,20,F,2021-02-22_14h37.35.130,exp11,2020.2.6,Win32,60,IwAR2p1jO_G1NvGpsqal5bKEKGB4vbw4uwO9Bz-P0aFZNlkSdCKj8RvcwL9UQ,,,,,,,,,,,
,,,,,,,,,,,,,,p,1,1.006284999,space,0.466624999,0,94,94,60,1,9_dist_green/trial11.png,,,1,9,greenverival,p,53,20,F,2021-02-22_14h37.35.130,exp11,2020.2.6,Win32,60,IwAR2p1jO_G1NvGpsqal5bKEKGB4vbw4uwO9Bz-P0aFZNlkSdCKj8RvcwL9UQ,,,,,,,,,,,
,,,,,,,,,,,,,,p,1,1.11221,space,0.422945,0,95,95,80,1,15_dist_green/trial6.png,,,1,15,greenverival,p,53,20,F,2021-02-22_14h37.35.130,exp11,2020.2.6,Win32,60,IwAR2p1jO_G1NvGpsqal5bKEKGB4vbw4uwO9Bz-P0aFZNlkSdCKj8RvcwL9UQ,,,,,,,,,,,
,,,,,,,,,,,,,,a,1,0.845489999,space,0.346035,0,96,96,157,1,0_targ_10_dist_green/trial8.png,,,0,10,greenverival,a,53,20,F,2021-02-22_14h37.35.130,exp11,2020.2.6,Win32,60,IwAR2p1jO_G1NvGpsqal5bKEKGB4vbw4uwO9Bz-P0aFZNlkSdCKj8RvcwL9UQ,,,,,,,,,,,
,,,,,,,,,,,,,,p,1,2.012155,space,0.400255,0,97,97,28,1,3_dist_green/trial4.png,,,1,3,greenverival,p,53,20,F,2021-02-22_14h37.35.130,exp11,2020.2.6,Win32,60,IwAR2p1jO_G1NvGpsqal5bKEKGB4vbw4uwO9Bz-P0aFZNlkSdCKj8RvcwL9UQ,,,,,,,,,,,
,,,,,,,,,,,,,,p,1,1.115714999,space,0.367155001,0,98,98,18,1,0_dist_green/trial19.png,,,1,0,greenverival,p,53,20,F,2021-02-22_14h37.35.130,exp11,2020.2.6,Win32,60,IwAR2p1jO_G1NvGpsqal5bKEKGB4vbw4uwO9Bz-P0aFZNlkSdCKj8RvcwL9UQ,,,,,,,,,,,
,,,,,,,,,,,,,,a,1,0.83258,space,0.321434999,0,99,99,131,1,0_targ_4_dist_green/trial7.png,,,0,4,greenverival,a,53,20,F,2021-02-22_14h37.35.130,exp11,2020.2.6,Win32,60,IwAR2p1jO_G1NvGpsqal5bKEKGB4vbw4uwO9Bz-P0aFZNlkSdCKj8RvcwL9UQ,,,,,,,,,,,
,,,,,,,,,,,,,,p,1,1.831700001,space,0.402110001,0,100,100,65,1,9_dist_green/trial16.png,,,1,9,greenverival,p,53,20,F,2021-02-22_14h37.35.130,exp11,2020.2.6,Win32,60,IwAR2p1jO_G1NvGpsqal5bKEKGB4vbw4uwO9Bz-P0aFZNlkSdCKj8RvcwL9UQ,,,,,,,,,,,
,,,,,,,,,,,,,,a,1,0.897790002,space,0.30926,0,101,101,164,1,0_targ_10_dist_green/trial15.png,,,0,10,greenverival,a,53,20,F,2021-02-22_14h37.35.130,exp11,2020.2.6,Win32,60,IwAR2p1jO_G1NvGpsqal5bKEKGB4vbw4uwO9Bz-P0aFZNlkSdCKj8RvcwL9UQ,,,,,,,,,,,
,,,,,,,,,,,,,,a,1,0.603004999,space,0.444815001,0,102,102,106,1,0_targ_1_dist_green/trial7.png,,,0,1,greenverival,a,53,20,F,2021-02-22_14h37.35.130,exp11,2020.2.6,Win32,60,IwAR2p1jO_G1NvGpsqal5bKEKGB4vbw4uwO9Bz-P0aFZNlkSdCKj8RvcwL9UQ,,,,,,,,,,,
,,,,,,,,,,,,,,p,1,1.28624,space,0.444484999,0,103,103,72,1,9_dist_green/trial23.png,,,1,9,greenverival,p,53,20,F,2021-02-22_14h37.35.130,exp11,2020.2.6,Win32,60,IwAR2p1jO_G1NvGpsqal5bKEKGB4vbw4uwO9Bz-P0aFZNlkSdCKj8RvcwL9UQ,,,,,,,,,,,
,,,,,,,,,,,,,,p,1,1.12916,space,0.43959,0,104,104,12,1,0_dist_green/trial13.png,,,1,0,greenverival,p,53,20,F,2021-02-22_14h37.35.130,exp11,2020.2.6,Win32,60,IwAR2p1jO_G1NvGpsqal5bKEKGB4vbw4uwO9Bz-P0aFZNlkSdCKj8RvcwL9UQ,,,,,,,,,,,
,,,,,,,,,,,,,,a,1,1.215214999,space,0.288690001,0,105,105,121,1,0_targ_1_dist_green/trial22.png,,,0,1,greenverival,a,53,20,F,2021-02-22_14h37.35.130,exp11,2020.2.6,Win32,60,IwAR2p1jO_G1NvGpsqal5bKEKGB4vbw4uwO9Bz-P0aFZNlkSdCKj8RvcwL9UQ,,,,,,,,,,,
,,,,,,,,,,,,,,p,1,1.128775001,space,0.404434999,0,106,106,3,1,0_dist_green/trial4.png,,,1,0,greenverival,p,53,20,F,2021-02-22_14h37.35.130,exp11,2020.2.6,Win32,60,IwAR2p1jO_G1NvGpsqal5bKEKGB4vbw4uwO9Bz-P0aFZNlkSdCKj8RvcwL9UQ,,,,,,,,,,,
,,,,,,,,,,,,,,a,1,1.012950001,space,0.336634999,0,107,107,145,1,0_targ_4_dist_green/trial21.png,,,0,4,greenverival,a,53,20,F,2021-02-22_14h37.35.130,exp11,2020.2.6,Win32,60,IwAR2p1jO_G1NvGpsqal5bKEKGB4vbw4uwO9Bz-P0aFZNlkSdCKj8RvcwL9UQ,,,,,,,,,,,
,,,,,,,,,,,,,,p,1,1.250055,space,0.385925001,0,108,108,64,1,9_dist_green/trial15.png,,,1,9,greenverival,p,53,20,F,2021-02-22_14h37.35.130,exp11,2020.2.6,Win32,60,IwAR2p1jO_G1NvGpsqal5bKEKGB4vbw4uwO9Bz-P0aFZNlkSdCKj8RvcwL9UQ,,,,,,,,,,,
,,,,,,,,,,,,,,a,1,1.214025,space,0.3881,0,109,109,182,1,0_targ_16_dist_green/trial8.png,,,0,16,greenverival,a,53,20,F,2021-02-22_14h37.35.130,exp11,2020.2.6,Win32,60,IwAR2p1jO_G1NvGpsqal5bKEKGB4vbw4uwO9Bz-P0aFZNlkSdCKj8RvcwL9UQ,,,,,,,,,,,
,,,,,,,,,,,,,,a,1,0.893294999,space,0.345079999,0,110,110,149,1,0_targ_4_dist_green/trial25.png,,,0,4,greenverival,a,53,20,F,2021-02-22_14h37.35.130,exp11,2020.2.6,Win32,60,IwAR2p1jO_G1NvGpsqal5bKEKGB4vbw4uwO9Bz-P0aFZNlkSdCKj8RvcwL9UQ,,,,,,,,,,,
,,,,,,,,,,,,,,a,1,0.985830002,space,0.373975001,0,111,111,154,1,0_targ_10_dist_green/trial5.png,,,0,10,greenverival,a,53,20,F,2021-02-22_14h37.35.130,exp11,2020.2.6,Win32,60,IwAR2p1jO_G1NvGpsqal5bKEKGB4vbw4uwO9Bz-P0aFZNlkSdCKj8RvcwL9UQ,,,,,,,,,,,
,,,,,,,,,,,,,,a,1,0.764795,space,0.35053,0,112,112,130,1,0_targ_4_dist_green/trial6.png,,,0,4,greenverival,a,53,20,F,2021-02-22_14h37.35.130,exp11,2020.2.6,Win32,60,IwAR2p1jO_G1NvGpsqal5bKEKGB4vbw4uwO9Bz-P0aFZNlkSdCKj8RvcwL9UQ,,,,,,,,,,,
,,,,,,,,,,,,,,a,1,0.662284998,space,0.413585,0,113,113,127,1,0_targ_4_dist_green/trial3.png,,,0,4,greenverival,a,53,20,F,2021-02-22_14h37.35.130,exp11,2020.2.6,Win32,60,IwAR2p1jO_G1NvGpsqal5bKEKGB4vbw4uwO9Bz-P0aFZNlkSdCKj8RvcwL9UQ,,,,,,,,,,,
,,,,,,,,,,,,,,p,1,0.970595,space,0.468545001,0,114,114,41,1,3_dist_green/trial17.png,,,1,3,greenverival,p,53,20,F,2021-02-22_14h37.35.130,exp11,2020.2.6,Win32,60,IwAR2p1jO_G1NvGpsqal5bKEKGB4vbw4uwO9Bz-P0aFZNlkSdCKj8RvcwL9UQ,,,,,,,,,,,
,,,,,,,,,,,,,,a,1,1.145515,space,0.274939999,0,115,115,193,1,0_targ_16_dist_green/trial19.png,,,0,16,greenverival,a,53,20,F,2021-02-22_14h37.35.130,exp11,2020.2.6,Win32,60,IwAR2p1jO_G1NvGpsqal5bKEKGB4vbw4uwO9Bz-P0aFZNlkSdCKj8RvcwL9UQ,,,,,,,,,,,
,,,,,,,,,,,,,,a,1,0.714695001,space,0.419524999,0,116,116,132,1,0_targ_4_dist_green/trial8.png,,,0,4,greenverival,a,53,20,F,2021-02-22_14h37.35.130,exp11,2020.2.6,Win32,60,IwAR2p1jO_G1NvGpsqal5bKEKGB4vbw4uwO9Bz-P0aFZNlkSdCKj8RvcwL9UQ,,,,,,,,,,,
,,,,,,,,,,,,,,p,1,1.080094999,space,0.438720001,0,117,117,38,1,3_dist_green/trial14.png,,,1,3,greenverival,p,53,20,F,2021-02-22_14h37.35.130,exp11,2020.2.6,Win32,60,IwAR2p1jO_G1NvGpsqal5bKEKGB4vbw4uwO9Bz-P0aFZNlkSdCKj8RvcwL9UQ,,,,,,,,,,,
,,,,,,,,,,,,,,p,1,1.328985,space,0.356515,0,118,118,8,1,0_dist_green/trial9.png,,,1,0,greenverival,p,53,20,F,2021-02-22_14h37.35.130,exp11,2020.2.6,Win32,60,IwAR2p1jO_G1NvGpsqal5bKEKGB4vbw4uwO9Bz-P0aFZNlkSdCKj8RvcwL9UQ,,,,,,,,,,,
,,,,,,,,,,,,,,a,1,1.447674999,space,0.71672,0,119,119,144,1,0_targ_4_dist_green/trial20.png,,,0,4,greenverival,a,53,20,F,2021-02-22_14h37.35.130,exp11,2020.2.6,Win32,60,IwAR2p1jO_G1NvGpsqal5bKEKGB4vbw4uwO9Bz-P0aFZNlkSdCKj8RvcwL9UQ,,,,,,,,,,,
,,,,,,,,,,,,,,a,1,0.576089999,space,0.374050001,0,120,120,107,1,0_targ_1_dist_green/trial8.png,,,0,1,greenverival,a,53,20,F,2021-02-22_14h37.35.130,exp11,2020.2.6,Win32,60,IwAR2p1jO_G1NvGpsqal5bKEKGB4vbw4uwO9Bz-P0aFZNlkSdCKj8RvcwL9UQ,,,,,,,,,,,
,,,,,,,,,,,,,,p,1,0.81223,space,0.400274999,0,121,121,14,1,0_dist_green/trial15.png,,,1,0,greenverival,p,53,20,F,2021-02-22_14h37.35.130,exp11,2020.2.6,Win32,60,IwAR2p1jO_G1NvGpsqal5bKEKGB4vbw4uwO9Bz-P0aFZNlkSdCKj8RvcwL9UQ,,,,,,,,,,,
,,,,,,,,,,,,,,p,1,1.547039999,space,0.640775001,0,122,122,42,1,3_dist_green/trial18.png,,,1,3,greenverival,p,53,20,F,2021-02-22_14h37.35.130,exp11,2020.2.6,Win32,60,IwAR2p1jO_G1NvGpsqal5bKEKGB4vbw4uwO9Bz-P0aFZNlkSdCKj8RvcwL9UQ,,,,,,,,,,,
,,,,,,,,,,,,,,p,1,0.777224999,space,1.07944,0,123,123,9,1,0_dist_green/trial10.png,,,1,0,greenverival,p,53,20,F,2021-02-22_14h37.35.130,exp11,2020.2.6,Win32,60,IwAR2p1jO_G1NvGpsqal5bKEKGB4vbw4uwO9Bz-P0aFZNlkSdCKj8RvcwL9UQ,,,,,,,,,,,
,,,,,,,,,,,,,,a,1,1.07893,space,0.284050001,0,124,124,119,1,0_targ_1_dist_green/trial20.png,,,0,1,greenverival,a,53,20,F,2021-02-22_14h37.35.130,exp11,2020.2.6,Win32,60,IwAR2p1jO_G1NvGpsqal5bKEKGB4vbw4uwO9Bz-P0aFZNlkSdCKj8RvcwL9UQ,,,,,,,,,,,
,,,,,,,,,,,,,,p,1,1.139220001,space,0.417765001,0,125,125,52,1,9_dist_green/trial3.png,,,1,9,greenverival,p,53,20,F,2021-02-22_14h37.35.130,exp11,2020.2.6,Win32,60,IwAR2p1jO_G1NvGpsqal5bKEKGB4vbw4uwO9Bz-P0aFZNlkSdCKj8RvcwL9UQ,,,,,,,,,,,
,,,,,,,,,,,,,,a,1,1.614845,space,0.293734999,0,126,126,104,1,0_targ_1_dist_green/trial5.png,,,0,1,greenverival,a,53,20,F,2021-02-22_14h37.35.130,exp11,2020.2.6,Win32,60,IwAR2p1jO_G1NvGpsqal5bKEKGB4vbw4uwO9Bz-P0aFZNlkSdCKj8RvcwL9UQ,,,,,,,,,,,
,,,,,,,,,,,,,,p,1,1.64553,space,0.416844999,0,127,127,81,1,15_dist_green/trial7.png,,,1,15,greenverival,p,53,20,F,2021-02-22_14h37.35.130,exp11,2020.2.6,Win32,60,IwAR2p1jO_G1NvGpsqal5bKEKGB4vbw4uwO9Bz-P0aFZNlkSdCKj8RvcwL9UQ,,,,,,,,,,,
,,,,,,,,,,,,,,p,1,1.20537,space,0.403115001,0,128,128,94,1,15_dist_green/trial20.png,,,1,15,greenverival,p,53,20,F,2021-02-22_14h37.35.130,exp11,2020.2.6,Win32,60,IwAR2p1jO_G1NvGpsqal5bKEKGB4vbw4uwO9Bz-P0aFZNlkSdCKj8RvcwL9UQ,,,,,,,,,,,
,,,,,,,,,,,,,,p,1,0.901615001,space,0.46136,0,129,129,16,1,0_dist_green/trial17.png,,,1,0,greenverival,p,53,20,F,2021-02-22_14h37.35.130,exp11,2020.2.6,Win32,60,IwAR2p1jO_G1NvGpsqal5bKEKGB4vbw4uwO9Bz-P0aFZNlkSdCKj8RvcwL9UQ,,,,,,,,,,,
,,,,,,,,,,,,,,a,1,1.017725,space,0.376885001,0,130,130,150,1,0_targ_10_dist_green/trial1.png,,,0,10,greenverival,a,53,20,F,2021-02-22_14h37.35.130,exp11,2020.2.6,Win32,60,IwAR2p1jO_G1NvGpsqal5bKEKGB4vbw4uwO9Bz-P0aFZNlkSdCKj8RvcwL9UQ,,,,,,,,,,,
,,,,,,,,,,,,,,a,1,1.000220001,space,0.36001,0,131,131,112,1,0_targ_1_dist_green/trial13.png,,,0,1,greenverival,a,53,20,F,2021-02-22_14h37.35.130,exp11,2020.2.6,Win32,60,IwAR2p1jO_G1NvGpsqal5bKEKGB4vbw4uwO9Bz-P0aFZNlkSdCKj8RvcwL9UQ,,,,,,,,,,,
,,,,,,,,,,,,,,a,1,1.645540001,space,0.243755,0,132,132,167,1,0_targ_10_dist_green/trial18.png,,,0,10,greenverival,a,53,20,F,2021-02-22_14h37.35.130,exp11,2020.2.6,Win32,60,IwAR2p1jO_G1NvGpsqal5bKEKGB4vbw4uwO9Bz-P0aFZNlkSdCKj8RvcwL9UQ,,,,,,,,,,,
,,,,,,,,,,,,,,a,1,0.93596,space,0.333970001,0,133,133,141,1,0_targ_4_dist_green/trial17.png,,,0,4,greenverival,a,53,20,F,2021-02-22_14h37.35.130,exp11,2020.2.6,Win32,60,IwAR2p1jO_G1NvGpsqal5bKEKGB4vbw4uwO9Bz-P0aFZNlkSdCKj8RvcwL9UQ,,,,,,,,,,,
,,,,,,,,,,,,,,a,1,0.81239,space,0.256335,0,134,134,186,1,0_targ_16_dist_green/trial12.png,,,0,16,greenverival,a,53,20,F,2021-02-22_14h37.35.130,exp11,2020.2.6,Win32,60,IwAR2p1jO_G1NvGpsqal5bKEKGB4vbw4uwO9Bz-P0aFZNlkSdCKj8RvcwL9UQ,,,,,,,,,,,
,,,,,,,,,,,,,,a,1,0.762,space,0.23367,0,135,135,115,1,0_targ_1_dist_green/trial6.png,,,0,1,greenverival,a,53,20,F,2021-02-22_14h37.35.130,exp11,2020.2.6,Win32,60,IwAR2p1jO_G1NvGpsqal5bKEKGB4vbw4uwO9Bz-P0aFZNlkSdCKj8RvcwL9UQ,,,,,,,,,,,
,,,,,,,,,,,,,,p,1,1.381834999,space,0.404275,0,136,136,56,1,9_dist_green/trial7.png,,,1,9,greenverival,p,53,20,F,2021-02-22_14h37.35.130,exp11,2020.2.6,Win32,60,IwAR2p1jO_G1NvGpsqal5bKEKGB4vbw4uwO9Bz-P0aFZNlkSdCKj8RvcwL9UQ,,,,,,,,,,,
,,,,,,,,,,,,,,p,1,1.348059999,space,0.360825,0,137,137,93,1,15_dist_green/trial19.png,,,1,15,greenverival,p,53,20,F,2021-02-22_14h37.35.130,exp11,2020.2.6,Win32,60,IwAR2p1jO_G1NvGpsqal5bKEKGB4vbw4uwO9Bz-P0aFZNlkSdCKj8RvcwL9UQ,,,,,,,,,,,
,,,,,,,,,,,,,,a,1,1.032159999,space,0.271314999,0,138,138,117,1,0_targ_1_dist_green/trial18.png,,,0,1,greenverival,a,53,20,F,2021-02-22_14h37.35.130,exp11,2020.2.6,Win32,60,IwAR2p1jO_G1NvGpsqal5bKEKGB4vbw4uwO9Bz-P0aFZNlkSdCKj8RvcwL9UQ,,,,,,,,,,,
,,,,,,,,,,,,,,p,1,1.106535001,space,0.394270001,0,139,139,54,1,9_dist_green/trial5.png,,,1,9,greenverival,p,53,20,F,2021-02-22_14h37.35.130,exp11,2020.2.6,Win32,60,IwAR2p1jO_G1NvGpsqal5bKEKGB4vbw4uwO9Bz-P0aFZNlkSdCKj8RvcwL9UQ,,,,,,,,,,,
,,,,,,,,,,,,,,a,1,1.151965,space,0.320730001,0,140,140,194,1,0_targ_16_dist_green/trial20.png,,,0,16,greenverival,a,53,20,F,2021-02-22_14h37.35.130,exp11,2020.2.6,Win32,60,IwAR2p1jO_G1NvGpsqal5bKEKGB4vbw4uwO9Bz-P0aFZNlkSdCKj8RvcwL9UQ,,,,,,,,,,,
,,,,,,,,,,,,,,a,1,0.814230001,space,0.307455001,0,141,141,143,1,0_targ_4_dist_green/trial19.png,,,0,4,greenverival,a,53,20,F,2021-02-22_14h37.35.130,exp11,2020.2.6,Win32,60,IwAR2p1jO_G1NvGpsqal5bKEKGB4vbw4uwO9Bz-P0aFZNlkSdCKj8RvcwL9UQ,,,,,,,,,,,
,,,,,,,,,,,,,,p,1,1.098605001,space,0.39539,0,142,142,34,1,3_dist_green/trial10.png,,,1,3,greenverival,p,53,20,F,2021-02-22_14h37.35.130,exp11,2020.2.6,Win32,60,IwAR2p1jO_G1NvGpsqal5bKEKGB4vbw4uwO9Bz-P0aFZNlkSdCKj8RvcwL9UQ,,,,,,,,,,,
,,,,,,,,,,,,,,p,0,1.014355,space,0.10172,0,143,143,103,1,0_targ_1_dist_green/trial4.png,,,0,1,greenverival,a,53,20,F,2021-02-22_14h37.35.130,exp11,2020.2.6,Win32,60,IwAR2p1jO_G1NvGpsqal5bKEKGB4vbw4uwO9Bz-P0aFZNlkSdCKj8RvcwL9UQ,,,,,,,,,,,
,,,,,,,,,,,,,,p,1,1.429030001,space,0.405860001,0,144,144,50,1,9_dist_green/trial1.png,,,1,9,greenverival,p,53,20,F,2021-02-22_14h37.35.130,exp11,2020.2.6,Win32,60,IwAR2p1jO_G1NvGpsqal5bKEKGB4vbw4uwO9Bz-P0aFZNlkSdCKj8RvcwL9UQ,,,,,,,,,,,
,,,,,,,,,,,,,,a,1,1.478630001,space,0.304695001,0,145,145,111,1,0_targ_1_dist_green/trial12.png,,,0,1,greenverival,a,53,20,F,2021-02-22_14h37.35.130,exp11,2020.2.6,Win32,60,IwAR2p1jO_G1NvGpsqal5bKEKGB4vbw4uwO9Bz-P0aFZNlkSdCKj8RvcwL9UQ,,,,,,,,,,,
,,,,,,,,,,,,,,p,1,0.930790002,space,0.41766,0,146,146,2,1,0_dist_green/trial3.png,,,1,0,greenverival,p,53,20,F,2021-02-22_14h37.35.130,exp11,2020.2.6,Win32,60,IwAR2p1jO_G1NvGpsqal5bKEKGB4vbw4uwO9Bz-P0aFZNlkSdCKj8RvcwL9UQ,,,,,,,,,,,
,,,,,,,,,,,,,,p,1,1.022430001,space,0.42221,0,147,147,47,1,3_dist_green/trial23.png,,,1,3,greenverival,p,53,20,F,2021-02-22_14h37.35.130,exp11,2020.2.6,Win32,60,IwAR2p1jO_G1NvGpsqal5bKEKGB4vbw4uwO9Bz-P0aFZNlkSdCKj8RvcwL9UQ,,,,,,,,,,,
,,,,,,,,,,,,,,a,0,1.228655001,space,0.379700001,0,148,148,58,1,9_dist_green/trial9.png,,,1,9,greenverival,p,53,20,F,2021-02-22_14h37.35.130,exp11,2020.2.6,Win32,60,IwAR2p1jO_G1NvGpsqal5bKEKGB4vbw4uwO9Bz-P0aFZNlkSdCKj8RvcwL9UQ,,,,,,,,,,,
,,,,,,,,,,,,,,a,1,3.694165001,space,0.508435,0,149,149,190,1,0_targ_16_dist_green/trial16.png,,,0,16,greenverival,a,53,20,F,2021-02-22_14h37.35.130,exp11,2020.2.6,Win32,60,IwAR2p1jO_G1NvGpsqal5bKEKGB4vbw4uwO9Bz-P0aFZNlkSdCKj8RvcwL9UQ,,,,,,,,,,,
,,,,,,,,,,,,,,p,1,1.028469998,space,0.36778,0,150,150,29,1,3_dist_green/trial5.png,,,1,3,greenverival,p,53,20,F,2021-02-22_14h37.35.130,exp11,2020.2.6,Win32,60,IwAR2p1jO_G1NvGpsqal5bKEKGB4vbw4uwO9Bz-P0aFZNlkSdCKj8RvcwL9UQ,,,,,,,,,,,
,,,,,,,,,,,,,,a,0,0.962230001,space,0.157499999,0,151,151,23,1,0_dist_green/trial24.png,,,1,0,greenverival,p,53,20,F,2021-02-22_14h37.35.130,exp11,2020.2.6,Win32,60,IwAR2p1jO_G1NvGpsqal5bKEKGB4vbw4uwO9Bz-P0aFZNlkSdCKj8RvcwL9UQ,,,,,,,,,,,
,,,,,,,,,,,,,,p,1,15.86508,space,2.04954,0,152,152,59,1,9_dist_green/trial10.png,,,1,9,greenverival,p,53,20,F,2021-02-22_14h37.35.130,exp11,2020.2.6,Win32,60,IwAR2p1jO_G1NvGpsqal5bKEKGB4vbw4uwO9Bz-P0aFZNlkSdCKj8RvcwL9UQ,,,,,,,,,,,
,,,,,,,,,,,,,,p,1,1.185744999,space,0.51694,0,153,153,44,1,3_dist_green/trial20.png,,,1,3,greenverival,p,53,20,F,2021-02-22_14h37.35.130,exp11,2020.2.6,Win32,60,IwAR2p1jO_G1NvGpsqal5bKEKGB4vbw4uwO9Bz-P0aFZNlkSdCKj8RvcwL9UQ,,,,,,,,,,,
,,,,,,,,,,,,,,a,1,2.804679999,space,0.43351,0,154,154,118,1,0_targ_1_dist_green/trial19.png,,,0,1,greenverival,a,53,20,F,2021-02-22_14h37.35.130,exp11,2020.2.6,Win32,60,IwAR2p1jO_G1NvGpsqal5bKEKGB4vbw4uwO9Bz-P0aFZNlkSdCKj8RvcwL9UQ,,,,,,,,,,,
,,,,,,,,,,,,,,a,1,1.51032,space,0.485409999,0,155,155,151,1,0_targ_10_dist_green/trial2.png,,,0,10,greenverival,a,53,20,F,2021-02-22_14h37.35.130,exp11,2020.2.6,Win32,60,IwAR2p1jO_G1NvGpsqal5bKEKGB4vbw4uwO9Bz-P0aFZNlkSdCKj8RvcwL9UQ,,,,,,,,,,,
,,,,,,,,,,,,,,p,1,0.946754999,space,0.383695001,0,156,156,62,1,9_dist_green/trial13.png,,,1,9,greenverival,p,53,20,F,2021-02-22_14h37.35.130,exp11,2020.2.6,Win32,60,IwAR2p1jO_G1NvGpsqal5bKEKGB4vbw4uwO9Bz-P0aFZNlkSdCKj8RvcwL9UQ,,,,,,,,,,,
,,,,,,,,,,,,,,p,1,3.233130001,space,0.483689999,0,157,157,90,1,15_dist_green/trial16.png,,,1,15,greenverival,p,53,20,F,2021-02-22_14h37.35.130,exp11,2020.2.6,Win32,60,IwAR2p1jO_G1NvGpsqal5bKEKGB4vbw4uwO9Bz-P0aFZNlkSdCKj8RvcwL9UQ,,,,,,,,,,,
,,,,,,,,,,,,,,p,1,1.233000001,space,0.473685,0,158,158,51,1,9_dist_green/trial2.png,,,1,9,greenverival,p,53,20,F,2021-02-22_14h37.35.130,exp11,2020.2.6,Win32,60,IwAR2p1jO_G1NvGpsqal5bKEKGB4vbw4uwO9Bz-P0aFZNlkSdCKj8RvcwL9UQ,,,,,,,,,,,
,,,,,,,,,,,,,,a,1,1.695895001,space,0.44091,0,159,159,135,1,0_targ_4_dist_green/trial11.png,,,0,4,greenverival,a,53,20,F,2021-02-22_14h37.35.130,exp11,2020.2.6,Win32,60,IwAR2p1jO_G1NvGpsqal5bKEKGB4vbw4uwO9Bz-P0aFZNlkSdCKj8RvcwL9UQ,,,,,,,,,,,
,,,,,,,,,,,,,,p,1,0.988779999,space,0.566595001,0,160,160,17,1,0_dist_green/trial18.png,,,1,0,greenverival,p,53,20,F,2021-02-22_14h37.35.130,exp11,2020.2.6,Win32,60,IwAR2p1jO_G1NvGpsqal5bKEKGB4vbw4uwO9Bz-P0aFZNlkSdCKj8RvcwL9UQ,,,,,,,,,,,
,,,,,,,,,,,,,,p,1,1.695714999,space,0.379385,0,161,161,48,1,3_dist_green/trial24.png,,,1,3,greenverival,p,53,20,F,2021-02-22_14h37.35.130,exp11,2020.2.6,Win32,60,IwAR2p1jO_G1NvGpsqal5bKEKGB4vbw4uwO9Bz-P0aFZNlkSdCKj8RvcwL9UQ,,,,,,,,,,,
,,,,,,,,,,,,,,a,1,1.145475,space,0.416955,0,162,162,160,1,0_targ_10_dist_green/trial11.png,,,0,10,greenverival,a,53,20,F,2021-02-22_14h37.35.130,exp11,2020.2.6,Win32,60,IwAR2p1jO_G1NvGpsqal5bKEKGB4vbw4uwO9Bz-P0aFZNlkSdCKj8RvcwL9UQ,,,,,,,,,,,
,,,,,,,,,,,,,,a,1,0.808260001,space,0.406535,0,163,163,178,1,0_targ_16_dist_green/trial4.png,,,0,16,greenverival,a,53,20,F,2021-02-22_14h37.35.130,exp11,2020.2.6,Win32,60,IwAR2p1jO_G1NvGpsqal5bKEKGB4vbw4uwO9Bz-P0aFZNlkSdCKj8RvcwL9UQ,,,,,,,,,,,
,,,,,,,,,,,,,,p,1,1.015135,space,0.34075,0,164,164,25,1,3_dist_green/trial1.png,,,1,3,greenverival,p,53,20,F,2021-02-22_14h37.35.130,exp11,2020.2.6,Win32,60,IwAR2p1jO_G1NvGpsqal5bKEKGB4vbw4uwO9Bz-P0aFZNlkSdCKj8RvcwL9UQ,,,,,,,,,,,
,,,,,,,,,,,,,,a,1,2.38871,space,0.277925,0,165,165,188,1,0_targ_16_dist_green/trial14.png,,,0,16,greenverival,a,53,20,F,2021-02-22_14h37.35.130,exp11,2020.2.6,Win32,60,IwAR2p1jO_G1NvGpsqal5bKEKGB4vbw4uwO9Bz-P0aFZNlkSdCKj8RvcwL9UQ,,,,,,,,,,,
,,,,,,,,,,,,,,a,1,0.65429,space,0.200549999,0,166,166,102,1,0_targ_1_dist_green/trial3.png,,,0,1,greenverival,a,53,20,F,2021-02-22_14h37.35.130,exp11,2020.2.6,Win32,60,IwAR2p1jO_G1NvGpsqal5bKEKGB4vbw4uwO9Bz-P0aFZNlkSdCKj8RvcwL9UQ,,,,,,,,,,,
,,,,,,,,,,,,,,a,1,0.68987,space,0.189985,0,167,167,161,1,0_targ_10_dist_green/trial12.png,,,0,10,greenverival,a,53,20,F,2021-02-22_14h37.35.130,exp11,2020.2.6,Win32,60,IwAR2p1jO_G1NvGpsqal5bKEKGB4vbw4uwO9Bz-P0aFZNlkSdCKj8RvcwL9UQ,,,,,,,,,,,
,,,,,,,,,,,,,,a,1,0.647344999,space,0.160089999,0,168,168,146,1,0_targ_4_dist_green/trial22.png,,,0,4,greenverival,a,53,20,F,2021-02-22_14h37.35.130,exp11,2020.2.6,Win32,60,IwAR2p1jO_G1NvGpsqal5bKEKGB4vbw4uwO9Bz-P0aFZNlkSdCKj8RvcwL9UQ,,,,,,,,,,,
,,,,,,,,,,,,,,a,1,0.554410001,space,0.200394999,0,169,169,128,1,0_targ_4_dist_green/trial4.png,,,0,4,greenverival,a,53,20,F,2021-02-22_14h37.35.130,exp11,2020.2.6,Win32,60,IwAR2p1jO_G1NvGpsqal5bKEKGB4vbw4uwO9Bz-P0aFZNlkSdCKj8RvcwL9UQ,,,,,,,,,,,
,,,,,,,,,,,,,,p,1,1.84684,space,0.31724,0,170,170,35,1,3_dist_green/trial11.png,,,1,3,greenverival,p,53,20,F,2021-02-22_14h37.35.130,exp11,2020.2.6,Win32,60,IwAR2p1jO_G1NvGpsqal5bKEKGB4vbw4uwO9Bz-P0aFZNlkSdCKj8RvcwL9UQ,,,,,,,,,,,
,,,,,,,,,,,,,,a,1,0.8674,space,0.26708,0,171,171,100,1,0_targ_1_dist_green/trial1.png,,,0,1,greenverival,a,53,20,F,2021-02-22_14h37.35.130,exp11,2020.2.6,Win32,60,IwAR2p1jO_G1NvGpsqal5bKEKGB4vbw4uwO9Bz-P0aFZNlkSdCKj8RvcwL9UQ,,,,,,,,,,,
,,,,,,,,,,,,,,p,0,1.053985,space,0.202594999,0,172,172,197,1,0_targ_16_dist_green/trial23.png,,,0,16,greenverival,a,53,20,F,2021-02-22_14h37.35.130,exp11,2020.2.6,Win32,60,IwAR2p1jO_G1NvGpsqal5bKEKGB4vbw4uwO9Bz-P0aFZNlkSdCKj8RvcwL9UQ,,,,,,,,,,,
,,,,,,,,,,,,,,a,1,1.449109999,space,18.76567,0,173,173,125,1,0_targ_4_dist_green/trial1.png,,,0,4,greenverival,a,53,20,F,2021-02-22_14h37.35.130,exp11,2020.2.6,Win32,60,IwAR2p1jO_G1NvGpsqal5bKEKGB4vbw4uwO9Bz-P0aFZNlkSdCKj8RvcwL9UQ,,,,,,,,,,,
,,,,,,,,,,,,,,a,1,1.378495,space,0.300434999,0,174,174,122,1,0_targ_1_dist_green/trial23.png,,,0,1,greenverival,a,53,20,F,2021-02-22_14h37.35.130,exp11,2020.2.6,Win32,60,IwAR2p1jO_G1NvGpsqal5bKEKGB4vbw4uwO9Bz-P0aFZNlkSdCKj8RvcwL9UQ,,,,,,,,,,,
,,,,,,,,,,,,,,a,1,0.753009999,space,0.310375001,0,175,175,113,1,0_targ_1_dist_green/trial14.png,,,0,1,greenverival,a,53,20,F,2021-02-22_14h37.35.130,exp11,2020.2.6,Win32,60,IwAR2p1jO_G1NvGpsqal5bKEKGB4vbw4uwO9Bz-P0aFZNlkSdCKj8RvcwL9UQ,,,,,,,,,,,
,,,,,,,,,,,,,,a,1,1.404345,space,0.269774999,0,176,176,159,1,0_targ_10_dist_green/trial10.png,,,0,10,greenverival,a,53,20,F,2021-02-22_14h37.35.130,exp11,2020.2.6,Win32,60,IwAR2p1jO_G1NvGpsqal5bKEKGB4vbw4uwO9Bz-P0aFZNlkSdCKj8RvcwL9UQ,,,,,,,,,,,
,,,,,,,,,,,,,,p,1,1.569385001,space,0.275840001,0,177,177,99,1,15_dist_green/trial25.png,,,1,15,greenverival,p,53,20,F,2021-02-22_14h37.35.130,exp11,2020.2.6,Win32,60,IwAR2p1jO_G1NvGpsqal5bKEKGB4vbw4uwO9Bz-P0aFZNlkSdCKj8RvcwL9UQ,,,,,,,,,,,
,,,,,,,,,,,,,,p,0,0.945565,space,0.05027,0,178,178,116,1,0_targ_1_dist_green/trial17.png,,,0,1,greenverival,a,53,20,F,2021-02-22_14h37.35.130,exp11,2020.2.6,Win32,60,IwAR2p1jO_G1NvGpsqal5bKEKGB4vbw4uwO9Bz-P0aFZNlkSdCKj8RvcwL9UQ,,,,,,,,,,,
,,,,,,,,,,,,,,p,1,1.54514,space,0.338850001,0,179,179,57,1,9_dist_green/trial8.png,,,1,9,greenverival,p,53,20,F,2021-02-22_14h37.35.130,exp11,2020.2.6,Win32,60,IwAR2p1jO_G1NvGpsqal5bKEKGB4vbw4uwO9Bz-P0aFZNlkSdCKj8RvcwL9UQ,,,,,,,,,,,
,,,,,,,,,,,,,,a,1,1.262135001,space,0.38548,0,180,180,196,1,0_targ_16_dist_green/trial22.png,,,0,16,greenverival,a,53,20,F,2021-02-22_14h37.35.130,exp11,2020.2.6,Win32,60,IwAR2p1jO_G1NvGpsqal5bKEKGB4vbw4uwO9Bz-P0aFZNlkSdCKj8RvcwL9UQ,,,,,,,,,,,
,,,,,,,,,,,,,,p,1,1.083519999,space,0.34331,0,181,181,13,1,0_dist_green/trial14.png,,,1,0,greenverival,p,53,20,F,2021-02-22_14h37.35.130,exp11,2020.2.6,Win32,60,IwAR2p1jO_G1NvGpsqal5bKEKGB4vbw4uwO9Bz-P0aFZNlkSdCKj8RvcwL9UQ,,,,,,,,,,,
,,,,,,,,,,,,,,p,1,1.131445,space,0.37046,0,182,182,36,1,3_dist_green/trial12.png,,,1,3,greenverival,p,53,20,F,2021-02-22_14h37.35.130,exp11,2020.2.6,Win32,60,IwAR2p1jO_G1NvGpsqal5bKEKGB4vbw4uwO9Bz-P0aFZNlkSdCKj8RvcwL9UQ,,,,,,,,,,,
,,,,,,,,,,,,,,a,1,1.24539,space,0.361225,0,183,183,114,1,0_targ_1_dist_green/trial15.png,,,0,1,greenverival,a,53,20,F,2021-02-22_14h37.35.130,exp11,2020.2.6,Win32,60,IwAR2p1jO_G1NvGpsqal5bKEKGB4vbw4uwO9Bz-P0aFZNlkSdCKj8RvcwL9UQ,,,,,,,,,,,
,,,,,,,,,,,,,,p,1,1.118054999,space,0.334315,0,184,184,88,1,15_dist_green/trial14.png,,,1,15,greenverival,p,53,20,F,2021-02-22_14h37.35.130,exp11,2020.2.6,Win32,60,IwAR2p1jO_G1NvGpsqal5bKEKGB4vbw4uwO9Bz-P0aFZNlkSdCKj8RvcwL9UQ,,,,,,,,,,,
,,,,,,,,,,,,,,a,1,0.994795,space,0.35908,0,185,185,134,1,0_targ_4_dist_green/trial10.png,,,0,4,greenverival,a,53,20,F,2021-02-22_14h37.35.130,exp11,2020.2.6,Win32,60,IwAR2p1jO_G1NvGpsqal5bKEKGB4vbw4uwO9Bz-P0aFZNlkSdCKj8RvcwL9UQ,,,,,,,,,,,
,,,,,,,,,,,,,,p,1,1.07893,space,0.404555,0,186,186,37,1,3_dist_green/trial13.png,,,1,3,greenverival,p,53,20,F,2021-02-22_14h37.35.130,exp11,2020.2.6,Win32,60,IwAR2p1jO_G1NvGpsqal5bKEKGB4vbw4uwO9Bz-P0aFZNlkSdCKj8RvcwL9UQ,,,,,,,,,,,
,,,,,,,,,,,,,,p,1,0.99773,space,0.296639999,0,187,187,86,1,15_dist_green/trial12.png,,,1,15,greenverival,p,53,20,F,2021-02-22_14h37.35.130,exp11,2020.2.6,Win32,60,IwAR2p1jO_G1NvGpsqal5bKEKGB4vbw4uwO9Bz-P0aFZNlkSdCKj8RvcwL9UQ,,,,,,,,,,,
,,,,,,,,,,,,,,p,1,1.295524999,space,0.314139999,0,188,188,84,1,15_dist_green/trial10.png,,,1,15,greenverival,p,53,20,F,2021-02-22_14h37.35.130,exp11,2020.2.6,Win32,60,IwAR2p1jO_G1NvGpsqal5bKEKGB4vbw4uwO9Bz-P0aFZNlkSdCKj8RvcwL9UQ,,,,,,,,,,,
,,,,,,,,,,,,,,p,1,1.169525001,space,0.406645,0,189,189,69,1,9_dist_green/trial20.png,,,1,9,greenverival,p,53,20,F,2021-02-22_14h37.35.130,exp11,2020.2.6,Win32,60,IwAR2p1jO_G1NvGpsqal5bKEKGB4vbw4uwO9Bz-P0aFZNlkSdCKj8RvcwL9UQ,,,,,,,,,,,
,,,,,,,,,,,,,,p,1,1.111989999,space,0.357279999,0,190,190,89,1,15_dist_green/trial15.png,,,1,15,greenverival,p,53,20,F,2021-02-22_14h37.35.130,exp11,2020.2.6,Win32,60,IwAR2p1jO_G1NvGpsqal5bKEKGB4vbw4uwO9Bz-P0aFZNlkSdCKj8RvcwL9UQ,,,,,,,,,,,
,,,,,,,,,,,,,,a,1,1.328640001,space,0.207755001,0,191,191,120,1,0_targ_1_dist_green/trial21.png,,,0,1,greenverival,a,53,20,F,2021-02-22_14h37.35.130,exp11,2020.2.6,Win32,60,IwAR2p1jO_G1NvGpsqal5bKEKGB4vbw4uwO9Bz-P0aFZNlkSdCKj8RvcwL9UQ,,,,,,,,,,,
,,,,,,,,,,,,,,p,1,1.578569999,space,0.300720001,0,192,192,68,1,9_dist_green/trial19.png,,,1,9,greenverival,p,53,20,F,2021-02-22_14h37.35.130,exp11,2020.2.6,Win32,60,IwAR2p1jO_G1NvGpsqal5bKEKGB4vbw4uwO9Bz-P0aFZNlkSdCKj8RvcwL9UQ,,,,,,,,,,,
,,,,,,,,,,,,,,a,1,1.372605,space,0.22989,0,193,193,199,1,0_targ_16_dist_green/trial25.png,,,0,16,greenverival,a,53,20,F,2021-02-22_14h37.35.130,exp11,2020.2.6,Win32,60,IwAR2p1jO_G1NvGpsqal5bKEKGB4vbw4uwO9Bz-P0aFZNlkSdCKj8RvcwL9UQ,,,,,,,,,,,
,,,,,,,,,,,,,,a,1,0.982970001,space,0.341235001,0,194,194,192,1,0_targ_16_dist_green/trial18.png,,,0,16,greenverival,a,53,20,F,2021-02-22_14h37.35.130,exp11,2020.2.6,Win32,60,IwAR2p1jO_G1NvGpsqal5bKEKGB4vbw4uwO9Bz-P0aFZNlkSdCKj8RvcwL9UQ,,,,,,,,,,,
,,,,,,,,,,,,,,a,1,0.937555,space,0.359309999,0,195,195,179,1,0_targ_16_dist_green/trial5.png,,,0,16,greenverival,a,53,20,F,2021-02-22_14h37.35.130,exp11,2020.2.6,Win32,60,IwAR2p1jO_G1NvGpsqal5bKEKGB4vbw4uwO9Bz-P0aFZNlkSdCKj8RvcwL9UQ,,,,,,,,,,,
,,,,,,,,,,,,,,a,1,0.862114999,space,0.343824999,0,196,196,156,1,0_targ_10_dist_green/trial7.png,,,0,10,greenverival,a,53,20,F,2021-02-22_14h37.35.130,exp11,2020.2.6,Win32,60,IwAR2p1jO_G1NvGpsqal5bKEKGB4vbw4uwO9Bz-P0aFZNlkSdCKj8RvcwL9UQ,,,,,,,,,,,
,,,,,,,,,,,,,,p,1,1.187829999,space,0.300485,0,197,197,96,1,15_dist_green/trial22.png,,,1,15,greenverival,p,53,20,F,2021-02-22_14h37.35.130,exp11,2020.2.6,Win32,60,IwAR2p1jO_G1NvGpsqal5bKEKGB4vbw4uwO9Bz-P0aFZNlkSdCKj8RvcwL9UQ,,,,,,,,,,,
,,,,,,,,,,,,,,a,1,1.29503,space,0.320250001,0,198,198,108,1,0_targ_1_dist_green/trial9.png,,,0,1,greenverival,a,53,20,F,2021-02-22_14h37.35.130,exp11,2020.2.6,Win32,60,IwAR2p1jO_G1NvGpsqal5bKEKGB4vbw4uwO9Bz-P0aFZNlkSdCKj8RvcwL9UQ,,,,,,,,,,,
,,,,,,,,,,,,,,a,1,1.002905,space,0.30129,0,199,199,191,1,0_targ_16_dist_green/trial17.png,,,0,16,greenverival,a,53,20,F,2021-02-22_14h37.35.130,exp11,2020.2.6,Win32,60,IwAR2p1jO_G1NvGpsqal5bKEKGB4vbw4uwO9Bz-P0aFZNlkSdCKj8RvcwL9UQ,,,,,,,,,,,
,,,,,,,,,,,,,,,,,,,,,,,,,,,,,,,53,20,F,2021-02-22_14h37.35.130,exp11,2020.2.6,Win32,60,IwAR2p1jO_G1NvGpsqal5bKEKGB4vbw4uwO9Bz-P0aFZNlkSdCKj8RvcwL9UQ,0,0,0,0,1,conGreen.xlsx,green vertical,Look for green vertical bar (target) and indicate if it is present or absent in the array. If green vertical target is present press 'p' and if absent press 'a'. Press SPACE to start.,,,
,,,,,,,,,,space,56.83742,space,2.54428,a,1,1.67594,space,0.40415,0,0,0,120,1,0_targ_1_dist_red/trial21.png,,,0,1,redHorizontal,a,53,20,F,2021-02-22_14h37.35.130,exp11,2020.2.6,Win32,60,IwAR2p1jO_G1NvGpsqal5bKEKGB4vbw4uwO9Bz-P0aFZNlkSdCKj8RvcwL9UQ,,,,,,,,,,,
,,,,,,,,,,,,,,p,1,1.514929999,space,0.386835,0,1,1,99,1,15_dist_red/trial25.png,,,1,15,redHorizontal,p,53,20,F,2021-02-22_14h37.35.130,exp11,2020.2.6,Win32,60,IwAR2p1jO_G1NvGpsqal5bKEKGB4vbw4uwO9Bz-P0aFZNlkSdCKj8RvcwL9UQ,,,,,,,,,,,
,,,,,,,,,,,,,,a,1,1.330405001,space,0.395545,0,2,2,153,1,0_targ_10_dist_red/trial4.png,,,0,10,redHorizontal,a,53,20,F,2021-02-22_14h37.35.130,exp11,2020.2.6,Win32,60,IwAR2p1jO_G1NvGpsqal5bKEKGB4vbw4uwO9Bz-P0aFZNlkSdCKj8RvcwL9UQ,,,,,,,,,,,
,,,,,,,,,,,,,,a,1,1.09533,space,0.336270001,0,3,3,157,1,0_targ_10_dist_red/trial8.png,,,0,10,redHorizontal,a,53,20,F,2021-02-22_14h37.35.130,exp11,2020.2.6,Win32,60,IwAR2p1jO_G1NvGpsqal5bKEKGB4vbw4uwO9Bz-P0aFZNlkSdCKj8RvcwL9UQ,,,,,,,,,,,
,,,,,,,,,,,,,,p,1,1.42337,space,0.448249999,0,4,4,23,1,0_dist_red/trial24.png,,,1,0,redHorizontal,p,53,20,F,2021-02-22_14h37.35.130,exp11,2020.2.6,Win32,60,IwAR2p1jO_G1NvGpsqal5bKEKGB4vbw4uwO9Bz-P0aFZNlkSdCKj8RvcwL9UQ,,,,,,,,,,,
,,,,,,,,,,,,,,p,1,1.71724,space,0.322950002,0,5,5,72,1,9_dist_red/trial23.png,,,1,9,redHorizontal,p,53,20,F,2021-02-22_14h37.35.130,exp11,2020.2.6,Win32,60,IwAR2p1jO_G1NvGpsqal5bKEKGB4vbw4uwO9Bz-P0aFZNlkSdCKj8RvcwL9UQ,,,,,,,,,,,
,,,,,,,,,,,,,,a,1,1.32226,space,0.364505,0,6,6,190,1,0_targ_16_dist_red/trial16.png,,,0,16,redHorizontal,a,53,20,F,2021-02-22_14h37.35.130,exp11,2020.2.6,Win32,60,IwAR2p1jO_G1NvGpsqal5bKEKGB4vbw4uwO9Bz-P0aFZNlkSdCKj8RvcwL9UQ,,,,,,,,,,,
,,,,,,,,,,,,,,p,1,1.144395001,space,0.31473,0,7,7,81,1,15_dist_red/trial7.png,,,1,15,redHorizontal,p,53,20,F,2021-02-22_14h37.35.130,exp11,2020.2.6,Win32,60,IwAR2p1jO_G1NvGpsqal5bKEKGB4vbw4uwO9Bz-P0aFZNlkSdCKj8RvcwL9UQ,,,,,,,,,,,
,,,,,,,,,,,,,,a,1,0.994655,space,0.336795,0,8,8,149,1,0_targ_4_dist_red/trial25.png,,,0,4,redHorizontal,a,53,20,F,2021-02-22_14h37.35.130,exp11,2020.2.6,Win32,60,IwAR2p1jO_G1NvGpsqal5bKEKGB4vbw4uwO9Bz-P0aFZNlkSdCKj8RvcwL9UQ,,,,,,,,,,,
,,,,,,,,,,,,,,a,1,0.900629999,space,0.22414,0,9,9,122,1,0_targ_1_dist_red/trial23.png,,,0,1,redHorizontal,a,53,20,F,2021-02-22_14h37.35.130,exp11,2020.2.6,Win32,60,IwAR2p1jO_G1NvGpsqal5bKEKGB4vbw4uwO9Bz-P0aFZNlkSdCKj8RvcwL9UQ,,,,,,,,,,,
,,,,,,,,,,,,,,a,1,0.904890001,space,0.247775001,0,10,10,103,1,0_targ_1_dist_red/trial4.png,,,0,1,redHorizontal,a,53,20,F,2021-02-22_14h37.35.130,exp11,2020.2.6,Win32,60,IwAR2p1jO_G1NvGpsqal5bKEKGB4vbw4uwO9Bz-P0aFZNlkSdCKj8RvcwL9UQ,,,,,,,,,,,
,,,,,,,,,,,,,,p,1,1.08955,space,0.286374999,0,11,11,66,1,9_dist_red/trial17.png,,,1,9,redHorizontal,p,53,20,F,2021-02-22_14h37.35.130,exp11,2020.2.6,Win32,60,IwAR2p1jO_G1NvGpsqal5bKEKGB4vbw4uwO9Bz-P0aFZNlkSdCKj8RvcwL9UQ,,,,,,,,,,,
,,,,,,,,,,,,,,p,1,0.948655,space,0.309210001,0,12,12,40,1,3_dist_red/trial16.png,,,1,3,redHorizontal,p,53,20,F,2021-02-22_14h37.35.130,exp11,2020.2.6,Win32,60,IwAR2p1jO_G1NvGpsqal5bKEKGB4vbw4uwO9Bz-P0aFZNlkSdCKj8RvcwL9UQ,,,,,,,,,,,
,,,,,,,,,,,,,,p,1,1.11156,space,0.30511,0,13,13,26,1,3_dist_red/trial2.png,,,1,3,redHorizontal,p,53,20,F,2021-02-22_14h37.35.130,exp11,2020.2.6,Win32,60,IwAR2p1jO_G1NvGpsqal5bKEKGB4vbw4uwO9Bz-P0aFZNlkSdCKj8RvcwL9UQ,,,,,,,,,,,
,,,,,,,,,,,,,,p,1,1.306615001,space,0.288335001,0,14,14,54,1,9_dist_red/trial5.png,,,1,9,redHorizontal,p,53,20,F,2021-02-22_14h37.35.130,exp11,2020.2.6,Win32,60,IwAR2p1jO_G1NvGpsqal5bKEKGB4vbw4uwO9Bz-P0aFZNlkSdCKj8RvcwL9UQ,,,,,,,,,,,
,,,,,,,,,,,,,,a,1,1.09905,space,0.28992,0,15,15,162,1,0_targ_10_dist_red/trial13.png,,,0,10,redHorizontal,a,53,20,F,2021-02-22_14h37.35.130,exp11,2020.2.6,Win32,60,IwAR2p1jO_G1NvGpsqal5bKEKGB4vbw4uwO9Bz-P0aFZNlkSdCKj8RvcwL9UQ,,,,,,,,,,,
,,,,,,,,,,,,,,p,1,1.046544999,space,0.31171,0,16,16,46,1,3_dist_red/trial22.png,,,1,3,redHorizontal,p,53,20,F,2021-02-22_14h37.35.130,exp11,2020.2.6,Win32,60,IwAR2p1jO_G1NvGpsqal5bKEKGB4vbw4uwO9Bz-P0aFZNlkSdCKj8RvcwL9UQ,,,,,,,,,,,
,,,,,,,,,,,,,,p,1,0.938905001,space,0.350395001,0,17,17,58,1,9_dist_red/trial9.png,,,1,9,redHorizontal,p,53,20,F,2021-02-22_14h37.35.130,exp11,2020.2.6,Win32,60,IwAR2p1jO_G1NvGpsqal5bKEKGB4vbw4uwO9Bz-P0aFZNlkSdCKj8RvcwL9UQ,,,,,,,,,,,
,,,,,,,,,,,,,,p,1,1.161210001,space,0.27386,0,18,18,55,1,9_dist_red/trial6.png,,,1,9,redHorizontal,p,53,20,F,2021-02-22_14h37.35.130,exp11,2020.2.6,Win32,60,IwAR2p1jO_G1NvGpsqal5bKEKGB4vbw4uwO9Bz-P0aFZNlkSdCKj8RvcwL9UQ,,,,,,,,,,,
,,,,,,,,,,,,,,a,1,1.036914999,space,0.28596,0,19,19,106,1,0_targ_1_dist_red/trial7.png,,,0,1,redHorizontal,a,53,20,F,2021-02-22_14h37.35.130,exp11,2020.2.6,Win32,60,IwAR2p1jO_G1NvGpsqal5bKEKGB4vbw4uwO9Bz-P0aFZNlkSdCKj8RvcwL9UQ,,,,,,,,,,,
,,,,,,,,,,,,,,p,1,1.363675,space,0.226255002,0,20,20,77,1,15_dist_red/trial3.png,,,1,15,redHorizontal,p,53,20,F,2021-02-22_14h37.35.130,exp11,2020.2.6,Win32,60,IwAR2p1jO_G1NvGpsqal5bKEKGB4vbw4uwO9Bz-P0aFZNlkSdCKj8RvcwL9UQ,,,,,,,,,,,
,,,,,,,,,,,,,,p,1,0.96266,space,0.30178,0,21,21,45,1,3_dist_red/trial21.png,,,1,3,redHorizontal,p,53,20,F,2021-02-22_14h37.35.130,exp11,2020.2.6,Win32,60,IwAR2p1jO_G1NvGpsqal5bKEKGB4vbw4uwO9Bz-P0aFZNlkSdCKj8RvcwL9UQ,,,,,,,,,,,
,,,,,,,,,,,,,,a,1,1.096039999,space,0.28376,0,22,22,123,1,0_targ_1_dist_red/trial24.png,,,0,1,redHorizontal,a,53,20,F,2021-02-22_14h37.35.130,exp11,2020.2.6,Win32,60,IwAR2p1jO_G1NvGpsqal5bKEKGB4vbw4uwO9Bz-P0aFZNlkSdCKj8RvcwL9UQ,,,,,,,,,,,
,,,,,,,,,,,,,,p,1,1.230125001,space,0.283805,0,23,23,34,1,3_dist_red/trial10.png,,,1,3,redHorizontal,p,53,20,F,2021-02-22_14h37.35.130,exp11,2020.2.6,Win32,60,IwAR2p1jO_G1NvGpsqal5bKEKGB4vbw4uwO9Bz-P0aFZNlkSdCKj8RvcwL9UQ,,,,,,,,,,,
,,,,,,,,,,,,,,a,1,1.438890001,space,0.300645001,0,24,24,188,1,0_targ_16_dist_red/trial14.png,,,0,16,redHorizontal,a,53,20,F,2021-02-22_14h37.35.130,exp11,2020.2.6,Win32,60,IwAR2p1jO_G1NvGpsqal5bKEKGB4vbw4uwO9Bz-P0aFZNlkSdCKj8RvcwL9UQ,,,,,,,,,,,
,,,,,,,,,,,,,,a,1,1.311825,space,0.637805,0,25,25,159,1,0_targ_10_dist_red/trial10.png,,,0,10,redHorizontal,a,53,20,F,2021-02-22_14h37.35.130,exp11,2020.2.6,Win32,60,IwAR2p1jO_G1NvGpsqal5bKEKGB4vbw4uwO9Bz-P0aFZNlkSdCKj8RvcwL9UQ,,,,,,,,,,,
,,,,,,,,,,,,,,a,1,1.730660001,space,0.242355,0,26,26,109,1,0_targ_1_dist_red/trial10.png,,,0,1,redHorizontal,a,53,20,F,2021-02-22_14h37.35.130,exp11,2020.2.6,Win32,60,IwAR2p1jO_G1NvGpsqal5bKEKGB4vbw4uwO9Bz-P0aFZNlkSdCKj8RvcwL9UQ,,,,,,,,,,,
,,,,,,,,,,,,,,p,1,1.262250001,space,0.333464999,0,27,27,64,1,9_dist_red/trial15.png,,,1,9,redHorizontal,p,53,20,F,2021-02-22_14h37.35.130,exp11,2020.2.6,Win32,60,IwAR2p1jO_G1NvGpsqal5bKEKGB4vbw4uwO9Bz-P0aFZNlkSdCKj8RvcwL9UQ,,,,,,,,,,,
,,,,,,,,,,,,,,a,1,0.984055001,space,0.31277,0,28,28,147,1,0_targ_4_dist_red/trial23.png,,,0,4,redHorizontal,a,53,20,F,2021-02-22_14h37.35.130,exp11,2020.2.6,Win32,60,IwAR2p1jO_G1NvGpsqal5bKEKGB4vbw4uwO9Bz-P0aFZNlkSdCKj8RvcwL9UQ,,,,,,,,,,,
,,,,,,,,,,,,,,a,1,0.93661,space,0.267275,0,29,29,126,1,0_targ_4_dist_red/trial2.png,,,0,4,redHorizontal,a,53,20,F,2021-02-22_14h37.35.130,exp11,2020.2.6,Win32,60,IwAR2p1jO_G1NvGpsqal5bKEKGB4vbw4uwO9Bz-P0aFZNlkSdCKj8RvcwL9UQ,,,,,,,,,,,
,,,,,,,,,,,,,,a,1,0.717025001,space,0.275210001,0,30,30,179,1,0_targ_16_dist_red/trial5.png,,,0,16,redHorizontal,a,53,20,F,2021-02-22_14h37.35.130,exp11,2020.2.6,Win32,60,IwAR2p1jO_G1NvGpsqal5bKEKGB4vbw4uwO9Bz-P0aFZNlkSdCKj8RvcwL9UQ,,,,,,,,,,,
,,,,,,,,,,,,,,p,1,1.045875,space,0.1862,0,31,31,0,1,0_dist_red/trial1.png,,,1,0,redHorizontal,p,53,20,F,2021-02-22_14h37.35.130,exp11,2020.2.6,Win32,60,IwAR2p1jO_G1NvGpsqal5bKEKGB4vbw4uwO9Bz-P0aFZNlkSdCKj8RvcwL9UQ,,,,,,,,,,,
,,,,,,,,,,,,,,a,1,1.511335,space,0.223819999,0,32,32,182,1,0_targ_16_dist_red/trial8.png,,,0,16,redHorizontal,a,53,20,F,2021-02-22_14h37.35.130,exp11,2020.2.6,Win32,60,IwAR2p1jO_G1NvGpsqal5bKEKGB4vbw4uwO9Bz-P0aFZNlkSdCKj8RvcwL9UQ,,,,,,,,,,,
,,,,,,,,,,,,,,p,1,1.145655001,space,0.244140001,0,33,33,83,1,15_dist_red/trial9.png,,,1,15,redHorizontal,p,53,20,F,2021-02-22_14h37.35.130,exp11,2020.2.6,Win32,60,IwAR2p1jO_G1NvGpsqal5bKEKGB4vbw4uwO9Bz-P0aFZNlkSdCKj8RvcwL9UQ,,,,,,,,,,,
,,,,,,,,,,,,,,p,1,1.011990001,space,0.283554999,0,34,34,56,1,9_dist_red/trial7.png,,,1,9,redHorizontal,p,53,20,F,2021-02-22_14h37.35.130,exp11,2020.2.6,Win32,60,IwAR2p1jO_G1NvGpsqal5bKEKGB4vbw4uwO9Bz-P0aFZNlkSdCKj8RvcwL9UQ,,,,,,,,,,,
,,,,,,,,,,,,,,a,1,0.955605,space,0.305819999,0,35,35,105,1,0_targ_1_dist_red/trial6.png,,,0,1,redHorizontal,a,53,20,F,2021-02-22_14h37.35.130,exp11,2020.2.6,Win32,60,IwAR2p1jO_G1NvGpsqal5bKEKGB4vbw4uwO9Bz-P0aFZNlkSdCKj8RvcwL9UQ,,,,,,,,,,,
,,,,,,,,,,,,,,a,1,0.962059999,space,0.271715,0,36,36,194,1,0_targ_16_dist_red/trial20.png,,,0,16,redHorizontal,a,53,20,F,2021-02-22_14h37.35.130,exp11,2020.2.6,Win32,60,IwAR2p1jO_G1NvGpsqal5bKEKGB4vbw4uwO9Bz-P0aFZNlkSdCKj8RvcwL9UQ,,,,,,,,,,,
,,,,,,,,,,,,,,a,1,0.912725,space,0.441405,0,37,37,143,1,0_targ_4_dist_red/trial19.png,,,0,4,redHorizontal,a,53,20,F,2021-02-22_14h37.35.130,exp11,2020.2.6,Win32,60,IwAR2p1jO_G1NvGpsqal5bKEKGB4vbw4uwO9Bz-P0aFZNlkSdCKj8RvcwL9UQ,,,,,,,,,,,
,,,,,,,,,,,,,,p,1,1.012430001,space,0.277655,0,38,38,2,1,0_dist_red/trial3.png,,,1,0,redHorizontal,p,53,20,F,2021-02-22_14h37.35.130,exp11,2020.2.6,Win32,60,IwAR2p1jO_G1NvGpsqal5bKEKGB4vbw4uwO9Bz-P0aFZNlkSdCKj8RvcwL9UQ,,,,,,,,,,,
,,,,,,,,,,,,,,p,1,1.012085,space,0.283584999,0,39,39,48,1,3_dist_red/trial24.png,,,1,3,redHorizontal,p,53,20,F,2021-02-22_14h37.35.130,exp11,2020.2.6,Win32,60,IwAR2p1jO_G1NvGpsqal5bKEKGB4vbw4uwO9Bz-P0aFZNlkSdCKj8RvcwL9UQ,,,,,,,,,,,
,,,,,,,,,,,,,,p,1,0.9605,space,0.684455,0,40,40,14,1,0_dist_red/trial15.png,,,1,0,redHorizontal,p,53,20,F,2021-02-22_14h37.35.130,exp11,2020.2.6,Win32,60,IwAR2p1jO_G1NvGpsqal5bKEKGB4vbw4uwO9Bz-P0aFZNlkSdCKj8RvcwL9UQ,,,,,,,,,,,
,,,,,,,,,,,,,,a,1,1.59568,space,0.272764999,0,41,41,100,1,0_targ_1_dist_red/trial1.png,,,0,1,redHorizontal,a,53,20,F,2021-02-22_14h37.35.130,exp11,2020.2.6,Win32,60,IwAR2p1jO_G1NvGpsqal5bKEKGB4vbw4uwO9Bz-P0aFZNlkSdCKj8RvcwL9UQ,,,,,,,,,,,
,,,,,,,,,,,,,,a,1,3.404124999,space,0.31175,0,42,42,146,1,0_targ_4_dist_red/trial22.png,,,0,4,redHorizontal,a,53,20,F,2021-02-22_14h37.35.130,exp11,2020.2.6,Win32,60,IwAR2p1jO_G1NvGpsqal5bKEKGB4vbw4uwO9Bz-P0aFZNlkSdCKj8RvcwL9UQ,,,,,,,,,,,
,,,,,,,,,,,,,,p,1,1.030765001,space,0.280395001,0,43,43,63,1,9_dist_red/trial14.png,,,1,9,redHorizontal,p,53,20,F,2021-02-22_14h37.35.130,exp11,2020.2.6,Win32,60,IwAR2p1jO_G1NvGpsqal5bKEKGB4vbw4uwO9Bz-P0aFZNlkSdCKj8RvcwL9UQ,,,,,,,,,,,
,,,,,,,,,,,,,,p,1,0.999335,space,0.283879999,0,44,44,78,1,15_dist_red/trial4.png,,,1,15,redHorizontal,p,53,20,F,2021-02-22_14h37.35.130,exp11,2020.2.6,Win32,60,IwAR2p1jO_G1NvGpsqal5bKEKGB4vbw4uwO9Bz-P0aFZNlkSdCKj8RvcwL9UQ,,,,,,,,,,,
,,,,,,,,,,,,,,a,1,1.261739999,space,0.3007,0,45,45,181,1,0_targ_16_dist_red/trial7.png,,,0,16,redHorizontal,a,53,20,F,2021-02-22_14h37.35.130,exp11,2020.2.6,Win32,60,IwAR2p1jO_G1NvGpsqal5bKEKGB4vbw4uwO9Bz-P0aFZNlkSdCKj8RvcwL9UQ,,,,,,,,,,,
,,,,,,,,,,,,,,a,1,1.028615,space,0.312915001,0,46,46,172,1,0_targ_10_dist_red/trial23.png,,,0,10,redHorizontal,a,53,20,F,2021-02-22_14h37.35.130,exp11,2020.2.6,Win32,60,IwAR2p1jO_G1NvGpsqal5bKEKGB4vbw4uwO9Bz-P0aFZNlkSdCKj8RvcwL9UQ,,,,,,,,,,,
,,,,,,,,,,,,,,a,1,0.863155,space,0.289455,0,47,47,101,1,0_targ_1_dist_red/trial2.png,,,0,1,redHorizontal,a,53,20,F,2021-02-22_14h37.35.130,exp11,2020.2.6,Win32,60,IwAR2p1jO_G1NvGpsqal5bKEKGB4vbw4uwO9Bz-P0aFZNlkSdCKj8RvcwL9UQ,,,,,,,,,,,
,,,,,,,,,,,,,,p,1,1.16196,space,0.288635001,0,48,48,95,1,15_dist_red/trial21.png,,,1,15,redHorizontal,p,53,20,F,2021-02-22_14h37.35.130,exp11,2020.2.6,Win32,60,IwAR2p1jO_G1NvGpsqal5bKEKGB4vbw4uwO9Bz-P0aFZNlkSdCKj8RvcwL9UQ,,,,,,,,,,,
,,,,,,,,,,,,,,p,1,0.867345,space,0.337424999,0,49,49,91,1,15_dist_red/trial17.png,,,1,15,redHorizontal,p,53,20,F,2021-02-22_14h37.35.130,exp11,2020.2.6,Win32,60,IwAR2p1jO_G1NvGpsqal5bKEKGB4vbw4uwO9Bz-P0aFZNlkSdCKj8RvcwL9UQ,,,,,,,,,,,
,,,,,,,,,,,,,,p,1,0.912630001,space,0.300840002,0,50,50,35,1,3_dist_red/trial11.png,,,1,3,redHorizontal,p,53,20,F,2021-02-22_14h37.35.130,exp11,2020.2.6,Win32,60,IwAR2p1jO_G1NvGpsqal5bKEKGB4vbw4uwO9Bz-P0aFZNlkSdCKj8RvcwL9UQ,,,,,,,,,,,
,,,,,,,,,,,,,,p,1,0.946224999,space,0.259339999,0,51,51,96,1,15_dist_red/trial22.png,,,1,15,redHorizontal,p,53,20,F,2021-02-22_14h37.35.130,exp11,2020.2.6,Win32,60,IwAR2p1jO_G1NvGpsqal5bKEKGB4vbw4uwO9Bz-P0aFZNlkSdCKj8RvcwL9UQ,,,,,,,,,,,
,,,,,,,,,,,,,,a,1,1.085545,space,0.317174999,0,52,52,170,1,0_targ_10_dist_red/trial21.png,,,0,10,redHorizontal,a,53,20,F,2021-02-22_14h37.35.130,exp11,2020.2.6,Win32,60,IwAR2p1jO_G1NvGpsqal5bKEKGB4vbw4uwO9Bz-P0aFZNlkSdCKj8RvcwL9UQ,,,,,,,,,,,
,,,,,,,,,,,,,,a,1,0.928394999,space,0.323385,0,53,53,110,1,0_targ_1_dist_red/trial11.png,,,0,1,redHorizontal,a,53,20,F,2021-02-22_14h37.35.130,exp11,2020.2.6,Win32,60,IwAR2p1jO_G1NvGpsqal5bKEKGB4vbw4uwO9Bz-P0aFZNlkSdCKj8RvcwL9UQ,,,,,,,,,,,
,,,,,,,,,,,,,,p,1,1.053335,space,0.292470001,0,54,54,98,1,15_dist_red/trial24.png,,,1,15,redHorizontal,p,53,20,F,2021-02-22_14h37.35.130,exp11,2020.2.6,Win32,60,IwAR2p1jO_G1NvGpsqal5bKEKGB4vbw4uwO9Bz-P0aFZNlkSdCKj8RvcwL9UQ,,,,,,,,,,,
,,,,,,,,,,,,,,p,0,0.975155,space,0.386059999,0,55,55,115,1,0_targ_1_dist_red/trial6.png,,,0,1,redHorizontal,a,53,20,F,2021-02-22_14h37.35.130,exp11,2020.2.6,Win32,60,IwAR2p1jO_G1NvGpsqal5bKEKGB4vbw4uwO9Bz-P0aFZNlkSdCKj8RvcwL9UQ,,,,,,,,,,,
,,,,,,,,,,,,,,p,1,0.995495001,space,0.303830002,0,56,56,37,1,3_dist_red/trial13.png,,,1,3,redHorizontal,p,53,20,F,2021-02-22_14h37.35.130,exp11,2020.2.6,Win32,60,IwAR2p1jO_G1NvGpsqal5bKEKGB4vbw4uwO9Bz-P0aFZNlkSdCKj8RvcwL9UQ,,,,,,,,,,,
,,,,,,,,,,,,,,a,1,0.963435,space,0.338794999,0,57,57,167,1,0_targ_10_dist_red/trial18.png,,,0,10,redHorizontal,a,53,20,F,2021-02-22_14h37.35.130,exp11,2020.2.6,Win32,60,IwAR2p1jO_G1NvGpsqal5bKEKGB4vbw4uwO9Bz-P0aFZNlkSdCKj8RvcwL9UQ,,,,,,,,,,,
,,,,,,,,,,,,,,a,1,0.86221,space,0.300390001,0,58,58,142,1,0_targ_4_dist_red/trial18.png,,,0,4,redHorizontal,a,53,20,F,2021-02-22_14h37.35.130,exp11,2020.2.6,Win32,60,IwAR2p1jO_G1NvGpsqal5bKEKGB4vbw4uwO9Bz-P0aFZNlkSdCKj8RvcwL9UQ,,,,,,,,,,,
,,,,,,,,,,,,,,a,1,0.861895001,space,0.372125,0,59,59,134,1,0_targ_4_dist_red/trial10.png,,,0,4,redHorizontal,a,53,20,F,2021-02-22_14h37.35.130,exp11,2020.2.6,Win32,60,IwAR2p1jO_G1NvGpsqal5bKEKGB4vbw4uwO9Bz-P0aFZNlkSdCKj8RvcwL9UQ,,,,,,,,,,,
,,,,,,,,,,,,,,a,1,1.07869,space,0.351004999,0,60,60,191,1,0_targ_16_dist_red/trial17.png,,,0,16,redHorizontal,a,53,20,F,2021-02-22_14h37.35.130,exp11,2020.2.6,Win32,60,IwAR2p1jO_G1NvGpsqal5bKEKGB4vbw4uwO9Bz-P0aFZNlkSdCKj8RvcwL9UQ,,,,,,,,,,,
,,,,,,,,,,,,,,p,1,1.172635,space,0.294105001,0,61,61,90,1,15_dist_red/trial16.png,,,1,15,redHorizontal,p,53,20,F,2021-02-22_14h37.35.130,exp11,2020.2.6,Win32,60,IwAR2p1jO_G1NvGpsqal5bKEKGB4vbw4uwO9Bz-P0aFZNlkSdCKj8RvcwL9UQ,,,,,,,,,,,
,,,,,,,,,,,,,,a,1,1.132755,space,0.344464999,0,62,62,160,1,0_targ_10_dist_red/trial11.png,,,0,10,redHorizontal,a,53,20,F,2021-02-22_14h37.35.130,exp11,2020.2.6,Win32,60,IwAR2p1jO_G1NvGpsqal5bKEKGB4vbw4uwO9Bz-P0aFZNlkSdCKj8RvcwL9UQ,,,,,,,,,,,
,,,,,,,,,,,,,,p,1,1.072575001,space,0.310289999,0,63,63,75,1,15_dist_red/trial1.png,,,1,15,redHorizontal,p,53,20,F,2021-02-22_14h37.35.130,exp11,2020.2.6,Win32,60,IwAR2p1jO_G1NvGpsqal5bKEKGB4vbw4uwO9Bz-P0aFZNlkSdCKj8RvcwL9UQ,,,,,,,,,,,
,,,,,,,,,,,,,,a,1,1.228975,space,0.30484,0,64,64,111,1,0_targ_1_dist_red/trial12.png,,,0,1,redHorizontal,a,53,20,F,2021-02-22_14h37.35.130,exp11,2020.2.6,Win32,60,IwAR2p1jO_G1NvGpsqal5bKEKGB4vbw4uwO9Bz-P0aFZNlkSdCKj8RvcwL9UQ,,,,,,,,,,,
,,,,,,,,,,,,,,p,1,1.18359,space,0.294585001,0,65,65,84,1,15_dist_red/trial10.png,,,1,15,redHorizontal,p,53,20,F,2021-02-22_14h37.35.130,exp11,2020.2.6,Win32,60,IwAR2p1jO_G1NvGpsqal5bKEKGB4vbw4uwO9Bz-P0aFZNlkSdCKj8RvcwL9UQ,,,,,,,,,,,
,,,,,,,,,,,,,,p,1,1.129179999,space,0.30015,0,66,66,39,1,3_dist_red/trial15.png,,,1,3,redHorizontal,p,53,20,F,2021-02-22_14h37.35.130,exp11,2020.2.6,Win32,60,IwAR2p1jO_G1NvGpsqal5bKEKGB4vbw4uwO9Bz-P0aFZNlkSdCKj8RvcwL9UQ,,,,,,,,,,,
,,,,,,,,,,,,,,p,1,1.128969999,space,0.325625001,0,67,67,79,1,15_dist_red/trial5.png,,,1,15,redHorizontal,p,53,20,F,2021-02-22_14h37.35.130,exp11,2020.2.6,Win32,60,IwAR2p1jO_G1NvGpsqal5bKEKGB4vbw4uwO9Bz-P0aFZNlkSdCKj8RvcwL9UQ,,,,,,,,,,,
,,,,,,,,,,,,,,a,1,1.072530001,space,0.316985,0,68,68,140,1,0_targ_4_dist_red/trial6.png,,,0,4,redHorizontal,a,53,20,F,2021-02-22_14h37.35.130,exp11,2020.2.6,Win32,60,IwAR2p1jO_G1NvGpsqal5bKEKGB4vbw4uwO9Bz-P0aFZNlkSdCKj8RvcwL9UQ,,,,,,,,,,,
,,,,,,,,,,,,,,a,1,1.17853,space,0.256284999,0,69,69,163,1,0_targ_10_dist_red/trial14.png,,,0,10,redHorizontal,a,53,20,F,2021-02-22_14h37.35.130,exp11,2020.2.6,Win32,60,IwAR2p1jO_G1NvGpsqal5bKEKGB4vbw4uwO9Bz-P0aFZNlkSdCKj8RvcwL9UQ,,,,,,,,,,,
,,,,,,,,,,,,,,p,1,0.995165,space,0.31993,0,70,70,67,1,9_dist_red/trial18.png,,,1,9,redHorizontal,p,53,20,F,2021-02-22_14h37.35.130,exp11,2020.2.6,Win32,60,IwAR2p1jO_G1NvGpsqal5bKEKGB4vbw4uwO9Bz-P0aFZNlkSdCKj8RvcwL9UQ,,,,,,,,,,,
,,,,,,,,,,,,,,p,1,1.734645,space,0.252789998,0,71,71,52,1,9_dist_red/trial3.png,,,1,9,redHorizontal,p,53,20,F,2021-02-22_14h37.35.130,exp11,2020.2.6,Win32,60,IwAR2p1jO_G1NvGpsqal5bKEKGB4vbw4uwO9Bz-P0aFZNlkSdCKj8RvcwL9UQ,,,,,,,,,,,
,,,,,,,,,,,,,,p,1,1.029534999,space,0.259284999,0,72,72,33,1,3_dist_red/trial9.png,,,1,3,redHorizontal,p,53,20,F,2021-02-22_14h37.35.130,exp11,2020.2.6,Win32,60,IwAR2p1jO_G1NvGpsqal5bKEKGB4vbw4uwO9Bz-P0aFZNlkSdCKj8RvcwL9UQ,,,,,,,,,,,
,,,,,,,,,,,,,,a,1,0.96095,space,0.242880002,0,73,73,113,1,0_targ_1_dist_red/trial14.png,,,0,1,redHorizontal,a,53,20,F,2021-02-22_14h37.35.130,exp11,2020.2.6,Win32,60,IwAR2p1jO_G1NvGpsqal5bKEKGB4vbw4uwO9Bz-P0aFZNlkSdCKj8RvcwL9UQ,,,,,,,,,,,
,,,,,,,,,,,,,,a,1,1.311735,space,0.27022,0,74,74,187,1,0_targ_16_dist_red/trial13.png,,,0,16,redHorizontal,a,53,20,F,2021-02-22_14h37.35.130,exp11,2020.2.6,Win32,60,IwAR2p1jO_G1NvGpsqal5bKEKGB4vbw4uwO9Bz-P0aFZNlkSdCKj8RvcwL9UQ,,,,,,,,,,,
,,,,,,,,,,,,,,p,1,1.101454999,space,0.320715001,0,75,75,65,1,9_dist_red/trial16.png,,,1,9,redHorizontal,p,53,20,F,2021-02-22_14h37.35.130,exp11,2020.2.6,Win32,60,IwAR2p1jO_G1NvGpsqal5bKEKGB4vbw4uwO9Bz-P0aFZNlkSdCKj8RvcwL9UQ,,,,,,,,,,,
,,,,,,,,,,,,,,p,1,0.968885001,space,0.327324999,0,76,76,59,1,9_dist_red/trial10.png,,,1,9,redHorizontal,p,53,20,F,2021-02-22_14h37.35.130,exp11,2020.2.6,Win32,60,IwAR2p1jO_G1NvGpsqal5bKEKGB4vbw4uwO9Bz-P0aFZNlkSdCKj8RvcwL9UQ,,,,,,,,,,,
,,,,,,,,,,,,,,p,1,0.912069999,space,0.33372,0,77,77,38,1,3_dist_red/trial14.png,,,1,3,redHorizontal,p,53,20,F,2021-02-22_14h37.35.130,exp11,2020.2.6,Win32,60,IwAR2p1jO_G1NvGpsqal5bKEKGB4vbw4uwO9Bz-P0aFZNlkSdCKj8RvcwL9UQ,,,,,,,,,,,
,,,,,,,,,,,,,,a,1,0.929135,space,0.25774,0,78,78,104,1,0_targ_1_dist_red/trial5.png,,,0,1,redHorizontal,a,53,20,F,2021-02-22_14h37.35.130,exp11,2020.2.6,Win32,60,IwAR2p1jO_G1NvGpsqal5bKEKGB4vbw4uwO9Bz-P0aFZNlkSdCKj8RvcwL9UQ,,,,,,,,,,,
,,,,,,,,,,,,,,p,1,1.078965001,space,0.2837,0,79,79,92,1,15_dist_red/trial18.png,,,1,15,redHorizontal,p,53,20,F,2021-02-22_14h37.35.130,exp11,2020.2.6,Win32,60,IwAR2p1jO_G1NvGpsqal5bKEKGB4vbw4uwO9Bz-P0aFZNlkSdCKj8RvcwL9UQ,,,,,,,,,,,
,,,,,,,,,,,,,,a,1,1.08859,space,0.245755,0,80,80,135,1,0_targ_4_dist_red/trial11.png,,,0,4,redHorizontal,a,53,20,F,2021-02-22_14h37.35.130,exp11,2020.2.6,Win32,60,IwAR2p1jO_G1NvGpsqal5bKEKGB4vbw4uwO9Bz-P0aFZNlkSdCKj8RvcwL9UQ,,,,,,,,,,,
,,,,,,,,,,,,,,a,1,0.952105001,space,0.286485,0,81,81,192,1,0_targ_16_dist_red/trial18.png,,,0,16,redHorizontal,a,53,20,F,2021-02-22_14h37.35.130,exp11,2020.2.6,Win32,60,IwAR2p1jO_G1NvGpsqal5bKEKGB4vbw4uwO9Bz-P0aFZNlkSdCKj8RvcwL9UQ,,,,,,,,,,,
,,,,,,,,,,,,,,a,1,0.765685001,space,0.273539999,0,82,82,186,1,0_targ_16_dist_red/trial12.png,,,0,16,redHorizontal,a,53,20,F,2021-02-22_14h37.35.130,exp11,2020.2.6,Win32,60,IwAR2p1jO_G1NvGpsqal5bKEKGB4vbw4uwO9Bz-P0aFZNlkSdCKj8RvcwL9UQ,,,,,,,,,,,
,,,,,,,,,,,,,,a,1,0.748500001,space,0.267735001,0,83,83,130,1,0_targ_4_dist_red/trial6.png,,,0,4,redHorizontal,a,53,20,F,2021-02-22_14h37.35.130,exp11,2020.2.6,Win32,60,IwAR2p1jO_G1NvGpsqal5bKEKGB4vbw4uwO9Bz-P0aFZNlkSdCKj8RvcwL9UQ,,,,,,,,,,,
,,,,,,,,,,,,,,a,1,0.668064998,space,0.392200001,0,84,84,154,1,0_targ_10_dist_red/trial5.png,,,0,10,redHorizontal,a,53,20,F,2021-02-22_14h37.35.130,exp11,2020.2.6,Win32,60,IwAR2p1jO_G1NvGpsqal5bKEKGB4vbw4uwO9Bz-P0aFZNlkSdCKj8RvcwL9UQ,,,,,,,,,,,
,,,,,,,,,,,,,,a,1,0.589245001,space,0.291619999,0,85,85,129,1,0_targ_4_dist_red/trial5.png,,,0,4,redHorizontal,a,53,20,F,2021-02-22_14h37.35.130,exp11,2020.2.6,Win32,60,IwAR2p1jO_G1NvGpsqal5bKEKGB4vbw4uwO9Bz-P0aFZNlkSdCKj8RvcwL9UQ,,,,,,,,,,,
,,,,,,,,,,,,,,p,1,1.050935,space,0.28816,0,86,86,1,1,0_dist_red/trial2.png,,,1,0,redHorizontal,p,53,20,F,2021-02-22_14h37.35.130,exp11,2020.2.6,Win32,60,IwAR2p1jO_G1NvGpsqal5bKEKGB4vbw4uwO9Bz-P0aFZNlkSdCKj8RvcwL9UQ,,,,,,,,,,,
,,,,,,,,,,,,,,a,1,0.94523,space,0.295610001,0,87,87,155,1,0_targ_10_dist_red/trial6.png,,,0,10,redHorizontal,a,53,20,F,2021-02-22_14h37.35.130,exp11,2020.2.6,Win32,60,IwAR2p1jO_G1NvGpsqal5bKEKGB4vbw4uwO9Bz-P0aFZNlkSdCKj8RvcwL9UQ,,,,,,,,,,,
,,,,,,,,,,,,,,a,1,0.812634999,space,0.270325001,0,88,88,178,1,0_targ_16_dist_red/trial4.png,,,0,16,redHorizontal,a,53,20,F,2021-02-22_14h37.35.130,exp11,2020.2.6,Win32,60,IwAR2p1jO_G1NvGpsqal5bKEKGB4vbw4uwO9Bz-P0aFZNlkSdCKj8RvcwL9UQ,,,,,,,,,,,
,,,,,,,,,,,,,,p,1,1.045015,space,0.283674998,0,89,89,53,1,9_dist_red/trial4.png,,,1,9,redHorizontal,p,53,20,F,2021-02-22_14h37.35.130,exp11,2020.2.6,Win32,60,IwAR2p1jO_G1NvGpsqal5bKEKGB4vbw4uwO9Bz-P0aFZNlkSdCKj8RvcwL9UQ,,,,,,,,,,,
,,,,,,,,,,,,,,a,1,0.888800001,space,0.326355001,0,90,90,132,1,0_targ_4_dist_red/trial8.png,,,0,4,redHorizontal,a,53,20,F,2021-02-22_14h37.35.130,exp11,2020.2.6,Win32,60,IwAR2p1jO_G1NvGpsqal5bKEKGB4vbw4uwO9Bz-P0aFZNlkSdCKj8RvcwL9UQ,,,,,,,,,,,
,,,,,,,,,,,,,,a,1,0.962255001,space,0.286965001,0,91,91,197,1,0_targ_16_dist_red/trial23.png,,,0,16,redHorizontal,a,53,20,F,2021-02-22_14h37.35.130,exp11,2020.2.6,Win32,60,IwAR2p1jO_G1NvGpsqal5bKEKGB4vbw4uwO9Bz-P0aFZNlkSdCKj8RvcwL9UQ,,,,,,,,,,,
,,,,,,,,,,,,,,p,1,0.97882,space,0.30222,0,92,92,69,1,9_dist_red/trial20.png,,,1,9,redHorizontal,p,53,20,F,2021-02-22_14h37.35.130,exp11,2020.2.6,Win32,60,IwAR2p1jO_G1NvGpsqal5bKEKGB4vbw4uwO9Bz-P0aFZNlkSdCKj8RvcwL9UQ,,,,,,,,,,,
,,,,,,,,,,,,,,p,1,1.013900001,space,0.246394999,0,93,93,32,1,3_dist_red/trial8.png,,,1,3,redHorizontal,p,53,20,F,2021-02-22_14h37.35.130,exp11,2020.2.6,Win32,60,IwAR2p1jO_G1NvGpsqal5bKEKGB4vbw4uwO9Bz-P0aFZNlkSdCKj8RvcwL9UQ,,,,,,,,,,,
,,,,,,,,,,,,,,a,1,1.047675001,space,0.167300001,0,94,94,152,1,0_targ_10_dist_red/trial3.png,,,0,10,redHorizontal,a,53,20,F,2021-02-22_14h37.35.130,exp11,2020.2.6,Win32,60,IwAR2p1jO_G1NvGpsqal5bKEKGB4vbw4uwO9Bz-P0aFZNlkSdCKj8RvcwL9UQ,,,,,,,,,,,
,,,,,,,,,,,,,,a,1,0.979910001,space,0.217189999,0,95,95,131,1,0_targ_4_dist_red/trial7.png,,,0,4,redHorizontal,a,53,20,F,2021-02-22_14h37.35.130,exp11,2020.2.6,Win32,60,IwAR2p1jO_G1NvGpsqal5bKEKGB4vbw4uwO9Bz-P0aFZNlkSdCKj8RvcwL9UQ,,,,,,,,,,,
,,,,,,,,,,,,,,p,1,1.139349999,space,0.283795001,0,96,96,25,1,3_dist_red/trial1.png,,,1,3,redHorizontal,p,53,20,F,2021-02-22_14h37.35.130,exp11,2020.2.6,Win32,60,IwAR2p1jO_G1NvGpsqal5bKEKGB4vbw4uwO9Bz-P0aFZNlkSdCKj8RvcwL9UQ,,,,,,,,,,,
,,,,,,,,,,,,,,a,0,1.062209999,space,0.304985,0,97,97,86,1,15_dist_red/trial12.png,,,1,15,redHorizontal,p,53,20,F,2021-02-22_14h37.35.130,exp11,2020.2.6,Win32,60,IwAR2p1jO_G1NvGpsqal5bKEKGB4vbw4uwO9Bz-P0aFZNlkSdCKj8RvcwL9UQ,,,,,,,,,,,
,,,,,,,,,,,,,,p,1,1.66336,space,0.268674999,0,98,98,57,1,9_dist_red/trial8.png,,,1,9,redHorizontal,p,53,20,F,2021-02-22_14h37.35.130,exp11,2020.2.6,Win32,60,IwAR2p1jO_G1NvGpsqal5bKEKGB4vbw4uwO9Bz-P0aFZNlkSdCKj8RvcwL9UQ,,,,,,,,,,,
,,,,,,,,,,,,,,p,1,0.86551,space,0.333989998,0,99,99,21,1,0_dist_red/trial22.png,,,1,0,redHorizontal,p,53,20,F,2021-02-22_14h37.35.130,exp11,2020.2.6,Win32,60,IwAR2p1jO_G1NvGpsqal5bKEKGB4vbw4uwO9Bz-P0aFZNlkSdCKj8RvcwL9UQ,,,,,,,,,,,
,,,,,,,,,,,,,,p,1,0.795555001,space,0.688620001,0,100,100,41,1,3_dist_red/trial17.png,,,1,3,redHorizontal,p,53,20,F,2021-02-22_14h37.35.130,exp11,2020.2.6,Win32,60,IwAR2p1jO_G1NvGpsqal5bKEKGB4vbw4uwO9Bz-P0aFZNlkSdCKj8RvcwL9UQ,,,,,,,,,,,
,,,,,,,,,,,,,,a,1,1.100545,space,0.200484999,0,101,101,125,1,0_targ_4_dist_red/trial1.png,,,0,4,redHorizontal,a,53,20,F,2021-02-22_14h37.35.130,exp11,2020.2.6,Win32,60,IwAR2p1jO_G1NvGpsqal5bKEKGB4vbw4uwO9Bz-P0aFZNlkSdCKj8RvcwL9UQ,,,,,,,,,,,
,,,,,,,,,,,,,,p,1,1.2181,space,0.212584998,0,102,102,94,1,15_dist_red/trial20.png,,,1,15,redHorizontal,p,53,20,F,2021-02-22_14h37.35.130,exp11,2020.2.6,Win32,60,IwAR2p1jO_G1NvGpsqal5bKEKGB4vbw4uwO9Bz-P0aFZNlkSdCKj8RvcwL9UQ,,,,,,,,,,,
,,,,,,,,,,,,,,p,1,1.278664999,space,0.219294999,0,103,103,93,1,15_dist_red/trial19.png,,,1,15,redHorizontal,p,53,20,F,2021-02-22_14h37.35.130,exp11,2020.2.6,Win32,60,IwAR2p1jO_G1NvGpsqal5bKEKGB4vbw4uwO9Bz-P0aFZNlkSdCKj8RvcwL9UQ,,,,,,,,,,,
,,,,,,,,,,,,,,p,1,1.07921,space,0.21968,0,104,104,27,1,3_dist_red/trial3.png,,,1,3,redHorizontal,p,53,20,F,2021-02-22_14h37.35.130,exp11,2020.2.6,Win32,60,IwAR2p1jO_G1NvGpsqal5bKEKGB4vbw4uwO9Bz-P0aFZNlkSdCKj8RvcwL9UQ,,,,,,,,,,,
,,,,,,,,,,,,,,p,1,1.011964999,space,0.23611,0,105,105,49,1,3_dist_red/trial25.png,,,1,3,redHorizontal,p,53,20,F,2021-02-22_14h37.35.130,exp11,2020.2.6,Win32,60,IwAR2p1jO_G1NvGpsqal5bKEKGB4vbw4uwO9Bz-P0aFZNlkSdCKj8RvcwL9UQ,,,,,,,,,,,
,,,,,,,,,,,,,,p,1,1.084450001,space,0.351670001,0,106,106,71,1,9_dist_red/trial22.png,,,1,9,redHorizontal,p,53,20,F,2021-02-22_14h37.35.130,exp11,2020.2.6,Win32,60,IwAR2p1jO_G1NvGpsqal5bKEKGB4vbw4uwO9Bz-P0aFZNlkSdCKj8RvcwL9UQ,,,,,,,,,,,
,,,,,,,,,,,,,,a,1,1.512145001,space,0.287555,0,107,107,196,1,0_targ_16_dist_red/trial22.png,,,0,16,redHorizontal,a,53,20,F,2021-02-22_14h37.35.130,exp11,2020.2.6,Win32,60,IwAR2p1jO_G1NvGpsqal5bKEKGB4vbw4uwO9Bz-P0aFZNlkSdCKj8RvcwL9UQ,,,,,,,,,,,
,,,,,,,,,,,,,,a,1,1.969910001,space,0.683805,0,108,108,185,1,0_targ_16_dist_red/trial11.png,,,0,16,redHorizontal,a,53,20,F,2021-02-22_14h37.35.130,exp11,2020.2.6,Win32,60,IwAR2p1jO_G1NvGpsqal5bKEKGB4vbw4uwO9Bz-P0aFZNlkSdCKj8RvcwL9UQ,,,,,,,,,,,
,,,,,,,,,,,,,,p,1,0.928995,space,0.217829999,0,109,109,28,1,3_dist_red/trial4.png,,,1,3,redHorizontal,p,53,20,F,2021-02-22_14h37.35.130,exp11,2020.2.6,Win32,60,IwAR2p1jO_G1NvGpsqal5bKEKGB4vbw4uwO9Bz-P0aFZNlkSdCKj8RvcwL9UQ,,,,,,,,,,,
,,,,,,,,,,,,,,p,1,0.8123,space,0.190945001,0,110,110,6,1,0_dist_red/trial7.png,,,1,0,redHorizontal,p,53,20,F,2021-02-22_14h37.35.130,exp11,2020.2.6,Win32,60,IwAR2p1jO_G1NvGpsqal5bKEKGB4vbw4uwO9Bz-P0aFZNlkSdCKj8RvcwL9UQ,,,,,,,,,,,
,,,,,,,,,,,,,,p,1,0.74683,space,0.189874999,0,111,111,36,1,3_dist_red/trial12.png,,,1,3,redHorizontal,p,53,20,F,2021-02-22_14h37.35.130,exp11,2020.2.6,Win32,60,IwAR2p1jO_G1NvGpsqal5bKEKGB4vbw4uwO9Bz-P0aFZNlkSdCKj8RvcwL9UQ,,,,,,,,,,,
,,,,,,,,,,,,,,a,1,0.934385,space,0.15621,0,112,112,137,1,0_targ_4_dist_red/trial13.png,,,0,4,redHorizontal,a,53,20,F,2021-02-22_14h37.35.130,exp11,2020.2.6,Win32,60,IwAR2p1jO_G1NvGpsqal5bKEKGB4vbw4uwO9Bz-P0aFZNlkSdCKj8RvcwL9UQ,,,,,,,,,,,
,,,,,,,,,,,,,,p,1,0.878875,space,0.470155001,0,113,113,5,1,0_dist_red/trial6.png,,,1,0,redHorizontal,p,53,20,F,2021-02-22_14h37.35.130,exp11,2020.2.6,Win32,60,IwAR2p1jO_G1NvGpsqal5bKEKGB4vbw4uwO9Bz-P0aFZNlkSdCKj8RvcwL9UQ,,,,,,,,,,,
,,,,,,,,,,,,,,a,1,0.935515001,space,0.178929999,0,114,114,138,1,0_targ_4_dist_red/trial14.png,,,0,4,redHorizontal,a,53,20,F,2021-02-22_14h37.35.130,exp11,2020.2.6,Win32,60,IwAR2p1jO_G1NvGpsqal5bKEKGB4vbw4uwO9Bz-P0aFZNlkSdCKj8RvcwL9UQ,,,,,,,,,,,
,,,,,,,,,,,,,,a,1,1.88673,space,0.175449999,0,115,115,164,1,0_targ_10_dist_red/trial15.png,,,0,10,redHorizontal,a,53,20,F,2021-02-22_14h37.35.130,exp11,2020.2.6,Win32,60,IwAR2p1jO_G1NvGpsqal5bKEKGB4vbw4uwO9Bz-P0aFZNlkSdCKj8RvcwL9UQ,,,,,,,,,,,
,,,,,,,,,,,,,,a,1,0.96204,space,0.177885,0,116,116,151,1,0_targ_10_dist_red/trial2.png,,,0,10,redHorizontal,a,53,20,F,2021-02-22_14h37.35.130,exp11,2020.2.6,Win32,60,IwAR2p1jO_G1NvGpsqal5bKEKGB4vbw4uwO9Bz-P0aFZNlkSdCKj8RvcwL9UQ,,,,,,,,,,,
,,,,,,,,,,,,,,a,1,0.786419999,space,0.227259999,0,117,117,150,1,0_targ_10_dist_red/trial1.png,,,0,10,redHorizontal,a,53,20,F,2021-02-22_14h37.35.130,exp11,2020.2.6,Win32,60,IwAR2p1jO_G1NvGpsqal5bKEKGB4vbw4uwO9Bz-P0aFZNlkSdCKj8RvcwL9UQ,,,,,,,,,,,
,,,,,,,,,,,,,,a,1,0.66219,space,0.183629999,0,118,118,145,1,0_targ_4_dist_red/trial21.png,,,0,4,redHorizontal,a,53,20,F,2021-02-22_14h37.35.130,exp11,2020.2.6,Win32,60,IwAR2p1jO_G1NvGpsqal5bKEKGB4vbw4uwO9Bz-P0aFZNlkSdCKj8RvcwL9UQ,,,,,,,,,,,
,,,,,,,,,,,,,,p,1,1.363679999,space,0.193755001,0,119,119,70,1,9_dist_red/trial21.png,,,1,9,redHorizontal,p,53,20,F,2021-02-22_14h37.35.130,exp11,2020.2.6,Win32,60,IwAR2p1jO_G1NvGpsqal5bKEKGB4vbw4uwO9Bz-P0aFZNlkSdCKj8RvcwL9UQ,,,,,,,,,,,
,,,,,,,,,,,,,,p,1,0.829,space,0.22085,0,120,120,20,1,0_dist_red/trial21.png,,,1,0,redHorizontal,p,53,20,F,2021-02-22_14h37.35.130,exp11,2020.2.6,Win32,60,IwAR2p1jO_G1NvGpsqal5bKEKGB4vbw4uwO9Bz-P0aFZNlkSdCKj8RvcwL9UQ,,,,,,,,,,,
,,,,,,,,,,,,,,p,1,0.989495,space,0.20183,0,121,121,68,1,9_dist_red/trial19.png,,,1,9,redHorizontal,p,53,20,F,2021-02-22_14h37.35.130,exp11,2020.2.6,Win32,60,IwAR2p1jO_G1NvGpsqal5bKEKGB4vbw4uwO9Bz-P0aFZNlkSdCKj8RvcwL9UQ,,,,,,,,,,,
,,,,,,,,,,,,,,a,1,1.01199,space,0.140665,0,122,122,158,1,0_targ_10_dist_red/trial9.png,,,0,10,redHorizontal,a,53,20,F,2021-02-22_14h37.35.130,exp11,2020.2.6,Win32,60,IwAR2p1jO_G1NvGpsqal5bKEKGB4vbw4uwO9Bz-P0aFZNlkSdCKj8RvcwL9UQ,,,,,,,,,,,
,,,,,,,,,,,,,,p,1,0.966174999,space,0.244185001,0,123,123,10,1,0_dist_red/trial11.png,,,1,0,redHorizontal,p,53,20,F,2021-02-22_14h37.35.130,exp11,2020.2.6,Win32,60,IwAR2p1jO_G1NvGpsqal5bKEKGB4vbw4uwO9Bz-P0aFZNlkSdCKj8RvcwL9UQ,,,,,,,,,,,
,,,,,,,,,,,,,,a,1,0.93888,space,0.169235,0,124,124,176,1,0_targ_16_dist_red/trial2.png,,,0,16,redHorizontal,a,53,20,F,2021-02-22_14h37.35.130,exp11,2020.2.6,Win32,60,IwAR2p1jO_G1NvGpsqal5bKEKGB4vbw4uwO9Bz-P0aFZNlkSdCKj8RvcwL9UQ,,,,,,,,,,,
,,,,,,,,,,,,,,a,1,0.833835,space,0.17625,0,125,125,136,1,0_targ_4_dist_red/trial12.png,,,0,4,redHorizontal,a,53,20,F,2021-02-22_14h37.35.130,exp11,2020.2.6,Win32,60,IwAR2p1jO_G1NvGpsqal5bKEKGB4vbw4uwO9Bz-P0aFZNlkSdCKj8RvcwL9UQ,,,,,,,,,,,
,,,,,,,,,,,,,,p,1,0.812635001,space,0.171879999,0,126,126,12,1,0_dist_red/trial13.png,,,1,0,redHorizontal,p,53,20,F,2021-02-22_14h37.35.130,exp11,2020.2.6,Win32,60,IwAR2p1jO_G1NvGpsqal5bKEKGB4vbw4uwO9Bz-P0aFZNlkSdCKj8RvcwL9UQ,,,,,,,,,,,
,,,,,,,,,,,,,,p,1,1.854259999,space,0.192615001,0,127,127,61,1,9_dist_red/trial12.png,,,1,9,redHorizontal,p,53,20,F,2021-02-22_14h37.35.130,exp11,2020.2.6,Win32,60,IwAR2p1jO_G1NvGpsqal5bKEKGB4vbw4uwO9Bz-P0aFZNlkSdCKj8RvcwL9UQ,,,,,,,,,,,
,,,,,,,,,,,,,,p,1,1.06989,space,0.222014999,0,128,128,47,1,3_dist_red/trial23.png,,,1,3,redHorizontal,p,53,20,F,2021-02-22_14h37.35.130,exp11,2020.2.6,Win32,60,IwAR2p1jO_G1NvGpsqal5bKEKGB4vbw4uwO9Bz-P0aFZNlkSdCKj8RvcwL9UQ,,,,,,,,,,,
,,,,,,,,,,,,,,a,1,0.995530002,space,0.159305001,0,129,129,119,1,0_targ_1_dist_red/trial20.png,,,0,1,redHorizontal,a,53,20,F,2021-02-22_14h37.35.130,exp11,2020.2.6,Win32,60,IwAR2p1jO_G1NvGpsqal5bKEKGB4vbw4uwO9Bz-P0aFZNlkSdCKj8RvcwL9UQ,,,,,,,,,,,
,,,,,,,,,,,,,,p,1,0.995749999,space,0.191095,0,130,130,24,1,0_dist_red/trial25.png,,,1,0,redHorizontal,p,53,20,F,2021-02-22_14h37.35.130,exp11,2020.2.6,Win32,60,IwAR2p1jO_G1NvGpsqal5bKEKGB4vbw4uwO9Bz-P0aFZNlkSdCKj8RvcwL9UQ,,,,,,,,,,,
,,,,,,,,,,,,,,a,1,0.862074999,space,0.45427,0,131,131,121,1,0_targ_1_dist_red/trial22.png,,,0,1,redHorizontal,a,53,20,F,2021-02-22_14h37.35.130,exp11,2020.2.6,Win32,60,IwAR2p1jO_G1NvGpsqal5bKEKGB4vbw4uwO9Bz-P0aFZNlkSdCKj8RvcwL9UQ,,,,,,,,,,,
,,,,,,,,,,,,,,p,0,1.012004999,space,0.360084999,0,132,132,133,1,0_targ_4_dist_red/trial9.png,,,0,4,redHorizontal,a,53,20,F,2021-02-22_14h37.35.130,exp11,2020.2.6,Win32,60,IwAR2p1jO_G1NvGpsqal5bKEKGB4vbw4uwO9Bz-P0aFZNlkSdCKj8RvcwL9UQ,,,,,,,,,,,
,,,,,,,,,,,,,,p,1,1.200255001,space,0.221279999,0,133,133,31,1,3_dist_red/trial7.png,,,1,3,redHorizontal,p,53,20,F,2021-02-22_14h37.35.130,exp11,2020.2.6,Win32,60,IwAR2p1jO_G1NvGpsqal5bKEKGB4vbw4uwO9Bz-P0aFZNlkSdCKj8RvcwL9UQ,,,,,,,,,,,
,,,,,,,,,,,,,,p,1,0.732099999,space,0.216705,0,134,134,7,1,0_dist_red/trial8.png,,,1,0,redHorizontal,p,53,20,F,2021-02-22_14h37.35.130,exp11,2020.2.6,Win32,60,IwAR2p1jO_G1NvGpsqal5bKEKGB4vbw4uwO9Bz-P0aFZNlkSdCKj8RvcwL9UQ,,,,,,,,,,,
,,,,,,,,,,,,,,p,1,0.699890001,space,0.257930001,0,135,135,73,1,9_dist_red/trial24.png,,,1,9,redHorizontal,p,53,20,F,2021-02-22_14h37.35.130,exp11,2020.2.6,Win32,60,IwAR2p1jO_G1NvGpsqal5bKEKGB4vbw4uwO9Bz-P0aFZNlkSdCKj8RvcwL9UQ,,,,,,,,,,,
,,,,,,,,,,,,,,a,1,0.9879,space,0.267024999,0,136,136,193,1,0_targ_16_dist_red/trial19.png,,,0,16,redHorizontal,a,53,20,F,2021-02-22_14h37.35.130,exp11,2020.2.6,Win32,60,IwAR2p1jO_G1NvGpsqal5bKEKGB4vbw4uwO9Bz-P0aFZNlkSdCKj8RvcwL9UQ,,,,,,,,,,,
,,,,,,,,,,,,,,p,1,0.900774999,space,0.27533,0,137,137,15,1,0_dist_red/trial16.png,,,1,0,redHorizontal,p,53,20,F,2021-02-22_14h37.35.130,exp11,2020.2.6,Win32,60,IwAR2p1jO_G1NvGpsqal5bKEKGB4vbw4uwO9Bz-P0aFZNlkSdCKj8RvcwL9UQ,,,,,,,,,,,
,,,,,,,,,,,,,,a,1,1.299565,space,0.370479999,0,138,138,144,1,0_targ_4_dist_red/trial20.png,,,0,4,redHorizontal,a,53,20,F,2021-02-22_14h37.35.130,exp11,2020.2.6,Win32,60,IwAR2p1jO_G1NvGpsqal5bKEKGB4vbw4uwO9Bz-P0aFZNlkSdCKj8RvcwL9UQ,,,,,,,,,,,
,,,,,,,,,,,,,,p,1,0.832855001,space,0.360755,0,139,139,22,1,0_dist_red/trial23.png,,,1,0,redHorizontal,p,53,20,F,2021-02-22_14h37.35.130,exp11,2020.2.6,Win32,60,IwAR2p1jO_G1NvGpsqal5bKEKGB4vbw4uwO9Bz-P0aFZNlkSdCKj8RvcwL9UQ,,,,,,,,,,,
,,,,,,,,,,,,,,p,1,1.245175,space,0.267029999,0,140,140,74,1,9_dist_red/trial25.png,,,1,9,redHorizontal,p,53,20,F,2021-02-22_14h37.35.130,exp11,2020.2.6,Win32,60,IwAR2p1jO_G1NvGpsqal5bKEKGB4vbw4uwO9Bz-P0aFZNlkSdCKj8RvcwL9UQ,,,,,,,,,,,
,,,,,,,,,,,,,,p,1,1.927364999,space,0.235060001,0,141,141,30,1,3_dist_red/trial6.png,,,1,3,redHorizontal,p,53,20,F,2021-02-22_14h37.35.130,exp11,2020.2.6,Win32,60,IwAR2p1jO_G1NvGpsqal5bKEKGB4vbw4uwO9Bz-P0aFZNlkSdCKj8RvcwL9UQ,,,,,,,,,,,
,,,,,,,,,,,,,,p,1,0.811419999,space,0.279449999,0,142,142,17,1,0_dist_red/trial18.png,,,1,0,redHorizontal,p,53,20,F,2021-02-22_14h37.35.130,exp11,2020.2.6,Win32,60,IwAR2p1jO_G1NvGpsqal5bKEKGB4vbw4uwO9Bz-P0aFZNlkSdCKj8RvcwL9UQ,,,,,,,,,,,
,,,,,,,,,,,,,,a,1,0.8838,space,0.255180001,0,143,143,175,1,0_targ_16_dist_red/trial1.png,,,0,16,redHorizontal,a,53,20,F,2021-02-22_14h37.35.130,exp11,2020.2.6,Win32,60,IwAR2p1jO_G1NvGpsqal5bKEKGB4vbw4uwO9Bz-P0aFZNlkSdCKj8RvcwL9UQ,,,,,,,,,,,
,,,,,,,,,,,,,,p,1,0.868530001,space,0.292974999,0,144,144,18,1,0_dist_red/trial19.png,,,1,0,redHorizontal,p,53,20,F,2021-02-22_14h37.35.130,exp11,2020.2.6,Win32,60,IwAR2p1jO_G1NvGpsqal5bKEKGB4vbw4uwO9Bz-P0aFZNlkSdCKj8RvcwL9UQ,,,,,,,,,,,
,,,,,,,,,,,,,,a,1,0.895780001,space,1.762215,0,145,145,148,1,0_targ_4_dist_red/trial24.png,,,0,4,redHorizontal,a,53,20,F,2021-02-22_14h37.35.130,exp11,2020.2.6,Win32,60,IwAR2p1jO_G1NvGpsqal5bKEKGB4vbw4uwO9Bz-P0aFZNlkSdCKj8RvcwL9UQ,,,,,,,,,,,
,,,,,,,,,,,,,,p,1,2.666185001,space,0.354754999,0,146,146,89,1,15_dist_red/trial15.png,,,1,15,redHorizontal,p,53,20,F,2021-02-22_14h37.35.130,exp11,2020.2.6,Win32,60,IwAR2p1jO_G1NvGpsqal5bKEKGB4vbw4uwO9Bz-P0aFZNlkSdCKj8RvcwL9UQ,,,,,,,,,,,
,,,,,,,,,,,,,,a,1,0.798544999,space,0.183794999,0,147,147,107,1,0_targ_1_dist_red/trial8.png,,,0,1,redHorizontal,a,53,20,F,2021-02-22_14h37.35.130,exp11,2020.2.6,Win32,60,IwAR2p1jO_G1NvGpsqal5bKEKGB4vbw4uwO9Bz-P0aFZNlkSdCKj8RvcwL9UQ,,,,,,,,,,,
,,,,,,,,,,,,,,p,1,1.295369999,space,0.337634999,0,148,148,19,1,0_dist_red/trial20.png,,,1,0,redHorizontal,p,53,20,F,2021-02-22_14h37.35.130,exp11,2020.2.6,Win32,60,IwAR2p1jO_G1NvGpsqal5bKEKGB4vbw4uwO9Bz-P0aFZNlkSdCKj8RvcwL9UQ,,,,,,,,,,,
,,,,,,,,,,,,,,a,1,1.562399998,space,0.472925,0,149,149,184,1,0_targ_16_dist_red/trial10.png,,,0,16,redHorizontal,a,53,20,F,2021-02-22_14h37.35.130,exp11,2020.2.6,Win32,60,IwAR2p1jO_G1NvGpsqal5bKEKGB4vbw4uwO9Bz-P0aFZNlkSdCKj8RvcwL9UQ,,,,,,,,,,,
,,,,,,,,,,,,,,a,1,0.778465001,space,0.426285001,0,150,150,161,1,0_targ_10_dist_red/trial12.png,,,0,10,redHorizontal,a,53,20,F,2021-02-22_14h37.35.130,exp11,2020.2.6,Win32,60,IwAR2p1jO_G1NvGpsqal5bKEKGB4vbw4uwO9Bz-P0aFZNlkSdCKj8RvcwL9UQ,,,,,,,,,,,
,,,,,,,,,,,,,,a,1,0.851915,space,0.216870001,0,151,151,195,1,0_targ_16_dist_red/trial21.png,,,0,16,redHorizontal,a,53,20,F,2021-02-22_14h37.35.130,exp11,2020.2.6,Win32,60,IwAR2p1jO_G1NvGpsqal5bKEKGB4vbw4uwO9Bz-P0aFZNlkSdCKj8RvcwL9UQ,,,,,,,,,,,
,,,,,,,,,,,,,,p,1,0.971969999,space,0.337535001,0,152,152,8,1,0_dist_red/trial9.png,,,1,0,redHorizontal,p,53,20,F,2021-02-22_14h37.35.130,exp11,2020.2.6,Win32,60,IwAR2p1jO_G1NvGpsqal5bKEKGB4vbw4uwO9Bz-P0aFZNlkSdCKj8RvcwL9UQ,,,,,,,,,,,
,,,,,,,,,,,,,,a,1,0.767900001,space,0.277424999,0,153,153,168,1,0_targ_10_dist_red/trial19.png,,,0,10,redHorizontal,a,53,20,F,2021-02-22_14h37.35.130,exp11,2020.2.6,Win32,60,IwAR2p1jO_G1NvGpsqal5bKEKGB4vbw4uwO9Bz-P0aFZNlkSdCKj8RvcwL9UQ,,,,,,,,,,,
,,,,,,,,,,,,,,p,1,1.098185001,space,0.335984999,0,154,154,50,1,9_dist_red/trial1.png,,,1,9,redHorizontal,p,53,20,F,2021-02-22_14h37.35.130,exp11,2020.2.6,Win32,60,IwAR2p1jO_G1NvGpsqal5bKEKGB4vbw4uwO9Bz-P0aFZNlkSdCKj8RvcwL9UQ,,,,,,,,,,,
,,,,,,,,,,,,,,a,1,1.236014999,space,0.617015,0,155,155,108,1,0_targ_1_dist_red/trial9.png,,,0,1,redHorizontal,a,53,20,F,2021-02-22_14h37.35.130,exp11,2020.2.6,Win32,60,IwAR2p1jO_G1NvGpsqal5bKEKGB4vbw4uwO9Bz-P0aFZNlkSdCKj8RvcwL9UQ,,,,,,,,,,,
,,,,,,,,,,,,,,p,1,1.255819999,space,0.33402,0,156,156,87,1,15_dist_red/trial13.png,,,1,15,redHorizontal,p,53,20,F,2021-02-22_14h37.35.130,exp11,2020.2.6,Win32,60,IwAR2p1jO_G1NvGpsqal5bKEKGB4vbw4uwO9Bz-P0aFZNlkSdCKj8RvcwL9UQ,,,,,,,,,,,
,,,,,,,,,,,,,,p,1,1.152549999,space,0.226094998,0,157,157,51,1,9_dist_red/trial2.png,,,1,9,redHorizontal,p,53,20,F,2021-02-22_14h37.35.130,exp11,2020.2.6,Win32,60,IwAR2p1jO_G1NvGpsqal5bKEKGB4vbw4uwO9Bz-P0aFZNlkSdCKj8RvcwL9UQ,,,,,,,,,,,
,,,,,,,,,,,,,,p,1,0.91512,space,0.263569999,0,158,158,44,1,3_dist_red/trial20.png,,,1,3,redHorizontal,p,53,20,F,2021-02-22_14h37.35.130,exp11,2020.2.6,Win32,60,IwAR2p1jO_G1NvGpsqal5bKEKGB4vbw4uwO9Bz-P0aFZNlkSdCKj8RvcwL9UQ,,,,,,,,,,,
,,,,,,,,,,,,,,p,1,0.804564999,space,0.221404999,0,159,159,3,1,0_dist_red/trial4.png,,,1,0,redHorizontal,p,53,20,F,2021-02-22_14h37.35.130,exp11,2020.2.6,Win32,60,IwAR2p1jO_G1NvGpsqal5bKEKGB4vbw4uwO9Bz-P0aFZNlkSdCKj8RvcwL9UQ,,,,,,,,,,,
,,,,,,,,,,,,,,a,1,1.04494,space,0.194845,0,160,160,183,1,0_targ_16_dist_red/trial9.png,,,0,16,redHorizontal,a,53,20,F,2021-02-22_14h37.35.130,exp11,2020.2.6,Win32,60,IwAR2p1jO_G1NvGpsqal5bKEKGB4vbw4uwO9Bz-P0aFZNlkSdCKj8RvcwL9UQ,,,,,,,,,,,
,,,,,,,,,,,,,,a,1,0.912404999,space,0.17811,0,161,161,102,1,0_targ_1_dist_red/trial3.png,,,0,1,redHorizontal,a,53,20,F,2021-02-22_14h37.35.130,exp11,2020.2.6,Win32,60,IwAR2p1jO_G1NvGpsqal5bKEKGB4vbw4uwO9Bz-P0aFZNlkSdCKj8RvcwL9UQ,,,,,,,,,,,
,,,,,,,,,,,,,,a,1,0.684560001,space,0.294670001,0,162,162,189,1,0_targ_16_dist_red/trial15.png,,,0,16,redHorizontal,a,53,20,F,2021-02-22_14h37.35.130,exp11,2020.2.6,Win32,60,IwAR2p1jO_G1NvGpsqal5bKEKGB4vbw4uwO9Bz-P0aFZNlkSdCKj8RvcwL9UQ,,,,,,,,,,,
,,,,,,,,,,,,,,a,1,0.645694999,space,0.250475001,0,163,163,128,1,0_targ_4_dist_red/trial4.png,,,0,4,redHorizontal,a,53,20,F,2021-02-22_14h37.35.130,exp11,2020.2.6,Win32,60,IwAR2p1jO_G1NvGpsqal5bKEKGB4vbw4uwO9Bz-P0aFZNlkSdCKj8RvcwL9UQ,,,,,,,,,,,
,,,,,,,,,,,,,,a,1,0.729049999,space,0.183854999,0,164,164,169,1,0_targ_10_dist_red/trial20.png,,,0,10,redHorizontal,a,53,20,F,2021-02-22_14h37.35.130,exp11,2020.2.6,Win32,60,IwAR2p1jO_G1NvGpsqal5bKEKGB4vbw4uwO9Bz-P0aFZNlkSdCKj8RvcwL9UQ,,,,,,,,,,,
,,,,,,,,,,,,,,a,1,0.76217,space,0.233555,0,165,165,165,1,0_targ_10_dist_red/trial16.png,,,0,10,redHorizontal,a,53,20,F,2021-02-22_14h37.35.130,exp11,2020.2.6,Win32,60,IwAR2p1jO_G1NvGpsqal5bKEKGB4vbw4uwO9Bz-P0aFZNlkSdCKj8RvcwL9UQ,,,,,,,,,,,
,,,,,,,,,,,,,,p,1,1.114575,space,0.23373,0,166,166,85,1,15_dist_red/trial11.png,,,1,15,redHorizontal,p,53,20,F,2021-02-22_14h37.35.130,exp11,2020.2.6,Win32,60,IwAR2p1jO_G1NvGpsqal5bKEKGB4vbw4uwO9Bz-P0aFZNlkSdCKj8RvcwL9UQ,,,,,,,,,,,
,,,,,,,,,,,,,,p,1,0.862225,space,0.213570001,0,167,167,76,1,15_dist_red/trial2.png,,,1,15,redHorizontal,p,53,20,F,2021-02-22_14h37.35.130,exp11,2020.2.6,Win32,60,IwAR2p1jO_G1NvGpsqal5bKEKGB4vbw4uwO9Bz-P0aFZNlkSdCKj8RvcwL9UQ,,,,,,,,,,,
,,,,,,,,,,,,,,p,1,0.833845001,space,0.2513,0,168,168,29,1,3_dist_red/trial5.png,,,1,3,redHorizontal,p,53,20,F,2021-02-22_14h37.35.130,exp11,2020.2.6,Win32,60,IwAR2p1jO_G1NvGpsqal5bKEKGB4vbw4uwO9Bz-P0aFZNlkSdCKj8RvcwL9UQ,,,,,,,,,,,
,,,,,,,,,,,,,,a,1,1.007394999,space,0.285315,0,169,169,199,1,0_targ_16_dist_red/trial25.png,,,0,16,redHorizontal,a,53,20,F,2021-02-22_14h37.35.130,exp11,2020.2.6,Win32,60,IwAR2p1jO_G1NvGpsqal5bKEKGB4vbw4uwO9Bz-P0aFZNlkSdCKj8RvcwL9UQ,,,,,,,,,,,
,,,,,,,,,,,,,,a,1,2.085315,space,0.40563,0,170,170,173,1,0_targ_10_dist_red/trial24.png,,,0,10,redHorizontal,a,53,20,F,2021-02-22_14h37.35.130,exp11,2020.2.6,Win32,60,IwAR2p1jO_G1NvGpsqal5bKEKGB4vbw4uwO9Bz-P0aFZNlkSdCKj8RvcwL9UQ,,,,,,,,,,,
,,,,,,,,,,,,,,p,1,0.87836,space,0.392140001,0,171,171,16,1,0_dist_red/trial17.png,,,1,0,redHorizontal,p,53,20,F,2021-02-22_14h37.35.130,exp11,2020.2.6,Win32,60,IwAR2p1jO_G1NvGpsqal5bKEKGB4vbw4uwO9Bz-P0aFZNlkSdCKj8RvcwL9UQ,,,,,,,,,,,
,,,,,,,,,,,,,,a,1,1.168295,space,0.292400001,0,172,172,177,1,0_targ_16_dist_red/trial3.png,,,0,16,redHorizontal,a,53,20,F,2021-02-22_14h37.35.130,exp11,2020.2.6,Win32,60,IwAR2p1jO_G1NvGpsqal5bKEKGB4vbw4uwO9Bz-P0aFZNlkSdCKj8RvcwL9UQ,,,,,,,,,,,
,,,,,,,,,,,,,,p,1,1.378815001,space,0.517335001,0,173,173,80,1,15_dist_red/trial6.png,,,1,15,redHorizontal,p,53,20,F,2021-02-22_14h37.35.130,exp11,2020.2.6,Win32,60,IwAR2p1jO_G1NvGpsqal5bKEKGB4vbw4uwO9Bz-P0aFZNlkSdCKj8RvcwL9UQ,,,,,,,,,,,
,,,,,,,,,,,,,,p,1,1.5207,space,0.54999,0,174,174,88,1,15_dist_red/trial14.png,,,1,15,redHorizontal,p,53,20,F,2021-02-22_14h37.35.130,exp11,2020.2.6,Win32,60,IwAR2p1jO_G1NvGpsqal5bKEKGB4vbw4uwO9Bz-P0aFZNlkSdCKj8RvcwL9UQ,,,,,,,,,,,
,,,,,,,,,,,,,,p,1,0.57911,space,0.316925,0,175,175,60,1,9_dist_red/trial11.png,,,1,9,redHorizontal,p,53,20,F,2021-02-22_14h37.35.130,exp11,2020.2.6,Win32,60,IwAR2p1jO_G1NvGpsqal5bKEKGB4vbw4uwO9Bz-P0aFZNlkSdCKj8RvcwL9UQ,,,,,,,,,,,
,,,,,,,,,,,,,,p,1,0.787555,space,0.400595,0,176,176,13,1,0_dist_red/trial14.png,,,1,0,redHorizontal,p,53,20,F,2021-02-22_14h37.35.130,exp11,2020.2.6,Win32,60,IwAR2p1jO_G1NvGpsqal5bKEKGB4vbw4uwO9Bz-P0aFZNlkSdCKj8RvcwL9UQ,,,,,,,,,,,
,,,,,,,,,,,,,,a,1,1.081669999,space,0.322795,0,177,177,141,1,0_targ_4_dist_red/trial17.png,,,0,4,redHorizontal,a,53,20,F,2021-02-22_14h37.35.130,exp11,2020.2.6,Win32,60,IwAR2p1jO_G1NvGpsqal5bKEKGB4vbw4uwO9Bz-P0aFZNlkSdCKj8RvcwL9UQ,,,,,,,,,,,
,,,,,,,,,,,,,,a,1,1.6324,space,0.228769999,0,178,178,112,1,0_targ_1_dist_red/trial13.png,,,0,1,redHorizontal,a,53,20,F,2021-02-22_14h37.35.130,exp11,2020.2.6,Win32,60,IwAR2p1jO_G1NvGpsqal5bKEKGB4vbw4uwO9Bz-P0aFZNlkSdCKj8RvcwL9UQ,,,,,,,,,,,
,,,,,,,,,,,,,,a,1,0.87926,space,0.208335001,0,179,179,127,1,0_targ_4_dist_red/trial3.png,,,0,4,redHorizontal,a,53,20,F,2021-02-22_14h37.35.130,exp11,2020.2.6,Win32,60,IwAR2p1jO_G1NvGpsqal5bKEKGB4vbw4uwO9Bz-P0aFZNlkSdCKj8RvcwL9UQ,,,,,,,,,,,
,,,,,,,,,,,,,,a,1,0.802674999,space,0.65477,0,180,180,174,1,0_targ_10_dist_red/trial25.png,,,0,10,redHorizontal,a,53,20,F,2021-02-22_14h37.35.130,exp11,2020.2.6,Win32,60,IwAR2p1jO_G1NvGpsqal5bKEKGB4vbw4uwO9Bz-P0aFZNlkSdCKj8RvcwL9UQ,,,,,,,,,,,
,,,,,,,,,,,,,,a,1,0.612555001,space,0.256364999,0,181,181,139,1,0_targ_4_dist_red/trial15.png,,,0,4,redHorizontal,a,53,20,F,2021-02-22_14h37.35.130,exp11,2020.2.6,Win32,60,IwAR2p1jO_G1NvGpsqal5bKEKGB4vbw4uwO9Bz-P0aFZNlkSdCKj8RvcwL9UQ,,,,,,,,,,,
,,,,,,,,,,,,,,p,1,0.932104999,space,0.28888,0,182,182,9,1,0_dist_red/trial10.png,,,1,0,redHorizontal,p,53,20,F,2021-02-22_14h37.35.130,exp11,2020.2.6,Win32,60,IwAR2p1jO_G1NvGpsqal5bKEKGB4vbw4uwO9Bz-P0aFZNlkSdCKj8RvcwL9UQ,,,,,,,,,,,
,,,,,,,,,,,,,,p,1,1.062255001,space,0.266805001,0,183,183,11,1,0_dist_red/trial12.png,,,1,0,redHorizontal,p,53,20,F,2021-02-22_14h37.35.130,exp11,2020.2.6,Win32,60,IwAR2p1jO_G1NvGpsqal5bKEKGB4vbw4uwO9Bz-P0aFZNlkSdCKj8RvcwL9UQ,,,,,,,,,,,
,,,,,,,,,,,,,,p,1,0.645725001,space,0.300124999,0,184,184,82,1,15_dist_red/trial8.png,,,1,15,redHorizontal,p,53,20,F,2021-02-22_14h37.35.130,exp11,2020.2.6,Win32,60,IwAR2p1jO_G1NvGpsqal5bKEKGB4vbw4uwO9Bz-P0aFZNlkSdCKj8RvcwL9UQ,,,,,,,,,,,
,,,,,,,,,,,,,,a,1,1.001025001,space,0.28348,0,185,185,171,1,0_targ_10_dist_red/trial22.png,,,0,10,redHorizontal,a,53,20,F,2021-02-22_14h37.35.130,exp11,2020.2.6,Win32,60,IwAR2p1jO_G1NvGpsqal5bKEKGB4vbw4uwO9Bz-P0aFZNlkSdCKj8RvcwL9UQ,,,,,,,,,,,
,,,,,,,,,,,,,,a,1,0.95095,space,0.20022,0,186,186,118,1,0_targ_1_dist_red/trial19.png,,,0,1,redHorizontal,a,53,20,F,2021-02-22_14h37.35.130,exp11,2020.2.6,Win32,60,IwAR2p1jO_G1NvGpsqal5bKEKGB4vbw4uwO9Bz-P0aFZNlkSdCKj8RvcwL9UQ,,,,,,,,,,,
,,,,,,,,,,,,,,a,1,0.799605001,space,0.176725,0,187,187,198,1,0_targ_16_dist_red/trial24.png,,,0,16,redHorizontal,a,53,20,F,2021-02-22_14h37.35.130,exp11,2020.2.6,Win32,60,IwAR2p1jO_G1NvGpsqal5bKEKGB4vbw4uwO9Bz-P0aFZNlkSdCKj8RvcwL9UQ,,,,,,,,,,,
,,,,,,,,,,,,,,a,1,0.669229999,space,0.245155001,0,188,188,156,1,0_targ_10_dist_red/trial7.png,,,0,10,redHorizontal,a,53,20,F,2021-02-22_14h37.35.130,exp11,2020.2.6,Win32,60,IwAR2p1jO_G1NvGpsqal5bKEKGB4vbw4uwO9Bz-P0aFZNlkSdCKj8RvcwL9UQ,,,,,,,,,,,
,,,,,,,,,,,,,,a,1,0.733555,space,0.25052,0,189,189,180,1,0_targ_16_dist_red/trial6.png,,,0,16,redHorizontal,a,53,20,F,2021-02-22_14h37.35.130,exp11,2020.2.6,Win32,60,IwAR2p1jO_G1NvGpsqal5bKEKGB4vbw4uwO9Bz-P0aFZNlkSdCKj8RvcwL9UQ,,,,,,,,,,,
,,,,,,,,,,,,,,p,1,0.934034999,space,0.205689998,0,190,190,43,1,3_dist_red/trial19.png,,,1,3,redHorizontal,p,53,20,F,2021-02-22_14h37.35.130,exp11,2020.2.6,Win32,60,IwAR2p1jO_G1NvGpsqal5bKEKGB4vbw4uwO9Bz-P0aFZNlkSdCKj8RvcwL9UQ,,,,,,,,,,,
,,,,,,,,,,,,,,p,1,0.85103,space,0.221339999,0,191,191,62,1,9_dist_red/trial13.png,,,1,9,redHorizontal,p,53,20,F,2021-02-22_14h37.35.130,exp11,2020.2.6,Win32,60,IwAR2p1jO_G1NvGpsqal5bKEKGB4vbw4uwO9Bz-P0aFZNlkSdCKj8RvcwL9UQ,,,,,,,,,,,
,,,,,,,,,,,,,,a,1,1.20466,space,0.242079999,0,192,192,117,1,0_targ_1_dist_red/trial18.png,,,0,1,redHorizontal,a,53,20,F,2021-02-22_14h37.35.130,exp11,2020.2.6,Win32,60,IwAR2p1jO_G1NvGpsqal5bKEKGB4vbw4uwO9Bz-P0aFZNlkSdCKj8RvcwL9UQ,,,,,,,,,,,
,,,,,,,,,,,,,,p,1,1.071530001,space,0.216949999,0,193,193,4,1,0_dist_red/trial5.png,,,1,0,redHorizontal,p,53,20,F,2021-02-22_14h37.35.130,exp11,2020.2.6,Win32,60,IwAR2p1jO_G1NvGpsqal5bKEKGB4vbw4uwO9Bz-P0aFZNlkSdCKj8RvcwL9UQ,,,,,,,,,,,
,,,,,,,,,,,,,,a,1,0.962424999,space,0.220910002,0,194,194,124,1,0_targ_1_dist_red/trial25.png,,,0,1,redHorizontal,a,53,20,F,2021-02-22_14h37.35.130,exp11,2020.2.6,Win32,60,IwAR2p1jO_G1NvGpsqal5bKEKGB4vbw4uwO9Bz-P0aFZNlkSdCKj8RvcwL9UQ,,,,,,,,,,,
,,,,,,,,,,,,,,p,1,0.95114,space,0.279324999,0,195,195,97,1,15_dist_red/trial23.png,,,1,15,redHorizontal,p,53,20,F,2021-02-22_14h37.35.130,exp11,2020.2.6,Win32,60,IwAR2p1jO_G1NvGpsqal5bKEKGB4vbw4uwO9Bz-P0aFZNlkSdCKj8RvcwL9UQ,,,,,,,,,,,
,,,,,,,,,,,,,,p,1,1.212215001,space,0.221635001,0,196,196,42,1,3_dist_red/trial18.png,,,1,3,redHorizontal,p,53,20,F,2021-02-22_14h37.35.130,exp11,2020.2.6,Win32,60,IwAR2p1jO_G1NvGpsqal5bKEKGB4vbw4uwO9Bz-P0aFZNlkSdCKj8RvcwL9UQ,,,,,,,,,,,
,,,,,,,,,,,,,,a,1,0.834904999,space,0.171895001,0,197,197,114,1,0_targ_1_dist_red/trial15.png,,,0,1,redHorizontal,a,53,20,F,2021-02-22_14h37.35.130,exp11,2020.2.6,Win32,60,IwAR2p1jO_G1NvGpsqal5bKEKGB4vbw4uwO9Bz-P0aFZNlkSdCKj8RvcwL9UQ,,,,,,,,,,,
,,,,,,,,,,,,,,a,1,0.806215001,space,0.191834999,0,198,198,116,1,0_targ_1_dist_red/trial17.png,,,0,1,redHorizontal,a,53,20,F,2021-02-22_14h37.35.130,exp11,2020.2.6,Win32,60,IwAR2p1jO_G1NvGpsqal5bKEKGB4vbw4uwO9Bz-P0aFZNlkSdCKj8RvcwL9UQ,,,,,,,,,,,
,,,,,,,,,,,,,,a,1,0.986570001,space,0.175755,0,199,199,166,1,0_targ_10_dist_red/trial17.png,,,0,10,redHorizontal,a,53,20,F,2021-02-22_14h37.35.130,exp11,2020.2.6,Win32,60,IwAR2p1jO_G1NvGpsqal5bKEKGB4vbw4uwO9Bz-P0aFZNlkSdCKj8RvcwL9UQ,,,,,,,,,,,
,,,,,,,,,,,,,,,,,,,,,,,,,,,,,,,53,20,F,2021-02-22_14h37.35.130,exp11,2020.2.6,Win32,60,IwAR2p1jO_G1NvGpsqal5bKEKGB4vbw4uwO9Bz-P0aFZNlkSdCKj8RvcwL9UQ,0,1,1,1,1,conRed.xlsx,red horizontal,Look for red horizontal bar (target) and indicate if it is present or absent in the array. If red horizontal target is present press 'p' and if absent press 'a'. Press SPACE to start.,,,
