key_resp_6.keys,key_resp_6.rt,key_resp_7.keys,key_resp_7.rt,key_resp_8.keys,key_resp_8.rt,key_resp_10.keys,key_resp_10.rt,key_resp_9.keys,key_resp_9.rt,key_resp_3.keys,key_resp_3.rt,key_resp_5.keys,key_resp_5.rt,key_resp.keys,key_resp.corr,key_resp.rt,key_resp_4.keys,key_resp_4.rt,trials.thisRepN,trials.thisTrialN,trials.thisN,trials.thisIndex,trials.ran,ImageFile,tarPos,tarSize,targPres,numDist,targetName,correctAns,participant,age,sex,date,expName,psychopyVersion,OS,frameRate,fbclid,trials_2.thisRepN,trials_2.thisTrialN,trials_2.thisN,trials_2.thisIndex,trials_2.ran,condsFile,targName,instructionText,colTarget,sizeTarg,posit
space,1.030965,space,0.30409,space,0.2953,space,0.367485,space,0.41658,space,0.39112,space,1.808635,a,1,0.69853,space,0.71671,0,0,0,150,1,0_targ_10_dist_red/trial1.png,,,0,10,redHorizontal,a,55,31,m,2021-02-27_14h51.49.001,exp11,2020.2.6,Win32,60,IwAR3U2KXFL4e6znQL8uZDgaRxrmDNiX3z1ZTYjhIYF3jv_zCpSIZzwMDuWy4,,,,,,,,,,,
,,,,,,,,,,,,,,a,1,0.610095,space,0.30168,0,1,1,154,1,0_targ_10_dist_red/trial5.png,,,0,10,redHorizontal,a,55,31,m,2021-02-27_14h51.49.001,exp11,2020.2.6,Win32,60,IwAR3U2KXFL4e6znQL8uZDgaRxrmDNiX3z1ZTYjhIYF3jv_zCpSIZzwMDuWy4,,,,,,,,,,,
,,,,,,,,,,,,,,a,1,0.68087,space,0.269735,0,2,2,193,1,0_targ_16_dist_red/trial19.png,,,0,16,redHorizontal,a,55,31,m,2021-02-27_14h51.49.001,exp11,2020.2.6,Win32,60,IwAR3U2KXFL4e6znQL8uZDgaRxrmDNiX3z1ZTYjhIYF3jv_zCpSIZzwMDuWy4,,,,,,,,,,,
,,,,,,,,,,,,,,p,1,0.535115,space,0.309185,0,3,3,71,1,9_dist_red/trial22.png,,,1,9,redHorizontal,p,55,31,m,2021-02-27_14h51.49.001,exp11,2020.2.6,Win32,60,IwAR3U2KXFL4e6znQL8uZDgaRxrmDNiX3z1ZTYjhIYF3jv_zCpSIZzwMDuWy4,,,,,,,,,,,
,,,,,,,,,,,,,,p,1,0.54744,space,0.305,0,4,4,93,1,15_dist_red/trial19.png,,,1,15,redHorizontal,p,55,31,m,2021-02-27_14h51.49.001,exp11,2020.2.6,Win32,60,IwAR3U2KXFL4e6znQL8uZDgaRxrmDNiX3z1ZTYjhIYF3jv_zCpSIZzwMDuWy4,,,,,,,,,,,
,,,,,,,,,,,,,,a,1,0.48593,space,0.27261,0,5,5,106,1,0_targ_1_dist_red/trial7.png,,,0,1,redHorizontal,a,55,31,m,2021-02-27_14h51.49.001,exp11,2020.2.6,Win32,60,IwAR3U2KXFL4e6znQL8uZDgaRxrmDNiX3z1ZTYjhIYF3jv_zCpSIZzwMDuWy4,,,,,,,,,,,
,,,,,,,,,,,,,,a,1,0.540395,space,0.27475,0,6,6,196,1,0_targ_16_dist_red/trial22.png,,,0,16,redHorizontal,a,55,31,m,2021-02-27_14h51.49.001,exp11,2020.2.6,Win32,60,IwAR3U2KXFL4e6znQL8uZDgaRxrmDNiX3z1ZTYjhIYF3jv_zCpSIZzwMDuWy4,,,,,,,,,,,
,,,,,,,,,,,,,,p,1,0.53492,space,0.28185,0,7,7,20,1,0_dist_red/trial21.png,,,1,0,redHorizontal,p,55,31,m,2021-02-27_14h51.49.001,exp11,2020.2.6,Win32,60,IwAR3U2KXFL4e6znQL8uZDgaRxrmDNiX3z1ZTYjhIYF3jv_zCpSIZzwMDuWy4,,,,,,,,,,,
,,,,,,,,,,,,,,a,0,0.497605,space,0.020635,0,8,8,26,1,3_dist_red/trial2.png,,,1,3,redHorizontal,p,55,31,m,2021-02-27_14h51.49.001,exp11,2020.2.6,Win32,60,IwAR3U2KXFL4e6znQL8uZDgaRxrmDNiX3z1ZTYjhIYF3jv_zCpSIZzwMDuWy4,,,,,,,,,,,
,,,,,,,,,,,,,,a,1,0.80089,space,0.29537,0,9,9,173,1,0_targ_10_dist_red/trial24.png,,,0,10,redHorizontal,a,55,31,m,2021-02-27_14h51.49.001,exp11,2020.2.6,Win32,60,IwAR3U2KXFL4e6znQL8uZDgaRxrmDNiX3z1ZTYjhIYF3jv_zCpSIZzwMDuWy4,,,,,,,,,,,
,,,,,,,,,,,,,,a,1,0.536955,space,0.32033,0,10,10,168,1,0_targ_10_dist_red/trial19.png,,,0,10,redHorizontal,a,55,31,m,2021-02-27_14h51.49.001,exp11,2020.2.6,Win32,60,IwAR3U2KXFL4e6znQL8uZDgaRxrmDNiX3z1ZTYjhIYF3jv_zCpSIZzwMDuWy4,,,,,,,,,,,
,,,,,,,,,,,,,,a,1,0.55232,space,0.709065,0,11,11,147,1,0_targ_4_dist_red/trial23.png,,,0,4,redHorizontal,a,55,31,m,2021-02-27_14h51.49.001,exp11,2020.2.6,Win32,60,IwAR3U2KXFL4e6znQL8uZDgaRxrmDNiX3z1ZTYjhIYF3jv_zCpSIZzwMDuWy4,,,,,,,,,,,
,,,,,,,,,,,,,,a,1,0.597545,space,0.30709,0,12,12,103,1,0_targ_1_dist_red/trial4.png,,,0,1,redHorizontal,a,55,31,m,2021-02-27_14h51.49.001,exp11,2020.2.6,Win32,60,IwAR3U2KXFL4e6znQL8uZDgaRxrmDNiX3z1ZTYjhIYF3jv_zCpSIZzwMDuWy4,,,,,,,,,,,
,,,,,,,,,,,,,,p,1,0.686155,space,0.26804,0,13,13,25,1,3_dist_red/trial1.png,,,1,3,redHorizontal,p,55,31,m,2021-02-27_14h51.49.001,exp11,2020.2.6,Win32,60,IwAR3U2KXFL4e6znQL8uZDgaRxrmDNiX3z1ZTYjhIYF3jv_zCpSIZzwMDuWy4,,,,,,,,,,,
,,,,,,,,,,,,,,a,1,0.621405,space,0.301285,0,14,14,174,1,0_targ_10_dist_red/trial25.png,,,0,10,redHorizontal,a,55,31,m,2021-02-27_14h51.49.001,exp11,2020.2.6,Win32,60,IwAR3U2KXFL4e6znQL8uZDgaRxrmDNiX3z1ZTYjhIYF3jv_zCpSIZzwMDuWy4,,,,,,,,,,,
,,,,,,,,,,,,,,p,1,0.608795,space,0.318755,0,15,15,22,1,0_dist_red/trial23.png,,,1,0,redHorizontal,p,55,31,m,2021-02-27_14h51.49.001,exp11,2020.2.6,Win32,60,IwAR3U2KXFL4e6znQL8uZDgaRxrmDNiX3z1ZTYjhIYF3jv_zCpSIZzwMDuWy4,,,,,,,,,,,
,,,,,,,,,,,,,,p,0,0.51574,space,0.60429,0,16,16,122,1,0_targ_1_dist_red/trial23.png,,,0,1,redHorizontal,a,55,31,m,2021-02-27_14h51.49.001,exp11,2020.2.6,Win32,60,IwAR3U2KXFL4e6znQL8uZDgaRxrmDNiX3z1ZTYjhIYF3jv_zCpSIZzwMDuWy4,,,,,,,,,,,
,,,,,,,,,,,,,,p,0,1.100535,space,1.490235,0,17,17,187,1,0_targ_16_dist_red/trial13.png,,,0,16,redHorizontal,a,55,31,m,2021-02-27_14h51.49.001,exp11,2020.2.6,Win32,60,IwAR3U2KXFL4e6znQL8uZDgaRxrmDNiX3z1ZTYjhIYF3jv_zCpSIZzwMDuWy4,,,,,,,,,,,
,,,,,,,,,,,,,,p,1,0.89733,space,0.256775,0,18,18,59,1,9_dist_red/trial10.png,,,1,9,redHorizontal,p,55,31,m,2021-02-27_14h51.49.001,exp11,2020.2.6,Win32,60,IwAR3U2KXFL4e6znQL8uZDgaRxrmDNiX3z1ZTYjhIYF3jv_zCpSIZzwMDuWy4,,,,,,,,,,,
,,,,,,,,,,,,,,a,0,0.976145,space,0.083195,0,19,19,75,1,15_dist_red/trial1.png,,,1,15,redHorizontal,p,55,31,m,2021-02-27_14h51.49.001,exp11,2020.2.6,Win32,60,IwAR3U2KXFL4e6znQL8uZDgaRxrmDNiX3z1ZTYjhIYF3jv_zCpSIZzwMDuWy4,,,,,,,,,,,
,,,,,,,,,,,,,,a,1,1.416455,space,0.338475,0,20,20,175,1,0_targ_16_dist_red/trial1.png,,,0,16,redHorizontal,a,55,31,m,2021-02-27_14h51.49.001,exp11,2020.2.6,Win32,60,IwAR3U2KXFL4e6znQL8uZDgaRxrmDNiX3z1ZTYjhIYF3jv_zCpSIZzwMDuWy4,,,,,,,,,,,
,,,,,,,,,,,,,,a,1,0.67399,space,0.244695,0,21,21,129,1,0_targ_4_dist_red/trial5.png,,,0,4,redHorizontal,a,55,31,m,2021-02-27_14h51.49.001,exp11,2020.2.6,Win32,60,IwAR3U2KXFL4e6znQL8uZDgaRxrmDNiX3z1ZTYjhIYF3jv_zCpSIZzwMDuWy4,,,,,,,,,,,
,,,,,,,,,,,,,,p,1,0.574915,space,0.253545,0,22,22,62,1,9_dist_red/trial13.png,,,1,9,redHorizontal,p,55,31,m,2021-02-27_14h51.49.001,exp11,2020.2.6,Win32,60,IwAR3U2KXFL4e6znQL8uZDgaRxrmDNiX3z1ZTYjhIYF3jv_zCpSIZzwMDuWy4,,,,,,,,,,,
,,,,,,,,,,,,,,p,1,0.54316,space,0.27794,0,23,23,36,1,3_dist_red/trial12.png,,,1,3,redHorizontal,p,55,31,m,2021-02-27_14h51.49.001,exp11,2020.2.6,Win32,60,IwAR3U2KXFL4e6znQL8uZDgaRxrmDNiX3z1ZTYjhIYF3jv_zCpSIZzwMDuWy4,,,,,,,,,,,
,,,,,,,,,,,,,,a,1,1.015975,space,0.28856,0,24,24,152,1,0_targ_10_dist_red/trial3.png,,,0,10,redHorizontal,a,55,31,m,2021-02-27_14h51.49.001,exp11,2020.2.6,Win32,60,IwAR3U2KXFL4e6znQL8uZDgaRxrmDNiX3z1ZTYjhIYF3jv_zCpSIZzwMDuWy4,,,,,,,,,,,
,,,,,,,,,,,,,,p,1,0.78969,space,0.267335,0,25,25,44,1,3_dist_red/trial20.png,,,1,3,redHorizontal,p,55,31,m,2021-02-27_14h51.49.001,exp11,2020.2.6,Win32,60,IwAR3U2KXFL4e6znQL8uZDgaRxrmDNiX3z1ZTYjhIYF3jv_zCpSIZzwMDuWy4,,,,,,,,,,,
,,,,,,,,,,,,,,p,1,0.616265,space,0.225135,0,26,26,88,1,15_dist_red/trial14.png,,,1,15,redHorizontal,p,55,31,m,2021-02-27_14h51.49.001,exp11,2020.2.6,Win32,60,IwAR3U2KXFL4e6znQL8uZDgaRxrmDNiX3z1ZTYjhIYF3jv_zCpSIZzwMDuWy4,,,,,,,,,,,
,,,,,,,,,,,,,,a,1,0.54008,space,0.25528,0,27,27,118,1,0_targ_1_dist_red/trial19.png,,,0,1,redHorizontal,a,55,31,m,2021-02-27_14h51.49.001,exp11,2020.2.6,Win32,60,IwAR3U2KXFL4e6znQL8uZDgaRxrmDNiX3z1ZTYjhIYF3jv_zCpSIZzwMDuWy4,,,,,,,,,,,
,,,,,,,,,,,,,,a,1,0.644815,space,0.2522,0,28,28,136,1,0_targ_4_dist_red/trial12.png,,,0,4,redHorizontal,a,55,31,m,2021-02-27_14h51.49.001,exp11,2020.2.6,Win32,60,IwAR3U2KXFL4e6znQL8uZDgaRxrmDNiX3z1ZTYjhIYF3jv_zCpSIZzwMDuWy4,,,,,,,,,,,
,,,,,,,,,,,,,,p,1,0.58771,space,0.25498,0,29,29,66,1,9_dist_red/trial17.png,,,1,9,redHorizontal,p,55,31,m,2021-02-27_14h51.49.001,exp11,2020.2.6,Win32,60,IwAR3U2KXFL4e6znQL8uZDgaRxrmDNiX3z1ZTYjhIYF3jv_zCpSIZzwMDuWy4,,,,,,,,,,,
,,,,,,,,,,,,,,p,0,0.62367,space,0.392585,0,30,30,139,1,0_targ_4_dist_red/trial15.png,,,0,4,redHorizontal,a,55,31,m,2021-02-27_14h51.49.001,exp11,2020.2.6,Win32,60,IwAR3U2KXFL4e6znQL8uZDgaRxrmDNiX3z1ZTYjhIYF3jv_zCpSIZzwMDuWy4,,,,,,,,,,,
,,,,,,,,,,,,,,a,1,0.75006,space,0.408195,0,31,31,104,1,0_targ_1_dist_red/trial5.png,,,0,1,redHorizontal,a,55,31,m,2021-02-27_14h51.49.001,exp11,2020.2.6,Win32,60,IwAR3U2KXFL4e6znQL8uZDgaRxrmDNiX3z1ZTYjhIYF3jv_zCpSIZzwMDuWy4,,,,,,,,,,,
,,,,,,,,,,,,,,p,1,0.616005,space,0.25048,0,32,32,30,1,3_dist_red/trial6.png,,,1,3,redHorizontal,p,55,31,m,2021-02-27_14h51.49.001,exp11,2020.2.6,Win32,60,IwAR3U2KXFL4e6znQL8uZDgaRxrmDNiX3z1ZTYjhIYF3jv_zCpSIZzwMDuWy4,,,,,,,,,,,
,,,,,,,,,,,,,,a,0,0.734605,space,0.05775,0,33,33,2,1,0_dist_red/trial3.png,,,1,0,redHorizontal,p,55,31,m,2021-02-27_14h51.49.001,exp11,2020.2.6,Win32,60,IwAR3U2KXFL4e6znQL8uZDgaRxrmDNiX3z1ZTYjhIYF3jv_zCpSIZzwMDuWy4,,,,,,,,,,,
,,,,,,,,,,,,,,p,1,0.667505,space,0.203045,0,34,34,41,1,3_dist_red/trial17.png,,,1,3,redHorizontal,p,55,31,m,2021-02-27_14h51.49.001,exp11,2020.2.6,Win32,60,IwAR3U2KXFL4e6znQL8uZDgaRxrmDNiX3z1ZTYjhIYF3jv_zCpSIZzwMDuWy4,,,,,,,,,,,
,,,,,,,,,,,,,,p,1,0.80158,space,0.5524,0,35,35,55,1,9_dist_red/trial6.png,,,1,9,redHorizontal,p,55,31,m,2021-02-27_14h51.49.001,exp11,2020.2.6,Win32,60,IwAR3U2KXFL4e6znQL8uZDgaRxrmDNiX3z1ZTYjhIYF3jv_zCpSIZzwMDuWy4,,,,,,,,,,,
,,,,,,,,,,,,,,a,1,0.001055,space,0.40944,0,36,36,191,1,0_targ_16_dist_red/trial17.png,,,0,16,redHorizontal,a,55,31,m,2021-02-27_14h51.49.001,exp11,2020.2.6,Win32,60,IwAR3U2KXFL4e6znQL8uZDgaRxrmDNiX3z1ZTYjhIYF3jv_zCpSIZzwMDuWy4,,,,,,,,,,,
,,,,,,,,,,,,,,a,1,0.783445,space,0.315725,0,37,37,179,1,0_targ_16_dist_red/trial5.png,,,0,16,redHorizontal,a,55,31,m,2021-02-27_14h51.49.001,exp11,2020.2.6,Win32,60,IwAR3U2KXFL4e6znQL8uZDgaRxrmDNiX3z1ZTYjhIYF3jv_zCpSIZzwMDuWy4,,,,,,,,,,,
,,,,,,,,,,,,,,a,1,0.69856,space,0.22858,0,38,38,164,1,0_targ_10_dist_red/trial15.png,,,0,10,redHorizontal,a,55,31,m,2021-02-27_14h51.49.001,exp11,2020.2.6,Win32,60,IwAR3U2KXFL4e6znQL8uZDgaRxrmDNiX3z1ZTYjhIYF3jv_zCpSIZzwMDuWy4,,,,,,,,,,,
,,,,,,,,,,,,,,p,0,0.586305,space,1.00641,0,39,39,112,1,0_targ_1_dist_red/trial13.png,,,0,1,redHorizontal,a,55,31,m,2021-02-27_14h51.49.001,exp11,2020.2.6,Win32,60,IwAR3U2KXFL4e6znQL8uZDgaRxrmDNiX3z1ZTYjhIYF3jv_zCpSIZzwMDuWy4,,,,,,,,,,,
,,,,,,,,,,,,,,p,1,0.943515,space,0.28168,0,40,40,97,1,15_dist_red/trial23.png,,,1,15,redHorizontal,p,55,31,m,2021-02-27_14h51.49.001,exp11,2020.2.6,Win32,60,IwAR3U2KXFL4e6znQL8uZDgaRxrmDNiX3z1ZTYjhIYF3jv_zCpSIZzwMDuWy4,,,,,,,,,,,
,,,,,,,,,,,,,,a,1,1.01826,space,0.324615,0,41,41,172,1,0_targ_10_dist_red/trial23.png,,,0,10,redHorizontal,a,55,31,m,2021-02-27_14h51.49.001,exp11,2020.2.6,Win32,60,IwAR3U2KXFL4e6znQL8uZDgaRxrmDNiX3z1ZTYjhIYF3jv_zCpSIZzwMDuWy4,,,,,,,,,,,
,,,,,,,,,,,,,,a,1,1.379595,space,0.303025,0,42,42,194,1,0_targ_16_dist_red/trial20.png,,,0,16,redHorizontal,a,55,31,m,2021-02-27_14h51.49.001,exp11,2020.2.6,Win32,60,IwAR3U2KXFL4e6znQL8uZDgaRxrmDNiX3z1ZTYjhIYF3jv_zCpSIZzwMDuWy4,,,,,,,,,,,
,,,,,,,,,,,,,,a,1,0.657845,space,0.309465,0,43,43,151,1,0_targ_10_dist_red/trial2.png,,,0,10,redHorizontal,a,55,31,m,2021-02-27_14h51.49.001,exp11,2020.2.6,Win32,60,IwAR3U2KXFL4e6znQL8uZDgaRxrmDNiX3z1ZTYjhIYF3jv_zCpSIZzwMDuWy4,,,,,,,,,,,
,,,,,,,,,,,,,,p,1,0.5117,space,0.3552,0,44,44,10,1,0_dist_red/trial11.png,,,1,0,redHorizontal,p,55,31,m,2021-02-27_14h51.49.001,exp11,2020.2.6,Win32,60,IwAR3U2KXFL4e6znQL8uZDgaRxrmDNiX3z1ZTYjhIYF3jv_zCpSIZzwMDuWy4,,,,,,,,,,,
,,,,,,,,,,,,,,p,1,0.58542,space,0.519205,0,45,45,43,1,3_dist_red/trial19.png,,,1,3,redHorizontal,p,55,31,m,2021-02-27_14h51.49.001,exp11,2020.2.6,Win32,60,IwAR3U2KXFL4e6znQL8uZDgaRxrmDNiX3z1ZTYjhIYF3jv_zCpSIZzwMDuWy4,,,,,,,,,,,
,,,,,,,,,,,,,,p,1,0.64405,space,0.322655,0,46,46,42,1,3_dist_red/trial18.png,,,1,3,redHorizontal,p,55,31,m,2021-02-27_14h51.49.001,exp11,2020.2.6,Win32,60,IwAR3U2KXFL4e6znQL8uZDgaRxrmDNiX3z1ZTYjhIYF3jv_zCpSIZzwMDuWy4,,,,,,,,,,,
,,,,,,,,,,,,,,p,1,0.5689,space,0.27224,0,47,47,27,1,3_dist_red/trial3.png,,,1,3,redHorizontal,p,55,31,m,2021-02-27_14h51.49.001,exp11,2020.2.6,Win32,60,IwAR3U2KXFL4e6znQL8uZDgaRxrmDNiX3z1ZTYjhIYF3jv_zCpSIZzwMDuWy4,,,,,,,,,,,
,,,,,,,,,,,,,,a,1,0.62001,space,0.420975,0,48,48,105,1,0_targ_1_dist_red/trial6.png,,,0,1,redHorizontal,a,55,31,m,2021-02-27_14h51.49.001,exp11,2020.2.6,Win32,60,IwAR3U2KXFL4e6znQL8uZDgaRxrmDNiX3z1ZTYjhIYF3jv_zCpSIZzwMDuWy4,,,,,,,,,,,
,,,,,,,,,,,,,,a,1,0.62408,space,0.40377,0,49,49,120,1,0_targ_1_dist_red/trial21.png,,,0,1,redHorizontal,a,55,31,m,2021-02-27_14h51.49.001,exp11,2020.2.6,Win32,60,IwAR3U2KXFL4e6znQL8uZDgaRxrmDNiX3z1ZTYjhIYF3jv_zCpSIZzwMDuWy4,,,,,,,,,,,
,,,,,,,,,,,,,,a,1,1.08587,space,0.259885,0,50,50,180,1,0_targ_16_dist_red/trial6.png,,,0,16,redHorizontal,a,55,31,m,2021-02-27_14h51.49.001,exp11,2020.2.6,Win32,60,IwAR3U2KXFL4e6znQL8uZDgaRxrmDNiX3z1ZTYjhIYF3jv_zCpSIZzwMDuWy4,,,,,,,,,,,
,,,,,,,,,,,,,,p,1,0.661885,space,0.282905,0,51,51,53,1,9_dist_red/trial4.png,,,1,9,redHorizontal,p,55,31,m,2021-02-27_14h51.49.001,exp11,2020.2.6,Win32,60,IwAR3U2KXFL4e6znQL8uZDgaRxrmDNiX3z1ZTYjhIYF3jv_zCpSIZzwMDuWy4,,,,,,,,,,,
,,,,,,,,,,,,,,p,1,0.509025,space,0.31939,0,52,52,57,1,9_dist_red/trial8.png,,,1,9,redHorizontal,p,55,31,m,2021-02-27_14h51.49.001,exp11,2020.2.6,Win32,60,IwAR3U2KXFL4e6znQL8uZDgaRxrmDNiX3z1ZTYjhIYF3jv_zCpSIZzwMDuWy4,,,,,,,,,,,
,,,,,,,,,,,,,,p,1,0.593725,space,0.26116,0,53,53,16,1,0_dist_red/trial17.png,,,1,0,redHorizontal,p,55,31,m,2021-02-27_14h51.49.001,exp11,2020.2.6,Win32,60,IwAR3U2KXFL4e6znQL8uZDgaRxrmDNiX3z1ZTYjhIYF3jv_zCpSIZzwMDuWy4,,,,,,,,,,,
,,,,,,,,,,,,,,a,1,0.656995,space,0.23725,0,54,54,197,1,0_targ_16_dist_red/trial23.png,,,0,16,redHorizontal,a,55,31,m,2021-02-27_14h51.49.001,exp11,2020.2.6,Win32,60,IwAR3U2KXFL4e6znQL8uZDgaRxrmDNiX3z1ZTYjhIYF3jv_zCpSIZzwMDuWy4,,,,,,,,,,,
,,,,,,,,,,,,,,p,1,0.653225,space,0.239645,0,55,55,3,1,0_dist_red/trial4.png,,,1,0,redHorizontal,p,55,31,m,2021-02-27_14h51.49.001,exp11,2020.2.6,Win32,60,IwAR3U2KXFL4e6znQL8uZDgaRxrmDNiX3z1ZTYjhIYF3jv_zCpSIZzwMDuWy4,,,,,,,,,,,
,,,,,,,,,,,,,,p,0,0.71205,space,0.158395,0,56,56,192,1,0_targ_16_dist_red/trial18.png,,,0,16,redHorizontal,a,55,31,m,2021-02-27_14h51.49.001,exp11,2020.2.6,Win32,60,IwAR3U2KXFL4e6znQL8uZDgaRxrmDNiX3z1ZTYjhIYF3jv_zCpSIZzwMDuWy4,,,,,,,,,,,
,,,,,,,,,,,,,,a,1,1.239325,space,0.28792,0,57,57,181,1,0_targ_16_dist_red/trial7.png,,,0,16,redHorizontal,a,55,31,m,2021-02-27_14h51.49.001,exp11,2020.2.6,Win32,60,IwAR3U2KXFL4e6znQL8uZDgaRxrmDNiX3z1ZTYjhIYF3jv_zCpSIZzwMDuWy4,,,,,,,,,,,
,,,,,,,,,,,,,,a,1,0.614905,space,0.33951,0,58,58,185,1,0_targ_16_dist_red/trial11.png,,,0,16,redHorizontal,a,55,31,m,2021-02-27_14h51.49.001,exp11,2020.2.6,Win32,60,IwAR3U2KXFL4e6znQL8uZDgaRxrmDNiX3z1ZTYjhIYF3jv_zCpSIZzwMDuWy4,,,,,,,,,,,
,,,,,,,,,,,,,,a,1,0.7083,space,0.2875,0,59,59,135,1,0_targ_4_dist_red/trial11.png,,,0,4,redHorizontal,a,55,31,m,2021-02-27_14h51.49.001,exp11,2020.2.6,Win32,60,IwAR3U2KXFL4e6znQL8uZDgaRxrmDNiX3z1ZTYjhIYF3jv_zCpSIZzwMDuWy4,,,,,,,,,,,
,,,,,,,,,,,,,,p,1,0.62667,space,0.293365,0,60,60,40,1,3_dist_red/trial16.png,,,1,3,redHorizontal,p,55,31,m,2021-02-27_14h51.49.001,exp11,2020.2.6,Win32,60,IwAR3U2KXFL4e6znQL8uZDgaRxrmDNiX3z1ZTYjhIYF3jv_zCpSIZzwMDuWy4,,,,,,,,,,,
,,,,,,,,,,,,,,p,1,0.72355,space,0.321955,0,61,61,1,1,0_dist_red/trial2.png,,,1,0,redHorizontal,p,55,31,m,2021-02-27_14h51.49.001,exp11,2020.2.6,Win32,60,IwAR3U2KXFL4e6znQL8uZDgaRxrmDNiX3z1ZTYjhIYF3jv_zCpSIZzwMDuWy4,,,,,,,,,,,
,,,,,,,,,,,,,,a,1,0.68871,space,0.287185,0,62,62,123,1,0_targ_1_dist_red/trial24.png,,,0,1,redHorizontal,a,55,31,m,2021-02-27_14h51.49.001,exp11,2020.2.6,Win32,60,IwAR3U2KXFL4e6znQL8uZDgaRxrmDNiX3z1ZTYjhIYF3jv_zCpSIZzwMDuWy4,,,,,,,,,,,
,,,,,,,,,,,,,,a,1,0.794515,space,0.27025,0,63,63,102,1,0_targ_1_dist_red/trial3.png,,,0,1,redHorizontal,a,55,31,m,2021-02-27_14h51.49.001,exp11,2020.2.6,Win32,60,IwAR3U2KXFL4e6znQL8uZDgaRxrmDNiX3z1ZTYjhIYF3jv_zCpSIZzwMDuWy4,,,,,,,,,,,
,,,,,,,,,,,,,,a,1,0.618995,space,0.23613,0,64,64,140,1,0_targ_4_dist_red/trial6.png,,,0,4,redHorizontal,a,55,31,m,2021-02-27_14h51.49.001,exp11,2020.2.6,Win32,60,IwAR3U2KXFL4e6znQL8uZDgaRxrmDNiX3z1ZTYjhIYF3jv_zCpSIZzwMDuWy4,,,,,,,,,,,
,,,,,,,,,,,,,,p,1,0.62777,space,0.30711,0,65,65,58,1,9_dist_red/trial9.png,,,1,9,redHorizontal,p,55,31,m,2021-02-27_14h51.49.001,exp11,2020.2.6,Win32,60,IwAR3U2KXFL4e6znQL8uZDgaRxrmDNiX3z1ZTYjhIYF3jv_zCpSIZzwMDuWy4,,,,,,,,,,,
,,,,,,,,,,,,,,p,1,0.521025,space,0.30473,0,66,66,19,1,0_dist_red/trial20.png,,,1,0,redHorizontal,p,55,31,m,2021-02-27_14h51.49.001,exp11,2020.2.6,Win32,60,IwAR3U2KXFL4e6znQL8uZDgaRxrmDNiX3z1ZTYjhIYF3jv_zCpSIZzwMDuWy4,,,,,,,,,,,
,,,,,,,,,,,,,,a,1,0.634785,space,0.253525,0,67,67,189,1,0_targ_16_dist_red/trial15.png,,,0,16,redHorizontal,a,55,31,m,2021-02-27_14h51.49.001,exp11,2020.2.6,Win32,60,IwAR3U2KXFL4e6znQL8uZDgaRxrmDNiX3z1ZTYjhIYF3jv_zCpSIZzwMDuWy4,,,,,,,,,,,
,,,,,,,,,,,,,,p,1,0.683785,space,0.22036,0,68,68,48,1,3_dist_red/trial24.png,,,1,3,redHorizontal,p,55,31,m,2021-02-27_14h51.49.001,exp11,2020.2.6,Win32,60,IwAR3U2KXFL4e6znQL8uZDgaRxrmDNiX3z1ZTYjhIYF3jv_zCpSIZzwMDuWy4,,,,,,,,,,,
,,,,,,,,,,,,,,a,1,0.695275,space,0.255375,0,69,69,162,1,0_targ_10_dist_red/trial13.png,,,0,10,redHorizontal,a,55,31,m,2021-02-27_14h51.49.001,exp11,2020.2.6,Win32,60,IwAR3U2KXFL4e6znQL8uZDgaRxrmDNiX3z1ZTYjhIYF3jv_zCpSIZzwMDuWy4,,,,,,,,,,,
,,,,,,,,,,,,,,a,1,0.71016,space,0.159455,0,70,70,148,1,0_targ_4_dist_red/trial24.png,,,0,4,redHorizontal,a,55,31,m,2021-02-27_14h51.49.001,exp11,2020.2.6,Win32,60,IwAR3U2KXFL4e6znQL8uZDgaRxrmDNiX3z1ZTYjhIYF3jv_zCpSIZzwMDuWy4,,,,,,,,,,,
,,,,,,,,,,,,,,a,0,0.699885,space,0.171905,0,71,71,69,1,9_dist_red/trial20.png,,,1,9,redHorizontal,p,55,31,m,2021-02-27_14h51.49.001,exp11,2020.2.6,Win32,60,IwAR3U2KXFL4e6znQL8uZDgaRxrmDNiX3z1ZTYjhIYF3jv_zCpSIZzwMDuWy4,,,,,,,,,,,
,,,,,,,,,,,,,,p,1,0.89334,space,0.281545,0,72,72,92,1,15_dist_red/trial18.png,,,1,15,redHorizontal,p,55,31,m,2021-02-27_14h51.49.001,exp11,2020.2.6,Win32,60,IwAR3U2KXFL4e6znQL8uZDgaRxrmDNiX3z1ZTYjhIYF3jv_zCpSIZzwMDuWy4,,,,,,,,,,,
,,,,,,,,,,,,,,a,1,0.80896,space,0.295275,0,73,73,186,1,0_targ_16_dist_red/trial12.png,,,0,16,redHorizontal,a,55,31,m,2021-02-27_14h51.49.001,exp11,2020.2.6,Win32,60,IwAR3U2KXFL4e6znQL8uZDgaRxrmDNiX3z1ZTYjhIYF3jv_zCpSIZzwMDuWy4,,,,,,,,,,,
,,,,,,,,,,,,,,p,1,1.08355,space,0.301445,0,74,74,94,1,15_dist_red/trial20.png,,,1,15,redHorizontal,p,55,31,m,2021-02-27_14h51.49.001,exp11,2020.2.6,Win32,60,IwAR3U2KXFL4e6znQL8uZDgaRxrmDNiX3z1ZTYjhIYF3jv_zCpSIZzwMDuWy4,,,,,,,,,,,
,,,,,,,,,,,,,,p,1,0.577565,space,0.53545,0,75,75,70,1,9_dist_red/trial21.png,,,1,9,redHorizontal,p,55,31,m,2021-02-27_14h51.49.001,exp11,2020.2.6,Win32,60,IwAR3U2KXFL4e6znQL8uZDgaRxrmDNiX3z1ZTYjhIYF3jv_zCpSIZzwMDuWy4,,,,,,,,,,,
,,,,,,,,,,,,,,a,1,0.8482,space,0.33214,0,76,76,131,1,0_targ_4_dist_red/trial7.png,,,0,4,redHorizontal,a,55,31,m,2021-02-27_14h51.49.001,exp11,2020.2.6,Win32,60,IwAR3U2KXFL4e6znQL8uZDgaRxrmDNiX3z1ZTYjhIYF3jv_zCpSIZzwMDuWy4,,,,,,,,,,,
,,,,,,,,,,,,,,p,1,0.938375,space,0.211065,0,77,77,46,1,3_dist_red/trial22.png,,,1,3,redHorizontal,p,55,31,m,2021-02-27_14h51.49.001,exp11,2020.2.6,Win32,60,IwAR3U2KXFL4e6znQL8uZDgaRxrmDNiX3z1ZTYjhIYF3jv_zCpSIZzwMDuWy4,,,,,,,,,,,
,,,,,,,,,,,,,,a,1,0.99112,space,0.31855,0,78,78,182,1,0_targ_16_dist_red/trial8.png,,,0,16,redHorizontal,a,55,31,m,2021-02-27_14h51.49.001,exp11,2020.2.6,Win32,60,IwAR3U2KXFL4e6znQL8uZDgaRxrmDNiX3z1ZTYjhIYF3jv_zCpSIZzwMDuWy4,,,,,,,,,,,
,,,,,,,,,,,,,,a,1,0.636965,space,0.3026,0,79,79,138,1,0_targ_4_dist_red/trial14.png,,,0,4,redHorizontal,a,55,31,m,2021-02-27_14h51.49.001,exp11,2020.2.6,Win32,60,IwAR3U2KXFL4e6znQL8uZDgaRxrmDNiX3z1ZTYjhIYF3jv_zCpSIZzwMDuWy4,,,,,,,,,,,
,,,,,,,,,,,,,,a,1,0.571655,space,0.26058,0,80,80,137,1,0_targ_4_dist_red/trial13.png,,,0,4,redHorizontal,a,55,31,m,2021-02-27_14h51.49.001,exp11,2020.2.6,Win32,60,IwAR3U2KXFL4e6znQL8uZDgaRxrmDNiX3z1ZTYjhIYF3jv_zCpSIZzwMDuWy4,,,,,,,,,,,
,,,,,,,,,,,,,,p,1,0.671885,space,0.321475,0,81,81,51,1,9_dist_red/trial2.png,,,1,9,redHorizontal,p,55,31,m,2021-02-27_14h51.49.001,exp11,2020.2.6,Win32,60,IwAR3U2KXFL4e6znQL8uZDgaRxrmDNiX3z1ZTYjhIYF3jv_zCpSIZzwMDuWy4,,,,,,,,,,,
,,,,,,,,,,,,,,a,1,0.639165,space,0.27917,0,82,82,107,1,0_targ_1_dist_red/trial8.png,,,0,1,redHorizontal,a,55,31,m,2021-02-27_14h51.49.001,exp11,2020.2.6,Win32,60,IwAR3U2KXFL4e6znQL8uZDgaRxrmDNiX3z1ZTYjhIYF3jv_zCpSIZzwMDuWy4,,,,,,,,,,,
,,,,,,,,,,,,,,a,0,0.699145,space,0.402855,0,83,83,23,1,0_dist_red/trial24.png,,,1,0,redHorizontal,p,55,31,m,2021-02-27_14h51.49.001,exp11,2020.2.6,Win32,60,IwAR3U2KXFL4e6znQL8uZDgaRxrmDNiX3z1ZTYjhIYF3jv_zCpSIZzwMDuWy4,,,,,,,,,,,
,,,,,,,,,,,,,,p,1,0.496985,space,0.30581,0,84,84,15,1,0_dist_red/trial16.png,,,1,0,redHorizontal,p,55,31,m,2021-02-27_14h51.49.001,exp11,2020.2.6,Win32,60,IwAR3U2KXFL4e6znQL8uZDgaRxrmDNiX3z1ZTYjhIYF3jv_zCpSIZzwMDuWy4,,,,,,,,,,,
,,,,,,,,,,,,,,p,1,0.565405,space,0.187855,0,85,85,9,1,0_dist_red/trial10.png,,,1,0,redHorizontal,p,55,31,m,2021-02-27_14h51.49.001,exp11,2020.2.6,Win32,60,IwAR3U2KXFL4e6znQL8uZDgaRxrmDNiX3z1ZTYjhIYF3jv_zCpSIZzwMDuWy4,,,,,,,,,,,
,,,,,,,,,,,,,,a,1,0.633165,space,0.24867,0,86,86,114,1,0_targ_1_dist_red/trial15.png,,,0,1,redHorizontal,a,55,31,m,2021-02-27_14h51.49.001,exp11,2020.2.6,Win32,60,IwAR3U2KXFL4e6znQL8uZDgaRxrmDNiX3z1ZTYjhIYF3jv_zCpSIZzwMDuWy4,,,,,,,,,,,
,,,,,,,,,,,,,,p,0,0.711455,space,0.11949,0,87,87,142,1,0_targ_4_dist_red/trial18.png,,,0,4,redHorizontal,a,55,31,m,2021-02-27_14h51.49.001,exp11,2020.2.6,Win32,60,IwAR3U2KXFL4e6znQL8uZDgaRxrmDNiX3z1ZTYjhIYF3jv_zCpSIZzwMDuWy4,,,,,,,,,,,
,,,,,,,,,,,,,,a,0,0.463835,space,0.117825,0,88,88,82,1,15_dist_red/trial8.png,,,1,15,redHorizontal,p,55,31,m,2021-02-27_14h51.49.001,exp11,2020.2.6,Win32,60,IwAR3U2KXFL4e6znQL8uZDgaRxrmDNiX3z1ZTYjhIYF3jv_zCpSIZzwMDuWy4,,,,,,,,,,,
,,,,,,,,,,,,,,p,1,0.674255,space,0.253605,0,89,89,21,1,0_dist_red/trial22.png,,,1,0,redHorizontal,p,55,31,m,2021-02-27_14h51.49.001,exp11,2020.2.6,Win32,60,IwAR3U2KXFL4e6znQL8uZDgaRxrmDNiX3z1ZTYjhIYF3jv_zCpSIZzwMDuWy4,,,,,,,,,,,
,,,,,,,,,,,,,,p,1,0.565745,space,0.21223,0,90,90,33,1,3_dist_red/trial9.png,,,1,3,redHorizontal,p,55,31,m,2021-02-27_14h51.49.001,exp11,2020.2.6,Win32,60,IwAR3U2KXFL4e6znQL8uZDgaRxrmDNiX3z1ZTYjhIYF3jv_zCpSIZzwMDuWy4,,,,,,,,,,,
,,,,,,,,,,,,,,a,1,0.601395,space,0.2203,0,91,91,165,1,0_targ_10_dist_red/trial16.png,,,0,10,redHorizontal,a,55,31,m,2021-02-27_14h51.49.001,exp11,2020.2.6,Win32,60,IwAR3U2KXFL4e6znQL8uZDgaRxrmDNiX3z1ZTYjhIYF3jv_zCpSIZzwMDuWy4,,,,,,,,,,,
,,,,,,,,,,,,,,a,1,0.787675,space,0.254855,0,92,92,183,1,0_targ_16_dist_red/trial9.png,,,0,16,redHorizontal,a,55,31,m,2021-02-27_14h51.49.001,exp11,2020.2.6,Win32,60,IwAR3U2KXFL4e6znQL8uZDgaRxrmDNiX3z1ZTYjhIYF3jv_zCpSIZzwMDuWy4,,,,,,,,,,,
,,,,,,,,,,,,,,p,1,0.617705,space,0.21165,0,93,93,64,1,9_dist_red/trial15.png,,,1,9,redHorizontal,p,55,31,m,2021-02-27_14h51.49.001,exp11,2020.2.6,Win32,60,IwAR3U2KXFL4e6znQL8uZDgaRxrmDNiX3z1ZTYjhIYF3jv_zCpSIZzwMDuWy4,,,,,,,,,,,
,,,,,,,,,,,,,,p,1,0.627065,space,0.202525,0,94,94,28,1,3_dist_red/trial4.png,,,1,3,redHorizontal,p,55,31,m,2021-02-27_14h51.49.001,exp11,2020.2.6,Win32,60,IwAR3U2KXFL4e6znQL8uZDgaRxrmDNiX3z1ZTYjhIYF3jv_zCpSIZzwMDuWy4,,,,,,,,,,,
,,,,,,,,,,,,,,p,1,0.714435,space,0.200035,0,95,95,78,1,15_dist_red/trial4.png,,,1,15,redHorizontal,p,55,31,m,2021-02-27_14h51.49.001,exp11,2020.2.6,Win32,60,IwAR3U2KXFL4e6znQL8uZDgaRxrmDNiX3z1ZTYjhIYF3jv_zCpSIZzwMDuWy4,,,,,,,,,,,
,,,,,,,,,,,,,,p,1,0.722705,space,0.199505,0,96,96,76,1,15_dist_red/trial2.png,,,1,15,redHorizontal,p,55,31,m,2021-02-27_14h51.49.001,exp11,2020.2.6,Win32,60,IwAR3U2KXFL4e6znQL8uZDgaRxrmDNiX3z1ZTYjhIYF3jv_zCpSIZzwMDuWy4,,,,,,,,,,,
,,,,,,,,,,,,,,p,1,0.64584,space,0.27371,0,97,97,73,1,9_dist_red/trial24.png,,,1,9,redHorizontal,p,55,31,m,2021-02-27_14h51.49.001,exp11,2020.2.6,Win32,60,IwAR3U2KXFL4e6znQL8uZDgaRxrmDNiX3z1ZTYjhIYF3jv_zCpSIZzwMDuWy4,,,,,,,,,,,
,,,,,,,,,,,,,,a,1,0.639155,space,0.32381,0,98,98,134,1,0_targ_4_dist_red/trial10.png,,,0,4,redHorizontal,a,55,31,m,2021-02-27_14h51.49.001,exp11,2020.2.6,Win32,60,IwAR3U2KXFL4e6znQL8uZDgaRxrmDNiX3z1ZTYjhIYF3jv_zCpSIZzwMDuWy4,,,,,,,,,,,
,,,,,,,,,,,,,,p,1,0.696055,space,0.22482,0,99,99,77,1,15_dist_red/trial3.png,,,1,15,redHorizontal,p,55,31,m,2021-02-27_14h51.49.001,exp11,2020.2.6,Win32,60,IwAR3U2KXFL4e6znQL8uZDgaRxrmDNiX3z1ZTYjhIYF3jv_zCpSIZzwMDuWy4,,,,,,,,,,,
,,,,,,,,,,,,,,a,1,0.780525,space,0.25195,0,100,100,101,1,0_targ_1_dist_red/trial2.png,,,0,1,redHorizontal,a,55,31,m,2021-02-27_14h51.49.001,exp11,2020.2.6,Win32,60,IwAR3U2KXFL4e6znQL8uZDgaRxrmDNiX3z1ZTYjhIYF3jv_zCpSIZzwMDuWy4,,,,,,,,,,,
,,,,,,,,,,,,,,p,1,0.61333,space,0.218125,0,101,101,4,1,0_dist_red/trial5.png,,,1,0,redHorizontal,p,55,31,m,2021-02-27_14h51.49.001,exp11,2020.2.6,Win32,60,IwAR3U2KXFL4e6znQL8uZDgaRxrmDNiX3z1ZTYjhIYF3jv_zCpSIZzwMDuWy4,,,,,,,,,,,
,,,,,,,,,,,,,,p,1,0.63223,space,0.29085,0,102,102,31,1,3_dist_red/trial7.png,,,1,3,redHorizontal,p,55,31,m,2021-02-27_14h51.49.001,exp11,2020.2.6,Win32,60,IwAR3U2KXFL4e6znQL8uZDgaRxrmDNiX3z1ZTYjhIYF3jv_zCpSIZzwMDuWy4,,,,,,,,,,,
,,,,,,,,,,,,,,a,1,0.62434,space,0.317855,0,103,103,163,1,0_targ_10_dist_red/trial14.png,,,0,10,redHorizontal,a,55,31,m,2021-02-27_14h51.49.001,exp11,2020.2.6,Win32,60,IwAR3U2KXFL4e6znQL8uZDgaRxrmDNiX3z1ZTYjhIYF3jv_zCpSIZzwMDuWy4,,,,,,,,,,,
,,,,,,,,,,,,,,p,1,0.82017,space,0.320275,0,104,104,39,1,3_dist_red/trial15.png,,,1,3,redHorizontal,p,55,31,m,2021-02-27_14h51.49.001,exp11,2020.2.6,Win32,60,IwAR3U2KXFL4e6znQL8uZDgaRxrmDNiX3z1ZTYjhIYF3jv_zCpSIZzwMDuWy4,,,,,,,,,,,
,,,,,,,,,,,,,,p,1,0.57038,space,0.27737,0,105,105,12,1,0_dist_red/trial13.png,,,1,0,redHorizontal,p,55,31,m,2021-02-27_14h51.49.001,exp11,2020.2.6,Win32,60,IwAR3U2KXFL4e6znQL8uZDgaRxrmDNiX3z1ZTYjhIYF3jv_zCpSIZzwMDuWy4,,,,,,,,,,,
,,,,,,,,,,,,,,a,1,0.707685,space,0.262015,0,106,106,155,1,0_targ_10_dist_red/trial6.png,,,0,10,redHorizontal,a,55,31,m,2021-02-27_14h51.49.001,exp11,2020.2.6,Win32,60,IwAR3U2KXFL4e6znQL8uZDgaRxrmDNiX3z1ZTYjhIYF3jv_zCpSIZzwMDuWy4,,,,,,,,,,,
,,,,,,,,,,,,,,p,1,0.6896,space,0.25782,0,107,107,89,1,15_dist_red/trial15.png,,,1,15,redHorizontal,p,55,31,m,2021-02-27_14h51.49.001,exp11,2020.2.6,Win32,60,IwAR3U2KXFL4e6znQL8uZDgaRxrmDNiX3z1ZTYjhIYF3jv_zCpSIZzwMDuWy4,,,,,,,,,,,
,,,,,,,,,,,,,,a,1,0.806405,space,0.30495,0,108,108,126,1,0_targ_4_dist_red/trial2.png,,,0,4,redHorizontal,a,55,31,m,2021-02-27_14h51.49.001,exp11,2020.2.6,Win32,60,IwAR3U2KXFL4e6znQL8uZDgaRxrmDNiX3z1ZTYjhIYF3jv_zCpSIZzwMDuWy4,,,,,,,,,,,
,,,,,,,,,,,,,,p,1,0.855015,space,0.31654,0,109,109,79,1,15_dist_red/trial5.png,,,1,15,redHorizontal,p,55,31,m,2021-02-27_14h51.49.001,exp11,2020.2.6,Win32,60,IwAR3U2KXFL4e6znQL8uZDgaRxrmDNiX3z1ZTYjhIYF3jv_zCpSIZzwMDuWy4,,,,,,,,,,,
,,,,,,,,,,,,,,p,1,0.572525,space,0.29334,0,110,110,54,1,9_dist_red/trial5.png,,,1,9,redHorizontal,p,55,31,m,2021-02-27_14h51.49.001,exp11,2020.2.6,Win32,60,IwAR3U2KXFL4e6znQL8uZDgaRxrmDNiX3z1ZTYjhIYF3jv_zCpSIZzwMDuWy4,,,,,,,,,,,
,,,,,,,,,,,,,,p,1,0.543075,space,0.308815,0,111,111,29,1,3_dist_red/trial5.png,,,1,3,redHorizontal,p,55,31,m,2021-02-27_14h51.49.001,exp11,2020.2.6,Win32,60,IwAR3U2KXFL4e6znQL8uZDgaRxrmDNiX3z1ZTYjhIYF3jv_zCpSIZzwMDuWy4,,,,,,,,,,,
,,,,,,,,,,,,,,a,1,0.54673,space,0.282635,0,112,112,145,1,0_targ_4_dist_red/trial21.png,,,0,4,redHorizontal,a,55,31,m,2021-02-27_14h51.49.001,exp11,2020.2.6,Win32,60,IwAR3U2KXFL4e6znQL8uZDgaRxrmDNiX3z1ZTYjhIYF3jv_zCpSIZzwMDuWy4,,,,,,,,,,,
,,,,,,,,,,,,,,p,1,0.950655,space,0.223195,0,113,113,98,1,15_dist_red/trial24.png,,,1,15,redHorizontal,p,55,31,m,2021-02-27_14h51.49.001,exp11,2020.2.6,Win32,60,IwAR3U2KXFL4e6znQL8uZDgaRxrmDNiX3z1ZTYjhIYF3jv_zCpSIZzwMDuWy4,,,,,,,,,,,
,,,,,,,,,,,,,,p,1,0.67038,space,0.27193,0,114,114,81,1,15_dist_red/trial7.png,,,1,15,redHorizontal,p,55,31,m,2021-02-27_14h51.49.001,exp11,2020.2.6,Win32,60,IwAR3U2KXFL4e6znQL8uZDgaRxrmDNiX3z1ZTYjhIYF3jv_zCpSIZzwMDuWy4,,,,,,,,,,,
,,,,,,,,,,,,,,p,1,0.60102,space,0.2856,0,115,115,5,1,0_dist_red/trial6.png,,,1,0,redHorizontal,p,55,31,m,2021-02-27_14h51.49.001,exp11,2020.2.6,Win32,60,IwAR3U2KXFL4e6znQL8uZDgaRxrmDNiX3z1ZTYjhIYF3jv_zCpSIZzwMDuWy4,,,,,,,,,,,
,,,,,,,,,,,,,,p,1,0.50125,space,0.22487,0,116,116,7,1,0_dist_red/trial8.png,,,1,0,redHorizontal,p,55,31,m,2021-02-27_14h51.49.001,exp11,2020.2.6,Win32,60,IwAR3U2KXFL4e6znQL8uZDgaRxrmDNiX3z1ZTYjhIYF3jv_zCpSIZzwMDuWy4,,,,,,,,,,,
,,,,,,,,,,,,,,a,0,0.710715,space,0.349575,0,117,117,45,1,3_dist_red/trial21.png,,,1,3,redHorizontal,p,55,31,m,2021-02-27_14h51.49.001,exp11,2020.2.6,Win32,60,IwAR3U2KXFL4e6znQL8uZDgaRxrmDNiX3z1ZTYjhIYF3jv_zCpSIZzwMDuWy4,,,,,,,,,,,
,,,,,,,,,,,,,,p,1,0.864835,space,0.24518,0,118,118,37,1,3_dist_red/trial13.png,,,1,3,redHorizontal,p,55,31,m,2021-02-27_14h51.49.001,exp11,2020.2.6,Win32,60,IwAR3U2KXFL4e6znQL8uZDgaRxrmDNiX3z1ZTYjhIYF3jv_zCpSIZzwMDuWy4,,,,,,,,,,,
,,,,,,,,,,,,,,a,1,0.64763,space,0.228245,0,119,119,110,1,0_targ_1_dist_red/trial11.png,,,0,1,redHorizontal,a,55,31,m,2021-02-27_14h51.49.001,exp11,2020.2.6,Win32,60,IwAR3U2KXFL4e6znQL8uZDgaRxrmDNiX3z1ZTYjhIYF3jv_zCpSIZzwMDuWy4,,,,,,,,,,,
,,,,,,,,,,,,,,a,1,0.686615,space,0.25202,0,120,120,146,1,0_targ_4_dist_red/trial22.png,,,0,4,redHorizontal,a,55,31,m,2021-02-27_14h51.49.001,exp11,2020.2.6,Win32,60,IwAR3U2KXFL4e6znQL8uZDgaRxrmDNiX3z1ZTYjhIYF3jv_zCpSIZzwMDuWy4,,,,,,,,,,,
,,,,,,,,,,,,,,a,1,0.61537,space,0.18685,0,121,121,100,1,0_targ_1_dist_red/trial1.png,,,0,1,redHorizontal,a,55,31,m,2021-02-27_14h51.49.001,exp11,2020.2.6,Win32,60,IwAR3U2KXFL4e6znQL8uZDgaRxrmDNiX3z1ZTYjhIYF3jv_zCpSIZzwMDuWy4,,,,,,,,,,,
,,,,,,,,,,,,,,p,1,0.58308,space,0.22261,0,122,122,47,1,3_dist_red/trial23.png,,,1,3,redHorizontal,p,55,31,m,2021-02-27_14h51.49.001,exp11,2020.2.6,Win32,60,IwAR3U2KXFL4e6znQL8uZDgaRxrmDNiX3z1ZTYjhIYF3jv_zCpSIZzwMDuWy4,,,,,,,,,,,
,,,,,,,,,,,,,,a,1,0.891335,space,0.245535,0,123,123,157,1,0_targ_10_dist_red/trial8.png,,,0,10,redHorizontal,a,55,31,m,2021-02-27_14h51.49.001,exp11,2020.2.6,Win32,60,IwAR3U2KXFL4e6znQL8uZDgaRxrmDNiX3z1ZTYjhIYF3jv_zCpSIZzwMDuWy4,,,,,,,,,,,
,,,,,,,,,,,,,,p,1,0.88401,space,0.2393,0,124,124,86,1,15_dist_red/trial12.png,,,1,15,redHorizontal,p,55,31,m,2021-02-27_14h51.49.001,exp11,2020.2.6,Win32,60,IwAR3U2KXFL4e6znQL8uZDgaRxrmDNiX3z1ZTYjhIYF3jv_zCpSIZzwMDuWy4,,,,,,,,,,,
,,,,,,,,,,,,,,p,1,0.51725,space,0.30149,0,125,125,60,1,9_dist_red/trial11.png,,,1,9,redHorizontal,p,55,31,m,2021-02-27_14h51.49.001,exp11,2020.2.6,Win32,60,IwAR3U2KXFL4e6znQL8uZDgaRxrmDNiX3z1ZTYjhIYF3jv_zCpSIZzwMDuWy4,,,,,,,,,,,
,,,,,,,,,,,,,,a,1,0.65709,space,0.224035,0,126,126,158,1,0_targ_10_dist_red/trial9.png,,,0,10,redHorizontal,a,55,31,m,2021-02-27_14h51.49.001,exp11,2020.2.6,Win32,60,IwAR3U2KXFL4e6znQL8uZDgaRxrmDNiX3z1ZTYjhIYF3jv_zCpSIZzwMDuWy4,,,,,,,,,,,
,,,,,,,,,,,,,,a,1,0.62907,space,0.222325,0,127,127,133,1,0_targ_4_dist_red/trial9.png,,,0,4,redHorizontal,a,55,31,m,2021-02-27_14h51.49.001,exp11,2020.2.6,Win32,60,IwAR3U2KXFL4e6znQL8uZDgaRxrmDNiX3z1ZTYjhIYF3jv_zCpSIZzwMDuWy4,,,,,,,,,,,
,,,,,,,,,,,,,,a,1,0.84922,space,0.21779,0,128,128,170,1,0_targ_10_dist_red/trial21.png,,,0,10,redHorizontal,a,55,31,m,2021-02-27_14h51.49.001,exp11,2020.2.6,Win32,60,IwAR3U2KXFL4e6znQL8uZDgaRxrmDNiX3z1ZTYjhIYF3jv_zCpSIZzwMDuWy4,,,,,,,,,,,
,,,,,,,,,,,,,,a,1,0.70066,space,0.25266,0,129,129,115,1,0_targ_1_dist_red/trial6.png,,,0,1,redHorizontal,a,55,31,m,2021-02-27_14h51.49.001,exp11,2020.2.6,Win32,60,IwAR3U2KXFL4e6znQL8uZDgaRxrmDNiX3z1ZTYjhIYF3jv_zCpSIZzwMDuWy4,,,,,,,,,,,
,,,,,,,,,,,,,,a,1,0.67017,space,0.23633,0,130,130,159,1,0_targ_10_dist_red/trial10.png,,,0,10,redHorizontal,a,55,31,m,2021-02-27_14h51.49.001,exp11,2020.2.6,Win32,60,IwAR3U2KXFL4e6znQL8uZDgaRxrmDNiX3z1ZTYjhIYF3jv_zCpSIZzwMDuWy4,,,,,,,,,,,
,,,,,,,,,,,,,,p,1,0.70458,space,0.166205,0,131,131,6,1,0_dist_red/trial7.png,,,1,0,redHorizontal,p,55,31,m,2021-02-27_14h51.49.001,exp11,2020.2.6,Win32,60,IwAR3U2KXFL4e6znQL8uZDgaRxrmDNiX3z1ZTYjhIYF3jv_zCpSIZzwMDuWy4,,,,,,,,,,,
,,,,,,,,,,,,,,p,1,0.718295,space,0.224795,0,132,132,38,1,3_dist_red/trial14.png,,,1,3,redHorizontal,p,55,31,m,2021-02-27_14h51.49.001,exp11,2020.2.6,Win32,60,IwAR3U2KXFL4e6znQL8uZDgaRxrmDNiX3z1ZTYjhIYF3jv_zCpSIZzwMDuWy4,,,,,,,,,,,
,,,,,,,,,,,,,,p,1,0.68663,space,0.298795,0,133,133,8,1,0_dist_red/trial9.png,,,1,0,redHorizontal,p,55,31,m,2021-02-27_14h51.49.001,exp11,2020.2.6,Win32,60,IwAR3U2KXFL4e6znQL8uZDgaRxrmDNiX3z1ZTYjhIYF3jv_zCpSIZzwMDuWy4,,,,,,,,,,,
,,,,,,,,,,,,,,p,0,0.637965,space,1.67219,0,134,134,119,1,0_targ_1_dist_red/trial20.png,,,0,1,redHorizontal,a,55,31,m,2021-02-27_14h51.49.001,exp11,2020.2.6,Win32,60,IwAR3U2KXFL4e6znQL8uZDgaRxrmDNiX3z1ZTYjhIYF3jv_zCpSIZzwMDuWy4,,,,,,,,,,,
,,,,,,,,,,,,,,a,1,1.01861,space,0.2456,0,135,135,190,1,0_targ_16_dist_red/trial16.png,,,0,16,redHorizontal,a,55,31,m,2021-02-27_14h51.49.001,exp11,2020.2.6,Win32,60,IwAR3U2KXFL4e6znQL8uZDgaRxrmDNiX3z1ZTYjhIYF3jv_zCpSIZzwMDuWy4,,,,,,,,,,,
,,,,,,,,,,,,,,a,0,0.67456,space,0.13861,0,136,136,14,1,0_dist_red/trial15.png,,,1,0,redHorizontal,p,55,31,m,2021-02-27_14h51.49.001,exp11,2020.2.6,Win32,60,IwAR3U2KXFL4e6znQL8uZDgaRxrmDNiX3z1ZTYjhIYF3jv_zCpSIZzwMDuWy4,,,,,,,,,,,
,,,,,,,,,,,,,,a,1,1.210535,space,0.23162,0,137,137,195,1,0_targ_16_dist_red/trial21.png,,,0,16,redHorizontal,a,55,31,m,2021-02-27_14h51.49.001,exp11,2020.2.6,Win32,60,IwAR3U2KXFL4e6znQL8uZDgaRxrmDNiX3z1ZTYjhIYF3jv_zCpSIZzwMDuWy4,,,,,,,,,,,
,,,,,,,,,,,,,,a,1,0.618065,space,0.26489,0,138,138,156,1,0_targ_10_dist_red/trial7.png,,,0,10,redHorizontal,a,55,31,m,2021-02-27_14h51.49.001,exp11,2020.2.6,Win32,60,IwAR3U2KXFL4e6znQL8uZDgaRxrmDNiX3z1ZTYjhIYF3jv_zCpSIZzwMDuWy4,,,,,,,,,,,
,,,,,,,,,,,,,,p,1,0.74131,space,0.251695,0,139,139,95,1,15_dist_red/trial21.png,,,1,15,redHorizontal,p,55,31,m,2021-02-27_14h51.49.001,exp11,2020.2.6,Win32,60,IwAR3U2KXFL4e6znQL8uZDgaRxrmDNiX3z1ZTYjhIYF3jv_zCpSIZzwMDuWy4,,,,,,,,,,,
,,,,,,,,,,,,,,p,0,0.732925,space,0.185965,0,140,140,199,1,0_targ_16_dist_red/trial25.png,,,0,16,redHorizontal,a,55,31,m,2021-02-27_14h51.49.001,exp11,2020.2.6,Win32,60,IwAR3U2KXFL4e6znQL8uZDgaRxrmDNiX3z1ZTYjhIYF3jv_zCpSIZzwMDuWy4,,,,,,,,,,,
,,,,,,,,,,,,,,a,0,0.798,space,1.66736,0,141,141,83,1,15_dist_red/trial9.png,,,1,15,redHorizontal,p,55,31,m,2021-02-27_14h51.49.001,exp11,2020.2.6,Win32,60,IwAR3U2KXFL4e6znQL8uZDgaRxrmDNiX3z1ZTYjhIYF3jv_zCpSIZzwMDuWy4,,,,,,,,,,,
,,,,,,,,,,,,,,p,1,1.82996,space,0.31645,0,142,142,63,1,9_dist_red/trial14.png,,,1,9,redHorizontal,p,55,31,m,2021-02-27_14h51.49.001,exp11,2020.2.6,Win32,60,IwAR3U2KXFL4e6znQL8uZDgaRxrmDNiX3z1ZTYjhIYF3jv_zCpSIZzwMDuWy4,,,,,,,,,,,
,,,,,,,,,,,,,,a,1,0.750585,space,0.33546,0,143,143,167,1,0_targ_10_dist_red/trial18.png,,,0,10,redHorizontal,a,55,31,m,2021-02-27_14h51.49.001,exp11,2020.2.6,Win32,60,IwAR3U2KXFL4e6znQL8uZDgaRxrmDNiX3z1ZTYjhIYF3jv_zCpSIZzwMDuWy4,,,,,,,,,,,
,,,,,,,,,,,,,,a,1,0.59431,space,0.288265,0,144,144,108,1,0_targ_1_dist_red/trial9.png,,,0,1,redHorizontal,a,55,31,m,2021-02-27_14h51.49.001,exp11,2020.2.6,Win32,60,IwAR3U2KXFL4e6znQL8uZDgaRxrmDNiX3z1ZTYjhIYF3jv_zCpSIZzwMDuWy4,,,,,,,,,,,
,,,,,,,,,,,,,,a,1,0.552235,space,0.276395,0,145,145,128,1,0_targ_4_dist_red/trial4.png,,,0,4,redHorizontal,a,55,31,m,2021-02-27_14h51.49.001,exp11,2020.2.6,Win32,60,IwAR3U2KXFL4e6znQL8uZDgaRxrmDNiX3z1ZTYjhIYF3jv_zCpSIZzwMDuWy4,,,,,,,,,,,
,,,,,,,,,,,,,,a,1,0.572445,space,0.270875,0,146,146,171,1,0_targ_10_dist_red/trial22.png,,,0,10,redHorizontal,a,55,31,m,2021-02-27_14h51.49.001,exp11,2020.2.6,Win32,60,IwAR3U2KXFL4e6znQL8uZDgaRxrmDNiX3z1ZTYjhIYF3jv_zCpSIZzwMDuWy4,,,,,,,,,,,
,,,,,,,,,,,,,,a,1,0.6851,space,0.306235,0,147,147,188,1,0_targ_16_dist_red/trial14.png,,,0,16,redHorizontal,a,55,31,m,2021-02-27_14h51.49.001,exp11,2020.2.6,Win32,60,IwAR3U2KXFL4e6znQL8uZDgaRxrmDNiX3z1ZTYjhIYF3jv_zCpSIZzwMDuWy4,,,,,,,,,,,
,,,,,,,,,,,,,,a,1,0.64631,space,0.41433,0,148,148,166,1,0_targ_10_dist_red/trial17.png,,,0,10,redHorizontal,a,55,31,m,2021-02-27_14h51.49.001,exp11,2020.2.6,Win32,60,IwAR3U2KXFL4e6znQL8uZDgaRxrmDNiX3z1ZTYjhIYF3jv_zCpSIZzwMDuWy4,,,,,,,,,,,
,,,,,,,,,,,,,,a,1,0.55991,space,0.301635,0,149,149,149,1,0_targ_4_dist_red/trial25.png,,,0,4,redHorizontal,a,55,31,m,2021-02-27_14h51.49.001,exp11,2020.2.6,Win32,60,IwAR3U2KXFL4e6znQL8uZDgaRxrmDNiX3z1ZTYjhIYF3jv_zCpSIZzwMDuWy4,,,,,,,,,,,
,,,,,,,,,,,,,,a,1,0.66524,space,0.268315,0,150,150,178,1,0_targ_16_dist_red/trial4.png,,,0,16,redHorizontal,a,55,31,m,2021-02-27_14h51.49.001,exp11,2020.2.6,Win32,60,IwAR3U2KXFL4e6znQL8uZDgaRxrmDNiX3z1ZTYjhIYF3jv_zCpSIZzwMDuWy4,,,,,,,,,,,
,,,,,,,,,,,,,,a,1,0.540615,space,0.27087,0,151,151,143,1,0_targ_4_dist_red/trial19.png,,,0,4,redHorizontal,a,55,31,m,2021-02-27_14h51.49.001,exp11,2020.2.6,Win32,60,IwAR3U2KXFL4e6znQL8uZDgaRxrmDNiX3z1ZTYjhIYF3jv_zCpSIZzwMDuWy4,,,,,,,,,,,
,,,,,,,,,,,,,,p,1,0.60007,space,0.234975,0,152,152,32,1,3_dist_red/trial8.png,,,1,3,redHorizontal,p,55,31,m,2021-02-27_14h51.49.001,exp11,2020.2.6,Win32,60,IwAR3U2KXFL4e6znQL8uZDgaRxrmDNiX3z1ZTYjhIYF3jv_zCpSIZzwMDuWy4,,,,,,,,,,,
,,,,,,,,,,,,,,p,1,0.51918,space,0.28449,0,153,153,67,1,9_dist_red/trial18.png,,,1,9,redHorizontal,p,55,31,m,2021-02-27_14h51.49.001,exp11,2020.2.6,Win32,60,IwAR3U2KXFL4e6znQL8uZDgaRxrmDNiX3z1ZTYjhIYF3jv_zCpSIZzwMDuWy4,,,,,,,,,,,
,,,,,,,,,,,,,,p,1,0.641745,space,0.271045,0,154,154,65,1,9_dist_red/trial16.png,,,1,9,redHorizontal,p,55,31,m,2021-02-27_14h51.49.001,exp11,2020.2.6,Win32,60,IwAR3U2KXFL4e6znQL8uZDgaRxrmDNiX3z1ZTYjhIYF3jv_zCpSIZzwMDuWy4,,,,,,,,,,,
,,,,,,,,,,,,,,a,1,0.726965,space,0.27483,0,155,155,125,1,0_targ_4_dist_red/trial1.png,,,0,4,redHorizontal,a,55,31,m,2021-02-27_14h51.49.001,exp11,2020.2.6,Win32,60,IwAR3U2KXFL4e6znQL8uZDgaRxrmDNiX3z1ZTYjhIYF3jv_zCpSIZzwMDuWy4,,,,,,,,,,,
,,,,,,,,,,,,,,a,1,0.696735,space,0.284965,0,156,156,121,1,0_targ_1_dist_red/trial22.png,,,0,1,redHorizontal,a,55,31,m,2021-02-27_14h51.49.001,exp11,2020.2.6,Win32,60,IwAR3U2KXFL4e6znQL8uZDgaRxrmDNiX3z1ZTYjhIYF3jv_zCpSIZzwMDuWy4,,,,,,,,,,,
,,,,,,,,,,,,,,p,1,0.775925,space,0.235395,0,157,157,72,1,9_dist_red/trial23.png,,,1,9,redHorizontal,p,55,31,m,2021-02-27_14h51.49.001,exp11,2020.2.6,Win32,60,IwAR3U2KXFL4e6znQL8uZDgaRxrmDNiX3z1ZTYjhIYF3jv_zCpSIZzwMDuWy4,,,,,,,,,,,
,,,,,,,,,,,,,,p,1,0.662365,space,0.189425,0,158,158,96,1,15_dist_red/trial22.png,,,1,15,redHorizontal,p,55,31,m,2021-02-27_14h51.49.001,exp11,2020.2.6,Win32,60,IwAR3U2KXFL4e6znQL8uZDgaRxrmDNiX3z1ZTYjhIYF3jv_zCpSIZzwMDuWy4,,,,,,,,,,,
,,,,,,,,,,,,,,p,1,0.711845,space,0.26427,0,159,159,35,1,3_dist_red/trial11.png,,,1,3,redHorizontal,p,55,31,m,2021-02-27_14h51.49.001,exp11,2020.2.6,Win32,60,IwAR3U2KXFL4e6znQL8uZDgaRxrmDNiX3z1ZTYjhIYF3jv_zCpSIZzwMDuWy4,,,,,,,,,,,
,,,,,,,,,,,,,,p,1,0.6435,space,0.221215,0,160,160,61,1,9_dist_red/trial12.png,,,1,9,redHorizontal,p,55,31,m,2021-02-27_14h51.49.001,exp11,2020.2.6,Win32,60,IwAR3U2KXFL4e6znQL8uZDgaRxrmDNiX3z1ZTYjhIYF3jv_zCpSIZzwMDuWy4,,,,,,,,,,,
,,,,,,,,,,,,,,p,1,0.679635,space,0.26128,0,161,161,50,1,9_dist_red/trial1.png,,,1,9,redHorizontal,p,55,31,m,2021-02-27_14h51.49.001,exp11,2020.2.6,Win32,60,IwAR3U2KXFL4e6znQL8uZDgaRxrmDNiX3z1ZTYjhIYF3jv_zCpSIZzwMDuWy4,,,,,,,,,,,
,,,,,,,,,,,,,,a,1,0.635145,space,0.24711,0,162,162,132,1,0_targ_4_dist_red/trial8.png,,,0,4,redHorizontal,a,55,31,m,2021-02-27_14h51.49.001,exp11,2020.2.6,Win32,60,IwAR3U2KXFL4e6znQL8uZDgaRxrmDNiX3z1ZTYjhIYF3jv_zCpSIZzwMDuWy4,,,,,,,,,,,
,,,,,,,,,,,,,,p,1,0.64049,space,0.211885,0,163,163,13,1,0_dist_red/trial14.png,,,1,0,redHorizontal,p,55,31,m,2021-02-27_14h51.49.001,exp11,2020.2.6,Win32,60,IwAR3U2KXFL4e6znQL8uZDgaRxrmDNiX3z1ZTYjhIYF3jv_zCpSIZzwMDuWy4,,,,,,,,,,,
,,,,,,,,,,,,,,a,1,0.714535,space,0.27188,0,164,164,111,1,0_targ_1_dist_red/trial12.png,,,0,1,redHorizontal,a,55,31,m,2021-02-27_14h51.49.001,exp11,2020.2.6,Win32,60,IwAR3U2KXFL4e6znQL8uZDgaRxrmDNiX3z1ZTYjhIYF3jv_zCpSIZzwMDuWy4,,,,,,,,,,,
,,,,,,,,,,,,,,p,1,0.671005,space,0.16017,0,165,165,17,1,0_dist_red/trial18.png,,,1,0,redHorizontal,p,55,31,m,2021-02-27_14h51.49.001,exp11,2020.2.6,Win32,60,IwAR3U2KXFL4e6znQL8uZDgaRxrmDNiX3z1ZTYjhIYF3jv_zCpSIZzwMDuWy4,,,,,,,,,,,
,,,,,,,,,,,,,,p,1,0.823085,space,0.20264,0,166,166,68,1,9_dist_red/trial19.png,,,1,9,redHorizontal,p,55,31,m,2021-02-27_14h51.49.001,exp11,2020.2.6,Win32,60,IwAR3U2KXFL4e6znQL8uZDgaRxrmDNiX3z1ZTYjhIYF3jv_zCpSIZzwMDuWy4,,,,,,,,,,,
,,,,,,,,,,,,,,a,1,0.755945,space,0.249275,0,167,167,160,1,0_targ_10_dist_red/trial11.png,,,0,10,redHorizontal,a,55,31,m,2021-02-27_14h51.49.001,exp11,2020.2.6,Win32,60,IwAR3U2KXFL4e6znQL8uZDgaRxrmDNiX3z1ZTYjhIYF3jv_zCpSIZzwMDuWy4,,,,,,,,,,,
,,,,,,,,,,,,,,p,1,0.812555,space,0.19327,0,168,168,99,1,15_dist_red/trial25.png,,,1,15,redHorizontal,p,55,31,m,2021-02-27_14h51.49.001,exp11,2020.2.6,Win32,60,IwAR3U2KXFL4e6znQL8uZDgaRxrmDNiX3z1ZTYjhIYF3jv_zCpSIZzwMDuWy4,,,,,,,,,,,
,,,,,,,,,,,,,,p,1,0.62094,space,0.31836,0,169,169,11,1,0_dist_red/trial12.png,,,1,0,redHorizontal,p,55,31,m,2021-02-27_14h51.49.001,exp11,2020.2.6,Win32,60,IwAR3U2KXFL4e6znQL8uZDgaRxrmDNiX3z1ZTYjhIYF3jv_zCpSIZzwMDuWy4,,,,,,,,,,,
,,,,,,,,,,,,,,a,1,0.741545,space,0.351945,0,170,170,198,1,0_targ_16_dist_red/trial24.png,,,0,16,redHorizontal,a,55,31,m,2021-02-27_14h51.49.001,exp11,2020.2.6,Win32,60,IwAR3U2KXFL4e6znQL8uZDgaRxrmDNiX3z1ZTYjhIYF3jv_zCpSIZzwMDuWy4,,,,,,,,,,,
,,,,,,,,,,,,,,p,1,0.84211,space,0.22339,0,171,171,84,1,15_dist_red/trial10.png,,,1,15,redHorizontal,p,55,31,m,2021-02-27_14h51.49.001,exp11,2020.2.6,Win32,60,IwAR3U2KXFL4e6znQL8uZDgaRxrmDNiX3z1ZTYjhIYF3jv_zCpSIZzwMDuWy4,,,,,,,,,,,
,,,,,,,,,,,,,,a,1,0.757335,space,0.2575,0,172,172,113,1,0_targ_1_dist_red/trial14.png,,,0,1,redHorizontal,a,55,31,m,2021-02-27_14h51.49.001,exp11,2020.2.6,Win32,60,IwAR3U2KXFL4e6znQL8uZDgaRxrmDNiX3z1ZTYjhIYF3jv_zCpSIZzwMDuWy4,,,,,,,,,,,
,,,,,,,,,,,,,,a,1,0.716895,space,0.30184,0,173,173,153,1,0_targ_10_dist_red/trial4.png,,,0,10,redHorizontal,a,55,31,m,2021-02-27_14h51.49.001,exp11,2020.2.6,Win32,60,IwAR3U2KXFL4e6znQL8uZDgaRxrmDNiX3z1ZTYjhIYF3jv_zCpSIZzwMDuWy4,,,,,,,,,,,
,,,,,,,,,,,,,,a,1,0.61945,space,0.2778,0,174,174,144,1,0_targ_4_dist_red/trial20.png,,,0,4,redHorizontal,a,55,31,m,2021-02-27_14h51.49.001,exp11,2020.2.6,Win32,60,IwAR3U2KXFL4e6znQL8uZDgaRxrmDNiX3z1ZTYjhIYF3jv_zCpSIZzwMDuWy4,,,,,,,,,,,
,,,,,,,,,,,,,,a,1,0.804235,space,0.29908,0,175,175,124,1,0_targ_1_dist_red/trial25.png,,,0,1,redHorizontal,a,55,31,m,2021-02-27_14h51.49.001,exp11,2020.2.6,Win32,60,IwAR3U2KXFL4e6znQL8uZDgaRxrmDNiX3z1ZTYjhIYF3jv_zCpSIZzwMDuWy4,,,,,,,,,,,
,,,,,,,,,,,,,,p,1,0.58909,space,0.318235,0,176,176,24,1,0_dist_red/trial25.png,,,1,0,redHorizontal,p,55,31,m,2021-02-27_14h51.49.001,exp11,2020.2.6,Win32,60,IwAR3U2KXFL4e6znQL8uZDgaRxrmDNiX3z1ZTYjhIYF3jv_zCpSIZzwMDuWy4,,,,,,,,,,,
,,,,,,,,,,,,,,a,1,0.66974,space,0.251795,0,177,177,184,1,0_targ_16_dist_red/trial10.png,,,0,16,redHorizontal,a,55,31,m,2021-02-27_14h51.49.001,exp11,2020.2.6,Win32,60,IwAR3U2KXFL4e6znQL8uZDgaRxrmDNiX3z1ZTYjhIYF3jv_zCpSIZzwMDuWy4,,,,,,,,,,,
,,,,,,,,,,,,,,a,1,0.607475,space,0.25296,0,178,178,116,1,0_targ_1_dist_red/trial17.png,,,0,1,redHorizontal,a,55,31,m,2021-02-27_14h51.49.001,exp11,2020.2.6,Win32,60,IwAR3U2KXFL4e6znQL8uZDgaRxrmDNiX3z1ZTYjhIYF3jv_zCpSIZzwMDuWy4,,,,,,,,,,,
,,,,,,,,,,,,,,p,1,0.637875,space,0.208825,0,179,179,0,1,0_dist_red/trial1.png,,,1,0,redHorizontal,p,55,31,m,2021-02-27_14h51.49.001,exp11,2020.2.6,Win32,60,IwAR3U2KXFL4e6znQL8uZDgaRxrmDNiX3z1ZTYjhIYF3jv_zCpSIZzwMDuWy4,,,,,,,,,,,
,,,,,,,,,,,,,,p,1,0.82116,space,0.205385,0,180,180,49,1,3_dist_red/trial25.png,,,1,3,redHorizontal,p,55,31,m,2021-02-27_14h51.49.001,exp11,2020.2.6,Win32,60,IwAR3U2KXFL4e6znQL8uZDgaRxrmDNiX3z1ZTYjhIYF3jv_zCpSIZzwMDuWy4,,,,,,,,,,,
,,,,,,,,,,,,,,a,1,0.6925,space,0.285075,0,181,181,117,1,0_targ_1_dist_red/trial18.png,,,0,1,redHorizontal,a,55,31,m,2021-02-27_14h51.49.001,exp11,2020.2.6,Win32,60,IwAR3U2KXFL4e6znQL8uZDgaRxrmDNiX3z1ZTYjhIYF3jv_zCpSIZzwMDuWy4,,,,,,,,,,,
,,,,,,,,,,,,,,p,1,1.109105,space,0.2884,0,182,182,56,1,9_dist_red/trial7.png,,,1,9,redHorizontal,p,55,31,m,2021-02-27_14h51.49.001,exp11,2020.2.6,Win32,60,IwAR3U2KXFL4e6znQL8uZDgaRxrmDNiX3z1ZTYjhIYF3jv_zCpSIZzwMDuWy4,,,,,,,,,,,
,,,,,,,,,,,,,,a,1,0.700155,space,0.308375,0,183,183,109,1,0_targ_1_dist_red/trial10.png,,,0,1,redHorizontal,a,55,31,m,2021-02-27_14h51.49.001,exp11,2020.2.6,Win32,60,IwAR3U2KXFL4e6znQL8uZDgaRxrmDNiX3z1ZTYjhIYF3jv_zCpSIZzwMDuWy4,,,,,,,,,,,
,,,,,,,,,,,,,,p,1,0.78464,space,0.253195,0,184,184,90,1,15_dist_red/trial16.png,,,1,15,redHorizontal,p,55,31,m,2021-02-27_14h51.49.001,exp11,2020.2.6,Win32,60,IwAR3U2KXFL4e6znQL8uZDgaRxrmDNiX3z1ZTYjhIYF3jv_zCpSIZzwMDuWy4,,,,,,,,,,,
,,,,,,,,,,,,,,p,1,0.786255,space,0.250705,0,185,185,34,1,3_dist_red/trial10.png,,,1,3,redHorizontal,p,55,31,m,2021-02-27_14h51.49.001,exp11,2020.2.6,Win32,60,IwAR3U2KXFL4e6znQL8uZDgaRxrmDNiX3z1ZTYjhIYF3jv_zCpSIZzwMDuWy4,,,,,,,,,,,
,,,,,,,,,,,,,,p,1,0.883185,space,0.20022,0,186,186,80,1,15_dist_red/trial6.png,,,1,15,redHorizontal,p,55,31,m,2021-02-27_14h51.49.001,exp11,2020.2.6,Win32,60,IwAR3U2KXFL4e6znQL8uZDgaRxrmDNiX3z1ZTYjhIYF3jv_zCpSIZzwMDuWy4,,,,,,,,,,,
,,,,,,,,,,,,,,p,1,0.82559,space,0.287715,0,187,187,18,1,0_dist_red/trial19.png,,,1,0,redHorizontal,p,55,31,m,2021-02-27_14h51.49.001,exp11,2020.2.6,Win32,60,IwAR3U2KXFL4e6znQL8uZDgaRxrmDNiX3z1ZTYjhIYF3jv_zCpSIZzwMDuWy4,,,,,,,,,,,
,,,,,,,,,,,,,,a,1,0.748685,space,0.24505,0,188,188,169,1,0_targ_10_dist_red/trial20.png,,,0,10,redHorizontal,a,55,31,m,2021-02-27_14h51.49.001,exp11,2020.2.6,Win32,60,IwAR3U2KXFL4e6znQL8uZDgaRxrmDNiX3z1ZTYjhIYF3jv_zCpSIZzwMDuWy4,,,,,,,,,,,
,,,,,,,,,,,,,,p,1,0.78348,space,0.1846,0,189,189,52,1,9_dist_red/trial3.png,,,1,9,redHorizontal,p,55,31,m,2021-02-27_14h51.49.001,exp11,2020.2.6,Win32,60,IwAR3U2KXFL4e6znQL8uZDgaRxrmDNiX3z1ZTYjhIYF3jv_zCpSIZzwMDuWy4,,,,,,,,,,,
,,,,,,,,,,,,,,p,1,0.659185,space,0.182635,0,190,190,85,1,15_dist_red/trial11.png,,,1,15,redHorizontal,p,55,31,m,2021-02-27_14h51.49.001,exp11,2020.2.6,Win32,60,IwAR3U2KXFL4e6znQL8uZDgaRxrmDNiX3z1ZTYjhIYF3jv_zCpSIZzwMDuWy4,,,,,,,,,,,
,,,,,,,,,,,,,,a,1,0.769015,space,0.233435,0,191,191,177,1,0_targ_16_dist_red/trial3.png,,,0,16,redHorizontal,a,55,31,m,2021-02-27_14h51.49.001,exp11,2020.2.6,Win32,60,IwAR3U2KXFL4e6znQL8uZDgaRxrmDNiX3z1ZTYjhIYF3jv_zCpSIZzwMDuWy4,,,,,,,,,,,
,,,,,,,,,,,,,,p,1,0.857405,space,0.234245,0,192,192,74,1,9_dist_red/trial25.png,,,1,9,redHorizontal,p,55,31,m,2021-02-27_14h51.49.001,exp11,2020.2.6,Win32,60,IwAR3U2KXFL4e6znQL8uZDgaRxrmDNiX3z1ZTYjhIYF3jv_zCpSIZzwMDuWy4,,,,,,,,,,,
,,,,,,,,,,,,,,p,0,0.79774,space,0.154475,0,193,193,176,1,0_targ_16_dist_red/trial2.png,,,0,16,redHorizontal,a,55,31,m,2021-02-27_14h51.49.001,exp11,2020.2.6,Win32,60,IwAR3U2KXFL4e6znQL8uZDgaRxrmDNiX3z1ZTYjhIYF3jv_zCpSIZzwMDuWy4,,,,,,,,,,,
,,,,,,,,,,,,,,p,1,0.69295,space,0.04845,0,194,194,87,1,15_dist_red/trial13.png,,,1,15,redHorizontal,p,55,31,m,2021-02-27_14h51.49.001,exp11,2020.2.6,Win32,60,IwAR3U2KXFL4e6znQL8uZDgaRxrmDNiX3z1ZTYjhIYF3jv_zCpSIZzwMDuWy4,,,,,,,,,,,
,,,,,,,,,,,,,,a,1,0.78247,space,0.283275,0,195,195,141,1,0_targ_4_dist_red/trial17.png,,,0,4,redHorizontal,a,55,31,m,2021-02-27_14h51.49.001,exp11,2020.2.6,Win32,60,IwAR3U2KXFL4e6znQL8uZDgaRxrmDNiX3z1ZTYjhIYF3jv_zCpSIZzwMDuWy4,,,,,,,,,,,
,,,,,,,,,,,,,,a,1,0.909265,space,0.217845,0,196,196,127,1,0_targ_4_dist_red/trial3.png,,,0,4,redHorizontal,a,55,31,m,2021-02-27_14h51.49.001,exp11,2020.2.6,Win32,60,IwAR3U2KXFL4e6znQL8uZDgaRxrmDNiX3z1ZTYjhIYF3jv_zCpSIZzwMDuWy4,,,,,,,,,,,
,,,,,,,,,,,,,,p,1,0.593665,space,0.138155,0,197,197,91,1,15_dist_red/trial17.png,,,1,15,redHorizontal,p,55,31,m,2021-02-27_14h51.49.001,exp11,2020.2.6,Win32,60,IwAR3U2KXFL4e6znQL8uZDgaRxrmDNiX3z1ZTYjhIYF3jv_zCpSIZzwMDuWy4,,,,,,,,,,,
,,,,,,,,,,,,,,a,1,0.717145,space,0.219115,0,198,198,130,1,0_targ_4_dist_red/trial6.png,,,0,4,redHorizontal,a,55,31,m,2021-02-27_14h51.49.001,exp11,2020.2.6,Win32,60,IwAR3U2KXFL4e6znQL8uZDgaRxrmDNiX3z1ZTYjhIYF3jv_zCpSIZzwMDuWy4,,,,,,,,,,,
,,,,,,,,,,,,,,a,1,0.66036,space,0.30081,0,199,199,161,1,0_targ_10_dist_red/trial12.png,,,0,10,redHorizontal,a,55,31,m,2021-02-27_14h51.49.001,exp11,2020.2.6,Win32,60,IwAR3U2KXFL4e6znQL8uZDgaRxrmDNiX3z1ZTYjhIYF3jv_zCpSIZzwMDuWy4,,,,,,,,,,,
,,,,,,,,,,,,,,,,,,,,,,,,,,,,,,,55,31,m,2021-02-27_14h51.49.001,exp11,2020.2.6,Win32,60,IwAR3U2KXFL4e6znQL8uZDgaRxrmDNiX3z1ZTYjhIYF3jv_zCpSIZzwMDuWy4,0,0,0,1,1,conRed.xlsx,red horizontal,Look for red horizontal bar (target) and indicate if it is present or absent in the array. If red horizontal target is present press 'p' and if absent press 'a'. Press SPACE to start.,,,
,,,,,,,,,,space,0.83596,space,0.443355,a,1,2.114945,space,0.22314,0,0,0,151,1,0_targ_10_dist_green/trial2.png,,,0,10,greenverival,a,55,31,m,2021-02-27_14h51.49.001,exp11,2020.2.6,Win32,60,IwAR3U2KXFL4e6znQL8uZDgaRxrmDNiX3z1ZTYjhIYF3jv_zCpSIZzwMDuWy4,,,,,,,,,,,
,,,,,,,,,,,,,,p,1,0.80525,space,0.16653,0,1,1,89,1,15_dist_green/trial15.png,,,1,15,greenverival,p,55,31,m,2021-02-27_14h51.49.001,exp11,2020.2.6,Win32,60,IwAR3U2KXFL4e6znQL8uZDgaRxrmDNiX3z1ZTYjhIYF3jv_zCpSIZzwMDuWy4,,,,,,,,,,,
,,,,,,,,,,,,,,p,1,0.839615,space,0.151045,0,2,2,97,1,15_dist_green/trial23.png,,,1,15,greenverival,p,55,31,m,2021-02-27_14h51.49.001,exp11,2020.2.6,Win32,60,IwAR3U2KXFL4e6znQL8uZDgaRxrmDNiX3z1ZTYjhIYF3jv_zCpSIZzwMDuWy4,,,,,,,,,,,
,,,,,,,,,,,,,,a,1,0.803015,space,0.188935,0,3,3,195,1,0_targ_16_dist_green/trial21.png,,,0,16,greenverival,a,55,31,m,2021-02-27_14h51.49.001,exp11,2020.2.6,Win32,60,IwAR3U2KXFL4e6znQL8uZDgaRxrmDNiX3z1ZTYjhIYF3jv_zCpSIZzwMDuWy4,,,,,,,,,,,
,,,,,,,,,,,,,,p,1,0.75364,space,0.20084,0,4,4,85,1,15_dist_green/trial11.png,,,1,15,greenverival,p,55,31,m,2021-02-27_14h51.49.001,exp11,2020.2.6,Win32,60,IwAR3U2KXFL4e6znQL8uZDgaRxrmDNiX3z1ZTYjhIYF3jv_zCpSIZzwMDuWy4,,,,,,,,,,,
,,,,,,,,,,,,,,a,1,0.684805,space,0.26892,0,5,5,110,1,0_targ_1_dist_green/trial11.png,,,0,1,greenverival,a,55,31,m,2021-02-27_14h51.49.001,exp11,2020.2.6,Win32,60,IwAR3U2KXFL4e6znQL8uZDgaRxrmDNiX3z1ZTYjhIYF3jv_zCpSIZzwMDuWy4,,,,,,,,,,,
,,,,,,,,,,,,,,a,1,0.56737,space,0.19115,0,6,6,104,1,0_targ_1_dist_green/trial5.png,,,0,1,greenverival,a,55,31,m,2021-02-27_14h51.49.001,exp11,2020.2.6,Win32,60,IwAR3U2KXFL4e6znQL8uZDgaRxrmDNiX3z1ZTYjhIYF3jv_zCpSIZzwMDuWy4,,,,,,,,,,,
,,,,,,,,,,,,,,p,1,0.837745,space,0.25298,0,7,7,41,1,3_dist_green/trial17.png,,,1,3,greenverival,p,55,31,m,2021-02-27_14h51.49.001,exp11,2020.2.6,Win32,60,IwAR3U2KXFL4e6znQL8uZDgaRxrmDNiX3z1ZTYjhIYF3jv_zCpSIZzwMDuWy4,,,,,,,,,,,
,,,,,,,,,,,,,,a,0,0.92139,space,81.995205,0,8,8,78,1,15_dist_green/trial4.png,,,1,15,greenverival,p,55,31,m,2021-02-27_14h51.49.001,exp11,2020.2.6,Win32,60,IwAR3U2KXFL4e6znQL8uZDgaRxrmDNiX3z1ZTYjhIYF3jv_zCpSIZzwMDuWy4,,,,,,,,,,,
,,,,,,,,,,,,,,p,1,1.585405,space,0.913245,0,9,9,66,1,9_dist_green/trial17.png,,,1,9,greenverival,p,55,31,m,2021-02-27_14h51.49.001,exp11,2020.2.6,Win32,60,IwAR3U2KXFL4e6znQL8uZDgaRxrmDNiX3z1ZTYjhIYF3jv_zCpSIZzwMDuWy4,,,,,,,,,,,
,,,,,,,,,,,,,,a,1,1.339225,space,0.207985,0,10,10,141,1,0_targ_4_dist_green/trial17.png,,,0,4,greenverival,a,55,31,m,2021-02-27_14h51.49.001,exp11,2020.2.6,Win32,60,IwAR3U2KXFL4e6znQL8uZDgaRxrmDNiX3z1ZTYjhIYF3jv_zCpSIZzwMDuWy4,,,,,,,,,,,
,,,,,,,,,,,,,,p,1,0.672555,space,0.18466,0,11,11,2,1,0_dist_green/trial3.png,,,1,0,greenverival,p,55,31,m,2021-02-27_14h51.49.001,exp11,2020.2.6,Win32,60,IwAR3U2KXFL4e6znQL8uZDgaRxrmDNiX3z1ZTYjhIYF3jv_zCpSIZzwMDuWy4,,,,,,,,,,,
,,,,,,,,,,,,,,a,1,0.66537,space,0.22965,0,12,12,145,1,0_targ_4_dist_green/trial21.png,,,0,4,greenverival,a,55,31,m,2021-02-27_14h51.49.001,exp11,2020.2.6,Win32,60,IwAR3U2KXFL4e6znQL8uZDgaRxrmDNiX3z1ZTYjhIYF3jv_zCpSIZzwMDuWy4,,,,,,,,,,,
,,,,,,,,,,,,,,p,1,0.555065,space,0.174095,0,13,13,49,1,3_dist_green/trial25.png,,,1,3,greenverival,p,55,31,m,2021-02-27_14h51.49.001,exp11,2020.2.6,Win32,60,IwAR3U2KXFL4e6znQL8uZDgaRxrmDNiX3z1ZTYjhIYF3jv_zCpSIZzwMDuWy4,,,,,,,,,,,
,,,,,,,,,,,,,,a,1,0.84346,space,0.302065,0,14,14,192,1,0_targ_16_dist_green/trial18.png,,,0,16,greenverival,a,55,31,m,2021-02-27_14h51.49.001,exp11,2020.2.6,Win32,60,IwAR3U2KXFL4e6znQL8uZDgaRxrmDNiX3z1ZTYjhIYF3jv_zCpSIZzwMDuWy4,,,,,,,,,,,
,,,,,,,,,,,,,,p,1,0.50856,space,0.217605,0,15,15,45,1,3_dist_green/trial21.png,,,1,3,greenverival,p,55,31,m,2021-02-27_14h51.49.001,exp11,2020.2.6,Win32,60,IwAR3U2KXFL4e6znQL8uZDgaRxrmDNiX3z1ZTYjhIYF3jv_zCpSIZzwMDuWy4,,,,,,,,,,,
,,,,,,,,,,,,,,a,1,0.60123,space,0.261085,0,16,16,126,1,0_targ_4_dist_green/trial2.png,,,0,4,greenverival,a,55,31,m,2021-02-27_14h51.49.001,exp11,2020.2.6,Win32,60,IwAR3U2KXFL4e6znQL8uZDgaRxrmDNiX3z1ZTYjhIYF3jv_zCpSIZzwMDuWy4,,,,,,,,,,,
,,,,,,,,,,,,,,p,1,0.54275,space,0.20632,0,17,17,62,1,9_dist_green/trial13.png,,,1,9,greenverival,p,55,31,m,2021-02-27_14h51.49.001,exp11,2020.2.6,Win32,60,IwAR3U2KXFL4e6znQL8uZDgaRxrmDNiX3z1ZTYjhIYF3jv_zCpSIZzwMDuWy4,,,,,,,,,,,
,,,,,,,,,,,,,,a,1,0.64805,space,0.25711,0,18,18,112,1,0_targ_1_dist_green/trial13.png,,,0,1,greenverival,a,55,31,m,2021-02-27_14h51.49.001,exp11,2020.2.6,Win32,60,IwAR3U2KXFL4e6znQL8uZDgaRxrmDNiX3z1ZTYjhIYF3jv_zCpSIZzwMDuWy4,,,,,,,,,,,
,,,,,,,,,,,,,,p,1,0.60245,space,0.19494,0,19,19,86,1,15_dist_green/trial12.png,,,1,15,greenverival,p,55,31,m,2021-02-27_14h51.49.001,exp11,2020.2.6,Win32,60,IwAR3U2KXFL4e6znQL8uZDgaRxrmDNiX3z1ZTYjhIYF3jv_zCpSIZzwMDuWy4,,,,,,,,,,,
,,,,,,,,,,,,,,a,1,0.949545,space,0.25014,0,20,20,194,1,0_targ_16_dist_green/trial20.png,,,0,16,greenverival,a,55,31,m,2021-02-27_14h51.49.001,exp11,2020.2.6,Win32,60,IwAR3U2KXFL4e6znQL8uZDgaRxrmDNiX3z1ZTYjhIYF3jv_zCpSIZzwMDuWy4,,,,,,,,,,,
,,,,,,,,,,,,,,p,1,0.72306,space,0.19084,0,21,21,70,1,9_dist_green/trial21.png,,,1,9,greenverival,p,55,31,m,2021-02-27_14h51.49.001,exp11,2020.2.6,Win32,60,IwAR3U2KXFL4e6znQL8uZDgaRxrmDNiX3z1ZTYjhIYF3jv_zCpSIZzwMDuWy4,,,,,,,,,,,
,,,,,,,,,,,,,,a,1,0.735455,space,0.24127,0,22,22,169,1,0_targ_10_dist_green/trial20.png,,,0,10,greenverival,a,55,31,m,2021-02-27_14h51.49.001,exp11,2020.2.6,Win32,60,IwAR3U2KXFL4e6znQL8uZDgaRxrmDNiX3z1ZTYjhIYF3jv_zCpSIZzwMDuWy4,,,,,,,,,,,
,,,,,,,,,,,,,,p,1,0.521075,space,0.203965,0,23,23,18,1,0_dist_green/trial19.png,,,1,0,greenverival,p,55,31,m,2021-02-27_14h51.49.001,exp11,2020.2.6,Win32,60,IwAR3U2KXFL4e6znQL8uZDgaRxrmDNiX3z1ZTYjhIYF3jv_zCpSIZzwMDuWy4,,,,,,,,,,,
,,,,,,,,,,,,,,a,1,0.616755,space,0.24909,0,24,24,117,1,0_targ_1_dist_green/trial18.png,,,0,1,greenverival,a,55,31,m,2021-02-27_14h51.49.001,exp11,2020.2.6,Win32,60,IwAR3U2KXFL4e6znQL8uZDgaRxrmDNiX3z1ZTYjhIYF3jv_zCpSIZzwMDuWy4,,,,,,,,,,,
,,,,,,,,,,,,,,a,1,0.630685,space,0.205815,0,25,25,100,1,0_targ_1_dist_green/trial1.png,,,0,1,greenverival,a,55,31,m,2021-02-27_14h51.49.001,exp11,2020.2.6,Win32,60,IwAR3U2KXFL4e6znQL8uZDgaRxrmDNiX3z1ZTYjhIYF3jv_zCpSIZzwMDuWy4,,,,,,,,,,,
,,,,,,,,,,,,,,p,1,0.57775,space,0.230045,0,26,26,91,1,15_dist_green/trial17.png,,,1,15,greenverival,p,55,31,m,2021-02-27_14h51.49.001,exp11,2020.2.6,Win32,60,IwAR3U2KXFL4e6znQL8uZDgaRxrmDNiX3z1ZTYjhIYF3jv_zCpSIZzwMDuWy4,,,,,,,,,,,
,,,,,,,,,,,,,,a,1,0.751785,space,0.212215,0,27,27,118,1,0_targ_1_dist_green/trial19.png,,,0,1,greenverival,a,55,31,m,2021-02-27_14h51.49.001,exp11,2020.2.6,Win32,60,IwAR3U2KXFL4e6znQL8uZDgaRxrmDNiX3z1ZTYjhIYF3jv_zCpSIZzwMDuWy4,,,,,,,,,,,
,,,,,,,,,,,,,,p,1,0.70753,space,0.23573,0,28,28,4,1,0_dist_green/trial5.png,,,1,0,greenverival,p,55,31,m,2021-02-27_14h51.49.001,exp11,2020.2.6,Win32,60,IwAR3U2KXFL4e6znQL8uZDgaRxrmDNiX3z1ZTYjhIYF3jv_zCpSIZzwMDuWy4,,,,,,,,,,,
,,,,,,,,,,,,,,p,1,0.889225,space,0.69521,0,29,29,34,1,3_dist_green/trial10.png,,,1,3,greenverival,p,55,31,m,2021-02-27_14h51.49.001,exp11,2020.2.6,Win32,60,IwAR3U2KXFL4e6znQL8uZDgaRxrmDNiX3z1ZTYjhIYF3jv_zCpSIZzwMDuWy4,,,,,,,,,,,
,,,,,,,,,,,,,,a,1,0.813105,space,0.25806,0,30,30,154,1,0_targ_10_dist_green/trial5.png,,,0,10,greenverival,a,55,31,m,2021-02-27_14h51.49.001,exp11,2020.2.6,Win32,60,IwAR3U2KXFL4e6znQL8uZDgaRxrmDNiX3z1ZTYjhIYF3jv_zCpSIZzwMDuWy4,,,,,,,,,,,
,,,,,,,,,,,,,,p,1,0.752555,space,0.20896,0,31,31,35,1,3_dist_green/trial11.png,,,1,3,greenverival,p,55,31,m,2021-02-27_14h51.49.001,exp11,2020.2.6,Win32,60,IwAR3U2KXFL4e6znQL8uZDgaRxrmDNiX3z1ZTYjhIYF3jv_zCpSIZzwMDuWy4,,,,,,,,,,,
,,,,,,,,,,,,,,a,1,1.06312,space,0.268205,0,32,32,113,1,0_targ_1_dist_green/trial14.png,,,0,1,greenverival,a,55,31,m,2021-02-27_14h51.49.001,exp11,2020.2.6,Win32,60,IwAR3U2KXFL4e6znQL8uZDgaRxrmDNiX3z1ZTYjhIYF3jv_zCpSIZzwMDuWy4,,,,,,,,,,,
,,,,,,,,,,,,,,a,1,0.824775,space,0.21778,0,33,33,177,1,0_targ_16_dist_green/trial3.png,,,0,16,greenverival,a,55,31,m,2021-02-27_14h51.49.001,exp11,2020.2.6,Win32,60,IwAR3U2KXFL4e6znQL8uZDgaRxrmDNiX3z1ZTYjhIYF3jv_zCpSIZzwMDuWy4,,,,,,,,,,,
,,,,,,,,,,,,,,a,1,0.633525,space,0.18413,0,34,34,125,1,0_targ_4_dist_green/trial1.png,,,0,4,greenverival,a,55,31,m,2021-02-27_14h51.49.001,exp11,2020.2.6,Win32,60,IwAR3U2KXFL4e6znQL8uZDgaRxrmDNiX3z1ZTYjhIYF3jv_zCpSIZzwMDuWy4,,,,,,,,,,,
,,,,,,,,,,,,,,p,1,0.635775,space,0.260095,0,35,35,10,1,0_dist_green/trial11.png,,,1,0,greenverival,p,55,31,m,2021-02-27_14h51.49.001,exp11,2020.2.6,Win32,60,IwAR3U2KXFL4e6znQL8uZDgaRxrmDNiX3z1ZTYjhIYF3jv_zCpSIZzwMDuWy4,,,,,,,,,,,
,,,,,,,,,,,,,,p,1,0.73754,space,0.152135,0,36,36,57,1,9_dist_green/trial8.png,,,1,9,greenverival,p,55,31,m,2021-02-27_14h51.49.001,exp11,2020.2.6,Win32,60,IwAR3U2KXFL4e6znQL8uZDgaRxrmDNiX3z1ZTYjhIYF3jv_zCpSIZzwMDuWy4,,,,,,,,,,,
,,,,,,,,,,,,,,a,1,0.580485,space,0.24125,0,37,37,122,1,0_targ_1_dist_green/trial23.png,,,0,1,greenverival,a,55,31,m,2021-02-27_14h51.49.001,exp11,2020.2.6,Win32,60,IwAR3U2KXFL4e6znQL8uZDgaRxrmDNiX3z1ZTYjhIYF3jv_zCpSIZzwMDuWy4,,,,,,,,,,,
,,,,,,,,,,,,,,a,1,0.62236,space,0.1354,0,38,38,131,1,0_targ_4_dist_green/trial7.png,,,0,4,greenverival,a,55,31,m,2021-02-27_14h51.49.001,exp11,2020.2.6,Win32,60,IwAR3U2KXFL4e6znQL8uZDgaRxrmDNiX3z1ZTYjhIYF3jv_zCpSIZzwMDuWy4,,,,,,,,,,,
,,,,,,,,,,,,,,a,1,0.68426,space,0.51625,0,39,39,140,1,0_targ_4_dist_green/trial6.png,,,0,4,greenverival,a,55,31,m,2021-02-27_14h51.49.001,exp11,2020.2.6,Win32,60,IwAR3U2KXFL4e6znQL8uZDgaRxrmDNiX3z1ZTYjhIYF3jv_zCpSIZzwMDuWy4,,,,,,,,,,,
,,,,,,,,,,,,,,a,1,0.6396,space,0.1178,0,40,40,108,1,0_targ_1_dist_green/trial9.png,,,0,1,greenverival,a,55,31,m,2021-02-27_14h51.49.001,exp11,2020.2.6,Win32,60,IwAR3U2KXFL4e6znQL8uZDgaRxrmDNiX3z1ZTYjhIYF3jv_zCpSIZzwMDuWy4,,,,,,,,,,,
,,,,,,,,,,,,,,a,1,0.66472,space,0.15442,0,41,41,196,1,0_targ_16_dist_green/trial22.png,,,0,16,greenverival,a,55,31,m,2021-02-27_14h51.49.001,exp11,2020.2.6,Win32,60,IwAR3U2KXFL4e6znQL8uZDgaRxrmDNiX3z1ZTYjhIYF3jv_zCpSIZzwMDuWy4,,,,,,,,,,,
,,,,,,,,,,,,,,p,1,1.123525,space,0.1218,0,42,42,52,1,9_dist_green/trial3.png,,,1,9,greenverival,p,55,31,m,2021-02-27_14h51.49.001,exp11,2020.2.6,Win32,60,IwAR3U2KXFL4e6znQL8uZDgaRxrmDNiX3z1ZTYjhIYF3jv_zCpSIZzwMDuWy4,,,,,,,,,,,
,,,,,,,,,,,,,,p,1,0.542915,space,0.1598,0,43,43,11,1,0_dist_green/trial12.png,,,1,0,greenverival,p,55,31,m,2021-02-27_14h51.49.001,exp11,2020.2.6,Win32,60,IwAR3U2KXFL4e6znQL8uZDgaRxrmDNiX3z1ZTYjhIYF3jv_zCpSIZzwMDuWy4,,,,,,,,,,,
,,,,,,,,,,,,,,a,1,0.651655,space,0.156095,0,44,44,121,1,0_targ_1_dist_green/trial22.png,,,0,1,greenverival,a,55,31,m,2021-02-27_14h51.49.001,exp11,2020.2.6,Win32,60,IwAR3U2KXFL4e6znQL8uZDgaRxrmDNiX3z1ZTYjhIYF3jv_zCpSIZzwMDuWy4,,,,,,,,,,,
,,,,,,,,,,,,,,p,1,0.571475,space,0.24025,0,45,45,83,1,15_dist_green/trial9.png,,,1,15,greenverival,p,55,31,m,2021-02-27_14h51.49.001,exp11,2020.2.6,Win32,60,IwAR3U2KXFL4e6znQL8uZDgaRxrmDNiX3z1ZTYjhIYF3jv_zCpSIZzwMDuWy4,,,,,,,,,,,
,,,,,,,,,,,,,,a,1,1.029515,space,0.21821,0,46,46,155,1,0_targ_10_dist_green/trial6.png,,,0,10,greenverival,a,55,31,m,2021-02-27_14h51.49.001,exp11,2020.2.6,Win32,60,IwAR3U2KXFL4e6znQL8uZDgaRxrmDNiX3z1ZTYjhIYF3jv_zCpSIZzwMDuWy4,,,,,,,,,,,
,,,,,,,,,,,,,,a,1,0.46903,space,0.269975,0,47,47,162,1,0_targ_10_dist_green/trial13.png,,,0,10,greenverival,a,55,31,m,2021-02-27_14h51.49.001,exp11,2020.2.6,Win32,60,IwAR3U2KXFL4e6znQL8uZDgaRxrmDNiX3z1ZTYjhIYF3jv_zCpSIZzwMDuWy4,,,,,,,,,,,
,,,,,,,,,,,,,,p,1,0.580515,space,0.167515,0,48,48,43,1,3_dist_green/trial19.png,,,1,3,greenverival,p,55,31,m,2021-02-27_14h51.49.001,exp11,2020.2.6,Win32,60,IwAR3U2KXFL4e6znQL8uZDgaRxrmDNiX3z1ZTYjhIYF3jv_zCpSIZzwMDuWy4,,,,,,,,,,,
,,,,,,,,,,,,,,a,1,0.646205,space,0.11146,0,49,49,184,1,0_targ_16_dist_green/trial10.png,,,0,16,greenverival,a,55,31,m,2021-02-27_14h51.49.001,exp11,2020.2.6,Win32,60,IwAR3U2KXFL4e6znQL8uZDgaRxrmDNiX3z1ZTYjhIYF3jv_zCpSIZzwMDuWy4,,,,,,,,,,,
,,,,,,,,,,,,,,a,1,0.59502,space,0.172265,0,50,50,165,1,0_targ_10_dist_green/trial16.png,,,0,10,greenverival,a,55,31,m,2021-02-27_14h51.49.001,exp11,2020.2.6,Win32,60,IwAR3U2KXFL4e6znQL8uZDgaRxrmDNiX3z1ZTYjhIYF3jv_zCpSIZzwMDuWy4,,,,,,,,,,,
,,,,,,,,,,,,,,p,1,0.529975,space,0.15147,0,51,51,36,1,3_dist_green/trial12.png,,,1,3,greenverival,p,55,31,m,2021-02-27_14h51.49.001,exp11,2020.2.6,Win32,60,IwAR3U2KXFL4e6znQL8uZDgaRxrmDNiX3z1ZTYjhIYF3jv_zCpSIZzwMDuWy4,,,,,,,,,,,
,,,,,,,,,,,,,,a,1,0.56714,space,0.13314,0,52,52,129,1,0_targ_4_dist_green/trial5.png,,,0,4,greenverival,a,55,31,m,2021-02-27_14h51.49.001,exp11,2020.2.6,Win32,60,IwAR3U2KXFL4e6znQL8uZDgaRxrmDNiX3z1ZTYjhIYF3jv_zCpSIZzwMDuWy4,,,,,,,,,,,
,,,,,,,,,,,,,,a,0,0.750225,space,0.791395,0,53,53,95,1,15_dist_green/trial21.png,,,1,15,greenverival,p,55,31,m,2021-02-27_14h51.49.001,exp11,2020.2.6,Win32,60,IwAR3U2KXFL4e6znQL8uZDgaRxrmDNiX3z1ZTYjhIYF3jv_zCpSIZzwMDuWy4,,,,,,,,,,,
,,,,,,,,,,,,,,a,1,0.63474,space,0.13788,0,54,54,123,1,0_targ_1_dist_green/trial24.png,,,0,1,greenverival,a,55,31,m,2021-02-27_14h51.49.001,exp11,2020.2.6,Win32,60,IwAR3U2KXFL4e6znQL8uZDgaRxrmDNiX3z1ZTYjhIYF3jv_zCpSIZzwMDuWy4,,,,,,,,,,,
,,,,,,,,,,,,,,a,1,0.587205,space,0.15635,0,55,55,146,1,0_targ_4_dist_green/trial22.png,,,0,4,greenverival,a,55,31,m,2021-02-27_14h51.49.001,exp11,2020.2.6,Win32,60,IwAR3U2KXFL4e6znQL8uZDgaRxrmDNiX3z1ZTYjhIYF3jv_zCpSIZzwMDuWy4,,,,,,,,,,,
,,,,,,,,,,,,,,p,1,0.69552,space,0.116985,0,56,56,27,1,3_dist_green/trial3.png,,,1,3,greenverival,p,55,31,m,2021-02-27_14h51.49.001,exp11,2020.2.6,Win32,60,IwAR3U2KXFL4e6znQL8uZDgaRxrmDNiX3z1ZTYjhIYF3jv_zCpSIZzwMDuWy4,,,,,,,,,,,
,,,,,,,,,,,,,,p,1,0.698825,space,0.14522,0,57,57,39,1,3_dist_green/trial15.png,,,1,3,greenverival,p,55,31,m,2021-02-27_14h51.49.001,exp11,2020.2.6,Win32,60,IwAR3U2KXFL4e6znQL8uZDgaRxrmDNiX3z1ZTYjhIYF3jv_zCpSIZzwMDuWy4,,,,,,,,,,,
,,,,,,,,,,,,,,a,1,0.70449,space,0.129585,0,58,58,197,1,0_targ_16_dist_green/trial23.png,,,0,16,greenverival,a,55,31,m,2021-02-27_14h51.49.001,exp11,2020.2.6,Win32,60,IwAR3U2KXFL4e6znQL8uZDgaRxrmDNiX3z1ZTYjhIYF3jv_zCpSIZzwMDuWy4,,,,,,,,,,,
,,,,,,,,,,,,,,a,1,0.720465,space,0.21949,0,59,59,142,1,0_targ_4_dist_green/trial18.png,,,0,4,greenverival,a,55,31,m,2021-02-27_14h51.49.001,exp11,2020.2.6,Win32,60,IwAR3U2KXFL4e6znQL8uZDgaRxrmDNiX3z1ZTYjhIYF3jv_zCpSIZzwMDuWy4,,,,,,,,,,,
,,,,,,,,,,,,,,a,1,0.785555,space,0.13215,0,60,60,172,1,0_targ_10_dist_green/trial23.png,,,0,10,greenverival,a,55,31,m,2021-02-27_14h51.49.001,exp11,2020.2.6,Win32,60,IwAR3U2KXFL4e6znQL8uZDgaRxrmDNiX3z1ZTYjhIYF3jv_zCpSIZzwMDuWy4,,,,,,,,,,,
,,,,,,,,,,,,,,p,1,0.627725,space,0.079845,0,61,61,67,1,9_dist_green/trial18.png,,,1,9,greenverival,p,55,31,m,2021-02-27_14h51.49.001,exp11,2020.2.6,Win32,60,IwAR3U2KXFL4e6znQL8uZDgaRxrmDNiX3z1ZTYjhIYF3jv_zCpSIZzwMDuWy4,,,,,,,,,,,
,,,,,,,,,,,,,,a,1,0.802955,space,0.15607,0,62,62,103,1,0_targ_1_dist_green/trial4.png,,,0,1,greenverival,a,55,31,m,2021-02-27_14h51.49.001,exp11,2020.2.6,Win32,60,IwAR3U2KXFL4e6znQL8uZDgaRxrmDNiX3z1ZTYjhIYF3jv_zCpSIZzwMDuWy4,,,,,,,,,,,
,,,,,,,,,,,,,,a,1,0.637955,space,0.170335,0,63,63,101,1,0_targ_1_dist_green/trial2.png,,,0,1,greenverival,a,55,31,m,2021-02-27_14h51.49.001,exp11,2020.2.6,Win32,60,IwAR3U2KXFL4e6znQL8uZDgaRxrmDNiX3z1ZTYjhIYF3jv_zCpSIZzwMDuWy4,,,,,,,,,,,
,,,,,,,,,,,,,,p,1,0.81971,space,0.10391,0,64,64,73,1,9_dist_green/trial24.png,,,1,9,greenverival,p,55,31,m,2021-02-27_14h51.49.001,exp11,2020.2.6,Win32,60,IwAR3U2KXFL4e6znQL8uZDgaRxrmDNiX3z1ZTYjhIYF3jv_zCpSIZzwMDuWy4,,,,,,,,,,,
,,,,,,,,,,,,,,p,1,0.57866,space,0.151395,0,65,65,26,1,3_dist_green/trial2.png,,,1,3,greenverival,p,55,31,m,2021-02-27_14h51.49.001,exp11,2020.2.6,Win32,60,IwAR3U2KXFL4e6znQL8uZDgaRxrmDNiX3z1ZTYjhIYF3jv_zCpSIZzwMDuWy4,,,,,,,,,,,
,,,,,,,,,,,,,,p,1,0.624245,space,0.11971,0,66,66,13,1,0_dist_green/trial14.png,,,1,0,greenverival,p,55,31,m,2021-02-27_14h51.49.001,exp11,2020.2.6,Win32,60,IwAR3U2KXFL4e6znQL8uZDgaRxrmDNiX3z1ZTYjhIYF3jv_zCpSIZzwMDuWy4,,,,,,,,,,,
,,,,,,,,,,,,,,p,1,0.566935,space,0.118455,0,67,67,17,1,0_dist_green/trial18.png,,,1,0,greenverival,p,55,31,m,2021-02-27_14h51.49.001,exp11,2020.2.6,Win32,60,IwAR3U2KXFL4e6znQL8uZDgaRxrmDNiX3z1ZTYjhIYF3jv_zCpSIZzwMDuWy4,,,,,,,,,,,
,,,,,,,,,,,,,,p,1,0.71619,space,0.1523,0,68,68,58,1,9_dist_green/trial9.png,,,1,9,greenverival,p,55,31,m,2021-02-27_14h51.49.001,exp11,2020.2.6,Win32,60,IwAR3U2KXFL4e6znQL8uZDgaRxrmDNiX3z1ZTYjhIYF3jv_zCpSIZzwMDuWy4,,,,,,,,,,,
,,,,,,,,,,,,,,p,1,0.59052,space,0.118715,0,69,69,32,1,3_dist_green/trial8.png,,,1,3,greenverival,p,55,31,m,2021-02-27_14h51.49.001,exp11,2020.2.6,Win32,60,IwAR3U2KXFL4e6znQL8uZDgaRxrmDNiX3z1ZTYjhIYF3jv_zCpSIZzwMDuWy4,,,,,,,,,,,
,,,,,,,,,,,,,,p,1,0.75084,space,0.121535,0,70,70,29,1,3_dist_green/trial5.png,,,1,3,greenverival,p,55,31,m,2021-02-27_14h51.49.001,exp11,2020.2.6,Win32,60,IwAR3U2KXFL4e6znQL8uZDgaRxrmDNiX3z1ZTYjhIYF3jv_zCpSIZzwMDuWy4,,,,,,,,,,,
,,,,,,,,,,,,,,a,1,0.76746,space,0.09447,0,71,71,188,1,0_targ_16_dist_green/trial14.png,,,0,16,greenverival,a,55,31,m,2021-02-27_14h51.49.001,exp11,2020.2.6,Win32,60,IwAR3U2KXFL4e6znQL8uZDgaRxrmDNiX3z1ZTYjhIYF3jv_zCpSIZzwMDuWy4,,,,,,,,,,,
,,,,,,,,,,,,,,a,1,0.611485,space,0.137245,0,72,72,179,1,0_targ_16_dist_green/trial5.png,,,0,16,greenverival,a,55,31,m,2021-02-27_14h51.49.001,exp11,2020.2.6,Win32,60,IwAR3U2KXFL4e6znQL8uZDgaRxrmDNiX3z1ZTYjhIYF3jv_zCpSIZzwMDuWy4,,,,,,,,,,,
,,,,,,,,,,,,,,a,1,0.737685,space,0.15291,0,73,73,173,1,0_targ_10_dist_green/trial24.png,,,0,10,greenverival,a,55,31,m,2021-02-27_14h51.49.001,exp11,2020.2.6,Win32,60,IwAR3U2KXFL4e6znQL8uZDgaRxrmDNiX3z1ZTYjhIYF3jv_zCpSIZzwMDuWy4,,,,,,,,,,,
,,,,,,,,,,,,,,p,1,1.515465,space,0.13169,0,74,74,48,1,3_dist_green/trial24.png,,,1,3,greenverival,p,55,31,m,2021-02-27_14h51.49.001,exp11,2020.2.6,Win32,60,IwAR3U2KXFL4e6znQL8uZDgaRxrmDNiX3z1ZTYjhIYF3jv_zCpSIZzwMDuWy4,,,,,,,,,,,
,,,,,,,,,,,,,,p,1,0.54697,space,0.285605,0,75,75,92,1,15_dist_green/trial18.png,,,1,15,greenverival,p,55,31,m,2021-02-27_14h51.49.001,exp11,2020.2.6,Win32,60,IwAR3U2KXFL4e6znQL8uZDgaRxrmDNiX3z1ZTYjhIYF3jv_zCpSIZzwMDuWy4,,,,,,,,,,,
,,,,,,,,,,,,,,a,1,0.64571,space,0.233485,0,76,76,198,1,0_targ_16_dist_green/trial24.png,,,0,16,greenverival,a,55,31,m,2021-02-27_14h51.49.001,exp11,2020.2.6,Win32,60,IwAR3U2KXFL4e6znQL8uZDgaRxrmDNiX3z1ZTYjhIYF3jv_zCpSIZzwMDuWy4,,,,,,,,,,,
,,,,,,,,,,,,,,p,1,0.63892,space,0.20526,0,77,77,88,1,15_dist_green/trial14.png,,,1,15,greenverival,p,55,31,m,2021-02-27_14h51.49.001,exp11,2020.2.6,Win32,60,IwAR3U2KXFL4e6znQL8uZDgaRxrmDNiX3z1ZTYjhIYF3jv_zCpSIZzwMDuWy4,,,,,,,,,,,
,,,,,,,,,,,,,,p,1,0.618095,space,0.09294,0,78,78,56,1,9_dist_green/trial7.png,,,1,9,greenverival,p,55,31,m,2021-02-27_14h51.49.001,exp11,2020.2.6,Win32,60,IwAR3U2KXFL4e6znQL8uZDgaRxrmDNiX3z1ZTYjhIYF3jv_zCpSIZzwMDuWy4,,,,,,,,,,,
,,,,,,,,,,,,,,p,1,0.70242,space,0.1318,0,79,79,94,1,15_dist_green/trial20.png,,,1,15,greenverival,p,55,31,m,2021-02-27_14h51.49.001,exp11,2020.2.6,Win32,60,IwAR3U2KXFL4e6znQL8uZDgaRxrmDNiX3z1ZTYjhIYF3jv_zCpSIZzwMDuWy4,,,,,,,,,,,
,,,,,,,,,,,,,,p,0,0.690305,space,0.30756,0,80,80,130,1,0_targ_4_dist_green/trial6.png,,,0,4,greenverival,a,55,31,m,2021-02-27_14h51.49.001,exp11,2020.2.6,Win32,60,IwAR3U2KXFL4e6znQL8uZDgaRxrmDNiX3z1ZTYjhIYF3jv_zCpSIZzwMDuWy4,,,,,,,,,,,
,,,,,,,,,,,,,,p,1,1.049875,space,0.149155,0,81,81,77,1,15_dist_green/trial3.png,,,1,15,greenverival,p,55,31,m,2021-02-27_14h51.49.001,exp11,2020.2.6,Win32,60,IwAR3U2KXFL4e6znQL8uZDgaRxrmDNiX3z1ZTYjhIYF3jv_zCpSIZzwMDuWy4,,,,,,,,,,,
,,,,,,,,,,,,,,p,1,0.6383,space,0.146845,0,82,82,25,1,3_dist_green/trial1.png,,,1,3,greenverival,p,55,31,m,2021-02-27_14h51.49.001,exp11,2020.2.6,Win32,60,IwAR3U2KXFL4e6znQL8uZDgaRxrmDNiX3z1ZTYjhIYF3jv_zCpSIZzwMDuWy4,,,,,,,,,,,
,,,,,,,,,,,,,,a,1,0.608425,space,0.177035,0,83,83,152,1,0_targ_10_dist_green/trial3.png,,,0,10,greenverival,a,55,31,m,2021-02-27_14h51.49.001,exp11,2020.2.6,Win32,60,IwAR3U2KXFL4e6znQL8uZDgaRxrmDNiX3z1ZTYjhIYF3jv_zCpSIZzwMDuWy4,,,,,,,,,,,
,,,,,,,,,,,,,,a,1,0.659555,space,0.239405,0,84,84,160,1,0_targ_10_dist_green/trial11.png,,,0,10,greenverival,a,55,31,m,2021-02-27_14h51.49.001,exp11,2020.2.6,Win32,60,IwAR3U2KXFL4e6znQL8uZDgaRxrmDNiX3z1ZTYjhIYF3jv_zCpSIZzwMDuWy4,,,,,,,,,,,
,,,,,,,,,,,,,,p,1,0.6004,space,0.25391,0,85,85,16,1,0_dist_green/trial17.png,,,1,0,greenverival,p,55,31,m,2021-02-27_14h51.49.001,exp11,2020.2.6,Win32,60,IwAR3U2KXFL4e6znQL8uZDgaRxrmDNiX3z1ZTYjhIYF3jv_zCpSIZzwMDuWy4,,,,,,,,,,,
,,,,,,,,,,,,,,p,1,0.56595,space,0.171415,0,86,86,24,1,0_dist_green/trial25.png,,,1,0,greenverival,p,55,31,m,2021-02-27_14h51.49.001,exp11,2020.2.6,Win32,60,IwAR3U2KXFL4e6znQL8uZDgaRxrmDNiX3z1ZTYjhIYF3jv_zCpSIZzwMDuWy4,,,,,,,,,,,
,,,,,,,,,,,,,,p,1,0.495185,space,0.17508,0,87,87,9,1,0_dist_green/trial10.png,,,1,0,greenverival,p,55,31,m,2021-02-27_14h51.49.001,exp11,2020.2.6,Win32,60,IwAR3U2KXFL4e6znQL8uZDgaRxrmDNiX3z1ZTYjhIYF3jv_zCpSIZzwMDuWy4,,,,,,,,,,,
,,,,,,,,,,,,,,a,1,0.56194,space,0.242785,0,88,88,170,1,0_targ_10_dist_green/trial21.png,,,0,10,greenverival,a,55,31,m,2021-02-27_14h51.49.001,exp11,2020.2.6,Win32,60,IwAR3U2KXFL4e6znQL8uZDgaRxrmDNiX3z1ZTYjhIYF3jv_zCpSIZzwMDuWy4,,,,,,,,,,,
,,,,,,,,,,,,,,p,1,0.54677,space,0.168365,0,89,89,33,1,3_dist_green/trial9.png,,,1,3,greenverival,p,55,31,m,2021-02-27_14h51.49.001,exp11,2020.2.6,Win32,60,IwAR3U2KXFL4e6znQL8uZDgaRxrmDNiX3z1ZTYjhIYF3jv_zCpSIZzwMDuWy4,,,,,,,,,,,
,,,,,,,,,,,,,,a,1,0.606765,space,0.23534,0,90,90,133,1,0_targ_4_dist_green/trial9.png,,,0,4,greenverival,a,55,31,m,2021-02-27_14h51.49.001,exp11,2020.2.6,Win32,60,IwAR3U2KXFL4e6znQL8uZDgaRxrmDNiX3z1ZTYjhIYF3jv_zCpSIZzwMDuWy4,,,,,,,,,,,
,,,,,,,,,,,,,,a,1,0.58307,space,0.22092,0,91,91,132,1,0_targ_4_dist_green/trial8.png,,,0,4,greenverival,a,55,31,m,2021-02-27_14h51.49.001,exp11,2020.2.6,Win32,60,IwAR3U2KXFL4e6znQL8uZDgaRxrmDNiX3z1ZTYjhIYF3jv_zCpSIZzwMDuWy4,,,,,,,,,,,
,,,,,,,,,,,,,,a,0,0.624315,space,0.919445,0,92,92,71,1,9_dist_green/trial22.png,,,1,9,greenverival,p,55,31,m,2021-02-27_14h51.49.001,exp11,2020.2.6,Win32,60,IwAR3U2KXFL4e6znQL8uZDgaRxrmDNiX3z1ZTYjhIYF3jv_zCpSIZzwMDuWy4,,,,,,,,,,,
,,,,,,,,,,,,,,a,1,0.637155,space,0.250025,0,93,93,106,1,0_targ_1_dist_green/trial7.png,,,0,1,greenverival,a,55,31,m,2021-02-27_14h51.49.001,exp11,2020.2.6,Win32,60,IwAR3U2KXFL4e6znQL8uZDgaRxrmDNiX3z1ZTYjhIYF3jv_zCpSIZzwMDuWy4,,,,,,,,,,,
,,,,,,,,,,,,,,a,1,0.52396,space,0.315635,0,94,94,144,1,0_targ_4_dist_green/trial20.png,,,0,4,greenverival,a,55,31,m,2021-02-27_14h51.49.001,exp11,2020.2.6,Win32,60,IwAR3U2KXFL4e6znQL8uZDgaRxrmDNiX3z1ZTYjhIYF3jv_zCpSIZzwMDuWy4,,,,,,,,,,,
,,,,,,,,,,,,,,p,1,1.07659,space,0.270095,0,95,95,79,1,15_dist_green/trial5.png,,,1,15,greenverival,p,55,31,m,2021-02-27_14h51.49.001,exp11,2020.2.6,Win32,60,IwAR3U2KXFL4e6znQL8uZDgaRxrmDNiX3z1ZTYjhIYF3jv_zCpSIZzwMDuWy4,,,,,,,,,,,
,,,,,,,,,,,,,,p,1,0.81203,space,0.13832,0,96,96,3,1,0_dist_green/trial4.png,,,1,0,greenverival,p,55,31,m,2021-02-27_14h51.49.001,exp11,2020.2.6,Win32,60,IwAR3U2KXFL4e6znQL8uZDgaRxrmDNiX3z1ZTYjhIYF3jv_zCpSIZzwMDuWy4,,,,,,,,,,,
,,,,,,,,,,,,,,a,1,0.733045,space,0.20934,0,97,97,119,1,0_targ_1_dist_green/trial20.png,,,0,1,greenverival,a,55,31,m,2021-02-27_14h51.49.001,exp11,2020.2.6,Win32,60,IwAR3U2KXFL4e6znQL8uZDgaRxrmDNiX3z1ZTYjhIYF3jv_zCpSIZzwMDuWy4,,,,,,,,,,,
,,,,,,,,,,,,,,a,1,0.95085,space,0.12195,0,98,98,161,1,0_targ_10_dist_green/trial12.png,,,0,10,greenverival,a,55,31,m,2021-02-27_14h51.49.001,exp11,2020.2.6,Win32,60,IwAR3U2KXFL4e6znQL8uZDgaRxrmDNiX3z1ZTYjhIYF3jv_zCpSIZzwMDuWy4,,,,,,,,,,,
,,,,,,,,,,,,,,a,1,0.953965,space,0.106885,0,99,99,116,1,0_targ_1_dist_green/trial17.png,,,0,1,greenverival,a,55,31,m,2021-02-27_14h51.49.001,exp11,2020.2.6,Win32,60,IwAR3U2KXFL4e6znQL8uZDgaRxrmDNiX3z1ZTYjhIYF3jv_zCpSIZzwMDuWy4,,,,,,,,,,,
,,,,,,,,,,,,,,a,1,0.71805,space,0.11939,0,100,100,193,1,0_targ_16_dist_green/trial19.png,,,0,16,greenverival,a,55,31,m,2021-02-27_14h51.49.001,exp11,2020.2.6,Win32,60,IwAR3U2KXFL4e6znQL8uZDgaRxrmDNiX3z1ZTYjhIYF3jv_zCpSIZzwMDuWy4,,,,,,,,,,,
,,,,,,,,,,,,,,a,1,0.768945,space,0.09263,0,101,101,143,1,0_targ_4_dist_green/trial19.png,,,0,4,greenverival,a,55,31,m,2021-02-27_14h51.49.001,exp11,2020.2.6,Win32,60,IwAR3U2KXFL4e6znQL8uZDgaRxrmDNiX3z1ZTYjhIYF3jv_zCpSIZzwMDuWy4,,,,,,,,,,,
,,,,,,,,,,,,,,p,1,0.672775,space,0.109925,0,102,102,0,1,0_dist_green/trial1.png,,,1,0,greenverival,p,55,31,m,2021-02-27_14h51.49.001,exp11,2020.2.6,Win32,60,IwAR3U2KXFL4e6znQL8uZDgaRxrmDNiX3z1ZTYjhIYF3jv_zCpSIZzwMDuWy4,,,,,,,,,,,
,,,,,,,,,,,,,,p,1,0.76315,space,0.13508,0,103,103,37,1,3_dist_green/trial13.png,,,1,3,greenverival,p,55,31,m,2021-02-27_14h51.49.001,exp11,2020.2.6,Win32,60,IwAR3U2KXFL4e6znQL8uZDgaRxrmDNiX3z1ZTYjhIYF3jv_zCpSIZzwMDuWy4,,,,,,,,,,,
,,,,,,,,,,,,,,a,1,0.59324,space,0.1338,0,104,104,127,1,0_targ_4_dist_green/trial3.png,,,0,4,greenverival,a,55,31,m,2021-02-27_14h51.49.001,exp11,2020.2.6,Win32,60,IwAR3U2KXFL4e6znQL8uZDgaRxrmDNiX3z1ZTYjhIYF3jv_zCpSIZzwMDuWy4,,,,,,,,,,,
,,,,,,,,,,,,,,p,1,0.888745,space,0.119805,0,105,105,99,1,15_dist_green/trial25.png,,,1,15,greenverival,p,55,31,m,2021-02-27_14h51.49.001,exp11,2020.2.6,Win32,60,IwAR3U2KXFL4e6znQL8uZDgaRxrmDNiX3z1ZTYjhIYF3jv_zCpSIZzwMDuWy4,,,,,,,,,,,
,,,,,,,,,,,,,,a,1,0.82239,space,0.13584,0,106,106,175,1,0_targ_16_dist_green/trial1.png,,,0,16,greenverival,a,55,31,m,2021-02-27_14h51.49.001,exp11,2020.2.6,Win32,60,IwAR3U2KXFL4e6znQL8uZDgaRxrmDNiX3z1ZTYjhIYF3jv_zCpSIZzwMDuWy4,,,,,,,,,,,
,,,,,,,,,,,,,,a,1,0.739635,space,0.18448,0,107,107,150,1,0_targ_10_dist_green/trial1.png,,,0,10,greenverival,a,55,31,m,2021-02-27_14h51.49.001,exp11,2020.2.6,Win32,60,IwAR3U2KXFL4e6znQL8uZDgaRxrmDNiX3z1ZTYjhIYF3jv_zCpSIZzwMDuWy4,,,,,,,,,,,
,,,,,,,,,,,,,,a,1,0.69083,space,0.15381,0,108,108,191,1,0_targ_16_dist_green/trial17.png,,,0,16,greenverival,a,55,31,m,2021-02-27_14h51.49.001,exp11,2020.2.6,Win32,60,IwAR3U2KXFL4e6znQL8uZDgaRxrmDNiX3z1ZTYjhIYF3jv_zCpSIZzwMDuWy4,,,,,,,,,,,
,,,,,,,,,,,,,,p,1,0.73582,space,0.13577,0,109,109,31,1,3_dist_green/trial7.png,,,1,3,greenverival,p,55,31,m,2021-02-27_14h51.49.001,exp11,2020.2.6,Win32,60,IwAR3U2KXFL4e6znQL8uZDgaRxrmDNiX3z1ZTYjhIYF3jv_zCpSIZzwMDuWy4,,,,,,,,,,,
,,,,,,,,,,,,,,a,1,1.00946,space,0.238205,0,110,110,164,1,0_targ_10_dist_green/trial15.png,,,0,10,greenverival,a,55,31,m,2021-02-27_14h51.49.001,exp11,2020.2.6,Win32,60,IwAR3U2KXFL4e6znQL8uZDgaRxrmDNiX3z1ZTYjhIYF3jv_zCpSIZzwMDuWy4,,,,,,,,,,,
,,,,,,,,,,,,,,a,1,0.698775,space,0.27475,0,111,111,171,1,0_targ_10_dist_green/trial22.png,,,0,10,greenverival,a,55,31,m,2021-02-27_14h51.49.001,exp11,2020.2.6,Win32,60,IwAR3U2KXFL4e6znQL8uZDgaRxrmDNiX3z1ZTYjhIYF3jv_zCpSIZzwMDuWy4,,,,,,,,,,,
,,,,,,,,,,,,,,p,1,0.778425,space,0.13559,0,112,112,46,1,3_dist_green/trial22.png,,,1,3,greenverival,p,55,31,m,2021-02-27_14h51.49.001,exp11,2020.2.6,Win32,60,IwAR3U2KXFL4e6znQL8uZDgaRxrmDNiX3z1ZTYjhIYF3jv_zCpSIZzwMDuWy4,,,,,,,,,,,
,,,,,,,,,,,,,,a,1,0.725235,space,0.25219,0,113,113,159,1,0_targ_10_dist_green/trial10.png,,,0,10,greenverival,a,55,31,m,2021-02-27_14h51.49.001,exp11,2020.2.6,Win32,60,IwAR3U2KXFL4e6znQL8uZDgaRxrmDNiX3z1ZTYjhIYF3jv_zCpSIZzwMDuWy4,,,,,,,,,,,
,,,,,,,,,,,,,,a,1,0.72499,space,0.16924,0,114,114,137,1,0_targ_4_dist_green/trial13.png,,,0,4,greenverival,a,55,31,m,2021-02-27_14h51.49.001,exp11,2020.2.6,Win32,60,IwAR3U2KXFL4e6znQL8uZDgaRxrmDNiX3z1ZTYjhIYF3jv_zCpSIZzwMDuWy4,,,,,,,,,,,
,,,,,,,,,,,,,,a,0,0.716095,space,0.357495,0,115,115,93,1,15_dist_green/trial19.png,,,1,15,greenverival,p,55,31,m,2021-02-27_14h51.49.001,exp11,2020.2.6,Win32,60,IwAR3U2KXFL4e6znQL8uZDgaRxrmDNiX3z1ZTYjhIYF3jv_zCpSIZzwMDuWy4,,,,,,,,,,,
,,,,,,,,,,,,,,p,1,0.7811,space,0.11781,0,116,116,7,1,0_dist_green/trial8.png,,,1,0,greenverival,p,55,31,m,2021-02-27_14h51.49.001,exp11,2020.2.6,Win32,60,IwAR3U2KXFL4e6znQL8uZDgaRxrmDNiX3z1ZTYjhIYF3jv_zCpSIZzwMDuWy4,,,,,,,,,,,
,,,,,,,,,,,,,,p,1,0.600395,space,0.16799,0,117,117,40,1,3_dist_green/trial16.png,,,1,3,greenverival,p,55,31,m,2021-02-27_14h51.49.001,exp11,2020.2.6,Win32,60,IwAR3U2KXFL4e6znQL8uZDgaRxrmDNiX3z1ZTYjhIYF3jv_zCpSIZzwMDuWy4,,,,,,,,,,,
,,,,,,,,,,,,,,a,1,0.634155,space,0.20017,0,118,118,124,1,0_targ_1_dist_green/trial25.png,,,0,1,greenverival,a,55,31,m,2021-02-27_14h51.49.001,exp11,2020.2.6,Win32,60,IwAR3U2KXFL4e6znQL8uZDgaRxrmDNiX3z1ZTYjhIYF3jv_zCpSIZzwMDuWy4,,,,,,,,,,,
,,,,,,,,,,,,,,a,1,0.565535,space,0.139985,0,119,119,163,1,0_targ_10_dist_green/trial14.png,,,0,10,greenverival,a,55,31,m,2021-02-27_14h51.49.001,exp11,2020.2.6,Win32,60,IwAR3U2KXFL4e6znQL8uZDgaRxrmDNiX3z1ZTYjhIYF3jv_zCpSIZzwMDuWy4,,,,,,,,,,,
,,,,,,,,,,,,,,a,1,0.59184,space,0.184485,0,120,120,134,1,0_targ_4_dist_green/trial10.png,,,0,4,greenverival,a,55,31,m,2021-02-27_14h51.49.001,exp11,2020.2.6,Win32,60,IwAR3U2KXFL4e6znQL8uZDgaRxrmDNiX3z1ZTYjhIYF3jv_zCpSIZzwMDuWy4,,,,,,,,,,,
,,,,,,,,,,,,,,a,1,0.54672,space,0.10941,0,121,121,135,1,0_targ_4_dist_green/trial11.png,,,0,4,greenverival,a,55,31,m,2021-02-27_14h51.49.001,exp11,2020.2.6,Win32,60,IwAR3U2KXFL4e6znQL8uZDgaRxrmDNiX3z1ZTYjhIYF3jv_zCpSIZzwMDuWy4,,,,,,,,,,,
,,,,,,,,,,,,,,a,1,0.50895,space,0.16084,0,122,122,115,1,0_targ_1_dist_green/trial6.png,,,0,1,greenverival,a,55,31,m,2021-02-27_14h51.49.001,exp11,2020.2.6,Win32,60,IwAR3U2KXFL4e6znQL8uZDgaRxrmDNiX3z1ZTYjhIYF3jv_zCpSIZzwMDuWy4,,,,,,,,,,,
,,,,,,,,,,,,,,p,1,0.661955,space,0.09561,0,123,123,22,1,0_dist_green/trial23.png,,,1,0,greenverival,p,55,31,m,2021-02-27_14h51.49.001,exp11,2020.2.6,Win32,60,IwAR3U2KXFL4e6znQL8uZDgaRxrmDNiX3z1ZTYjhIYF3jv_zCpSIZzwMDuWy4,,,,,,,,,,,
,,,,,,,,,,,,,,p,1,1.11137,space,0.08961,0,124,124,76,1,15_dist_green/trial2.png,,,1,15,greenverival,p,55,31,m,2021-02-27_14h51.49.001,exp11,2020.2.6,Win32,60,IwAR3U2KXFL4e6znQL8uZDgaRxrmDNiX3z1ZTYjhIYF3jv_zCpSIZzwMDuWy4,,,,,,,,,,,
,,,,,,,,,,,,,,p,1,0.67722,space,0.133835,0,125,125,15,1,0_dist_green/trial16.png,,,1,0,greenverival,p,55,31,m,2021-02-27_14h51.49.001,exp11,2020.2.6,Win32,60,IwAR3U2KXFL4e6znQL8uZDgaRxrmDNiX3z1ZTYjhIYF3jv_zCpSIZzwMDuWy4,,,,,,,,,,,
,,,,,,,,,,,,,,p,1,0.715515,space,0.092795,0,126,126,68,1,9_dist_green/trial19.png,,,1,9,greenverival,p,55,31,m,2021-02-27_14h51.49.001,exp11,2020.2.6,Win32,60,IwAR3U2KXFL4e6znQL8uZDgaRxrmDNiX3z1ZTYjhIYF3jv_zCpSIZzwMDuWy4,,,,,,,,,,,
,,,,,,,,,,,,,,a,1,0.657235,space,0.099745,0,127,127,168,1,0_targ_10_dist_green/trial19.png,,,0,10,greenverival,a,55,31,m,2021-02-27_14h51.49.001,exp11,2020.2.6,Win32,60,IwAR3U2KXFL4e6znQL8uZDgaRxrmDNiX3z1ZTYjhIYF3jv_zCpSIZzwMDuWy4,,,,,,,,,,,
,,,,,,,,,,,,,,a,1,0.6188,space,0.10453,0,128,128,114,1,0_targ_1_dist_green/trial15.png,,,0,1,greenverival,a,55,31,m,2021-02-27_14h51.49.001,exp11,2020.2.6,Win32,60,IwAR3U2KXFL4e6znQL8uZDgaRxrmDNiX3z1ZTYjhIYF3jv_zCpSIZzwMDuWy4,,,,,,,,,,,
,,,,,,,,,,,,,,a,1,0.602245,space,0.15175,0,129,129,148,1,0_targ_4_dist_green/trial24.png,,,0,4,greenverival,a,55,31,m,2021-02-27_14h51.49.001,exp11,2020.2.6,Win32,60,IwAR3U2KXFL4e6znQL8uZDgaRxrmDNiX3z1ZTYjhIYF3jv_zCpSIZzwMDuWy4,,,,,,,,,,,
,,,,,,,,,,,,,,p,1,0.68284,space,0.209065,0,130,130,51,1,9_dist_green/trial2.png,,,1,9,greenverival,p,55,31,m,2021-02-27_14h51.49.001,exp11,2020.2.6,Win32,60,IwAR3U2KXFL4e6znQL8uZDgaRxrmDNiX3z1ZTYjhIYF3jv_zCpSIZzwMDuWy4,,,,,,,,,,,
,,,,,,,,,,,,,,a,0,0.795485,space,0.19021,0,131,131,55,1,9_dist_green/trial6.png,,,1,9,greenverival,p,55,31,m,2021-02-27_14h51.49.001,exp11,2020.2.6,Win32,60,IwAR3U2KXFL4e6znQL8uZDgaRxrmDNiX3z1ZTYjhIYF3jv_zCpSIZzwMDuWy4,,,,,,,,,,,
,,,,,,,,,,,,,,a,1,0.63612,space,0.19671,0,132,132,138,1,0_targ_4_dist_green/trial14.png,,,0,4,greenverival,a,55,31,m,2021-02-27_14h51.49.001,exp11,2020.2.6,Win32,60,IwAR3U2KXFL4e6znQL8uZDgaRxrmDNiX3z1ZTYjhIYF3jv_zCpSIZzwMDuWy4,,,,,,,,,,,
,,,,,,,,,,,,,,a,1,0.64619,space,0.20996,0,133,133,128,1,0_targ_4_dist_green/trial4.png,,,0,4,greenverival,a,55,31,m,2021-02-27_14h51.49.001,exp11,2020.2.6,Win32,60,IwAR3U2KXFL4e6znQL8uZDgaRxrmDNiX3z1ZTYjhIYF3jv_zCpSIZzwMDuWy4,,,,,,,,,,,
,,,,,,,,,,,,,,p,1,0.447155,space,0.14884,0,134,134,63,1,9_dist_green/trial14.png,,,1,9,greenverival,p,55,31,m,2021-02-27_14h51.49.001,exp11,2020.2.6,Win32,60,IwAR3U2KXFL4e6znQL8uZDgaRxrmDNiX3z1ZTYjhIYF3jv_zCpSIZzwMDuWy4,,,,,,,,,,,
,,,,,,,,,,,,,,a,1,0.57907,space,0.21877,0,135,135,102,1,0_targ_1_dist_green/trial3.png,,,0,1,greenverival,a,55,31,m,2021-02-27_14h51.49.001,exp11,2020.2.6,Win32,60,IwAR3U2KXFL4e6znQL8uZDgaRxrmDNiX3z1ZTYjhIYF3jv_zCpSIZzwMDuWy4,,,,,,,,,,,
,,,,,,,,,,,,,,p,1,0.75228,space,0.13535,0,136,136,59,1,9_dist_green/trial10.png,,,1,9,greenverival,p,55,31,m,2021-02-27_14h51.49.001,exp11,2020.2.6,Win32,60,IwAR3U2KXFL4e6znQL8uZDgaRxrmDNiX3z1ZTYjhIYF3jv_zCpSIZzwMDuWy4,,,,,,,,,,,
,,,,,,,,,,,,,,p,1,0.769955,space,0.08522,0,137,137,53,1,9_dist_green/trial4.png,,,1,9,greenverival,p,55,31,m,2021-02-27_14h51.49.001,exp11,2020.2.6,Win32,60,IwAR3U2KXFL4e6znQL8uZDgaRxrmDNiX3z1ZTYjhIYF3jv_zCpSIZzwMDuWy4,,,,,,,,,,,
,,,,,,,,,,,,,,a,1,0.651245,space,0.151535,0,138,138,105,1,0_targ_1_dist_green/trial6.png,,,0,1,greenverival,a,55,31,m,2021-02-27_14h51.49.001,exp11,2020.2.6,Win32,60,IwAR3U2KXFL4e6znQL8uZDgaRxrmDNiX3z1ZTYjhIYF3jv_zCpSIZzwMDuWy4,,,,,,,,,,,
,,,,,,,,,,,,,,p,1,0.8313,space,0.134925,0,139,139,54,1,9_dist_green/trial5.png,,,1,9,greenverival,p,55,31,m,2021-02-27_14h51.49.001,exp11,2020.2.6,Win32,60,IwAR3U2KXFL4e6znQL8uZDgaRxrmDNiX3z1ZTYjhIYF3jv_zCpSIZzwMDuWy4,,,,,,,,,,,
,,,,,,,,,,,,,,p,1,0.579845,space,0.102925,0,140,140,23,1,0_dist_green/trial24.png,,,1,0,greenverival,p,55,31,m,2021-02-27_14h51.49.001,exp11,2020.2.6,Win32,60,IwAR3U2KXFL4e6znQL8uZDgaRxrmDNiX3z1ZTYjhIYF3jv_zCpSIZzwMDuWy4,,,,,,,,,,,
,,,,,,,,,,,,,,a,1,0.62549,space,0.110215,0,141,141,158,1,0_targ_10_dist_green/trial9.png,,,0,10,greenverival,a,55,31,m,2021-02-27_14h51.49.001,exp11,2020.2.6,Win32,60,IwAR3U2KXFL4e6znQL8uZDgaRxrmDNiX3z1ZTYjhIYF3jv_zCpSIZzwMDuWy4,,,,,,,,,,,
,,,,,,,,,,,,,,a,1,0.83751,space,0.15897,0,142,142,174,1,0_targ_10_dist_green/trial25.png,,,0,10,greenverival,a,55,31,m,2021-02-27_14h51.49.001,exp11,2020.2.6,Win32,60,IwAR3U2KXFL4e6znQL8uZDgaRxrmDNiX3z1ZTYjhIYF3jv_zCpSIZzwMDuWy4,,,,,,,,,,,
,,,,,,,,,,,,,,p,1,0.712005,space,0.085545,0,143,143,30,1,3_dist_green/trial6.png,,,1,3,greenverival,p,55,31,m,2021-02-27_14h51.49.001,exp11,2020.2.6,Win32,60,IwAR3U2KXFL4e6znQL8uZDgaRxrmDNiX3z1ZTYjhIYF3jv_zCpSIZzwMDuWy4,,,,,,,,,,,
,,,,,,,,,,,,,,a,0,0.794085,space,0.20854,0,144,144,6,1,0_dist_green/trial7.png,,,1,0,greenverival,p,55,31,m,2021-02-27_14h51.49.001,exp11,2020.2.6,Win32,60,IwAR3U2KXFL4e6znQL8uZDgaRxrmDNiX3z1ZTYjhIYF3jv_zCpSIZzwMDuWy4,,,,,,,,,,,
,,,,,,,,,,,,,,a,1,1.00245,space,0.22928,0,145,145,183,1,0_targ_16_dist_green/trial9.png,,,0,16,greenverival,a,55,31,m,2021-02-27_14h51.49.001,exp11,2020.2.6,Win32,60,IwAR3U2KXFL4e6znQL8uZDgaRxrmDNiX3z1ZTYjhIYF3jv_zCpSIZzwMDuWy4,,,,,,,,,,,
,,,,,,,,,,,,,,a,1,0.599045,space,0.236545,0,146,146,109,1,0_targ_1_dist_green/trial10.png,,,0,1,greenverival,a,55,31,m,2021-02-27_14h51.49.001,exp11,2020.2.6,Win32,60,IwAR3U2KXFL4e6znQL8uZDgaRxrmDNiX3z1ZTYjhIYF3jv_zCpSIZzwMDuWy4,,,,,,,,,,,
,,,,,,,,,,,,,,a,1,0.58343,space,0.19204,0,147,147,157,1,0_targ_10_dist_green/trial8.png,,,0,10,greenverival,a,55,31,m,2021-02-27_14h51.49.001,exp11,2020.2.6,Win32,60,IwAR3U2KXFL4e6znQL8uZDgaRxrmDNiX3z1ZTYjhIYF3jv_zCpSIZzwMDuWy4,,,,,,,,,,,
,,,,,,,,,,,,,,p,1,0.75408,space,0.159575,0,148,148,90,1,15_dist_green/trial16.png,,,1,15,greenverival,p,55,31,m,2021-02-27_14h51.49.001,exp11,2020.2.6,Win32,60,IwAR3U2KXFL4e6znQL8uZDgaRxrmDNiX3z1ZTYjhIYF3jv_zCpSIZzwMDuWy4,,,,,,,,,,,
,,,,,,,,,,,,,,p,1,0.73509,space,0.16278,0,149,149,81,1,15_dist_green/trial7.png,,,1,15,greenverival,p,55,31,m,2021-02-27_14h51.49.001,exp11,2020.2.6,Win32,60,IwAR3U2KXFL4e6znQL8uZDgaRxrmDNiX3z1ZTYjhIYF3jv_zCpSIZzwMDuWy4,,,,,,,,,,,
,,,,,,,,,,,,,,p,1,0.61421,space,0.18275,0,150,150,19,1,0_dist_green/trial20.png,,,1,0,greenverival,p,55,31,m,2021-02-27_14h51.49.001,exp11,2020.2.6,Win32,60,IwAR3U2KXFL4e6znQL8uZDgaRxrmDNiX3z1ZTYjhIYF3jv_zCpSIZzwMDuWy4,,,,,,,,,,,
,,,,,,,,,,,,,,a,1,1.131195,space,0.122455,0,151,151,190,1,0_targ_16_dist_green/trial16.png,,,0,16,greenverival,a,55,31,m,2021-02-27_14h51.49.001,exp11,2020.2.6,Win32,60,IwAR3U2KXFL4e6znQL8uZDgaRxrmDNiX3z1ZTYjhIYF3jv_zCpSIZzwMDuWy4,,,,,,,,,,,
,,,,,,,,,,,,,,p,1,1.038015,space,0.18662,0,152,152,75,1,15_dist_green/trial1.png,,,1,15,greenverival,p,55,31,m,2021-02-27_14h51.49.001,exp11,2020.2.6,Win32,60,IwAR3U2KXFL4e6znQL8uZDgaRxrmDNiX3z1ZTYjhIYF3jv_zCpSIZzwMDuWy4,,,,,,,,,,,
,,,,,,,,,,,,,,p,1,0.660245,space,0.12504,0,153,153,98,1,15_dist_green/trial24.png,,,1,15,greenverival,p,55,31,m,2021-02-27_14h51.49.001,exp11,2020.2.6,Win32,60,IwAR3U2KXFL4e6znQL8uZDgaRxrmDNiX3z1ZTYjhIYF3jv_zCpSIZzwMDuWy4,,,,,,,,,,,
,,,,,,,,,,,,,,p,1,0.872815,space,0.090305,0,154,154,84,1,15_dist_green/trial10.png,,,1,15,greenverival,p,55,31,m,2021-02-27_14h51.49.001,exp11,2020.2.6,Win32,60,IwAR3U2KXFL4e6znQL8uZDgaRxrmDNiX3z1ZTYjhIYF3jv_zCpSIZzwMDuWy4,,,,,,,,,,,
,,,,,,,,,,,,,,p,1,0.65343,space,0.17739,0,155,155,80,1,15_dist_green/trial6.png,,,1,15,greenverival,p,55,31,m,2021-02-27_14h51.49.001,exp11,2020.2.6,Win32,60,IwAR3U2KXFL4e6znQL8uZDgaRxrmDNiX3z1ZTYjhIYF3jv_zCpSIZzwMDuWy4,,,,,,,,,,,
,,,,,,,,,,,,,,a,0,0.615575,space,0.05259,0,156,156,50,1,9_dist_green/trial1.png,,,1,9,greenverival,p,55,31,m,2021-02-27_14h51.49.001,exp11,2020.2.6,Win32,60,IwAR3U2KXFL4e6znQL8uZDgaRxrmDNiX3z1ZTYjhIYF3jv_zCpSIZzwMDuWy4,,,,,,,,,,,
,,,,,,,,,,,,,,p,1,0.694975,space,0.150065,0,157,157,72,1,9_dist_green/trial23.png,,,1,9,greenverival,p,55,31,m,2021-02-27_14h51.49.001,exp11,2020.2.6,Win32,60,IwAR3U2KXFL4e6znQL8uZDgaRxrmDNiX3z1ZTYjhIYF3jv_zCpSIZzwMDuWy4,,,,,,,,,,,
,,,,,,,,,,,,,,p,1,0.705345,space,0.12219,0,158,158,44,1,3_dist_green/trial20.png,,,1,3,greenverival,p,55,31,m,2021-02-27_14h51.49.001,exp11,2020.2.6,Win32,60,IwAR3U2KXFL4e6znQL8uZDgaRxrmDNiX3z1ZTYjhIYF3jv_zCpSIZzwMDuWy4,,,,,,,,,,,
,,,,,,,,,,,,,,p,1,0.60228,space,0.1327,0,159,159,5,1,0_dist_green/trial6.png,,,1,0,greenverival,p,55,31,m,2021-02-27_14h51.49.001,exp11,2020.2.6,Win32,60,IwAR3U2KXFL4e6znQL8uZDgaRxrmDNiX3z1ZTYjhIYF3jv_zCpSIZzwMDuWy4,,,,,,,,,,,
,,,,,,,,,,,,,,a,1,0.61705,space,0.167505,0,160,160,149,1,0_targ_4_dist_green/trial25.png,,,0,4,greenverival,a,55,31,m,2021-02-27_14h51.49.001,exp11,2020.2.6,Win32,60,IwAR3U2KXFL4e6znQL8uZDgaRxrmDNiX3z1ZTYjhIYF3jv_zCpSIZzwMDuWy4,,,,,,,,,,,
,,,,,,,,,,,,,,p,1,0.732815,space,0.13349,0,161,161,28,1,3_dist_green/trial4.png,,,1,3,greenverival,p,55,31,m,2021-02-27_14h51.49.001,exp11,2020.2.6,Win32,60,IwAR3U2KXFL4e6znQL8uZDgaRxrmDNiX3z1ZTYjhIYF3jv_zCpSIZzwMDuWy4,,,,,,,,,,,
,,,,,,,,,,,,,,a,1,1.116105,space,0.17177,0,162,162,167,1,0_targ_10_dist_green/trial18.png,,,0,10,greenverival,a,55,31,m,2021-02-27_14h51.49.001,exp11,2020.2.6,Win32,60,IwAR3U2KXFL4e6znQL8uZDgaRxrmDNiX3z1ZTYjhIYF3jv_zCpSIZzwMDuWy4,,,,,,,,,,,
,,,,,,,,,,,,,,a,1,0.8474,space,0.11922,0,163,163,185,1,0_targ_16_dist_green/trial11.png,,,0,16,greenverival,a,55,31,m,2021-02-27_14h51.49.001,exp11,2020.2.6,Win32,60,IwAR3U2KXFL4e6znQL8uZDgaRxrmDNiX3z1ZTYjhIYF3jv_zCpSIZzwMDuWy4,,,,,,,,,,,
,,,,,,,,,,,,,,p,1,0.70377,space,0.137745,0,164,164,87,1,15_dist_green/trial13.png,,,1,15,greenverival,p,55,31,m,2021-02-27_14h51.49.001,exp11,2020.2.6,Win32,60,IwAR3U2KXFL4e6znQL8uZDgaRxrmDNiX3z1ZTYjhIYF3jv_zCpSIZzwMDuWy4,,,,,,,,,,,
,,,,,,,,,,,,,,p,1,0.635085,space,0.22532,0,165,165,38,1,3_dist_green/trial14.png,,,1,3,greenverival,p,55,31,m,2021-02-27_14h51.49.001,exp11,2020.2.6,Win32,60,IwAR3U2KXFL4e6znQL8uZDgaRxrmDNiX3z1ZTYjhIYF3jv_zCpSIZzwMDuWy4,,,,,,,,,,,
,,,,,,,,,,,,,,p,1,0.788375,space,0.13597,0,166,166,69,1,9_dist_green/trial20.png,,,1,9,greenverival,p,55,31,m,2021-02-27_14h51.49.001,exp11,2020.2.6,Win32,60,IwAR3U2KXFL4e6znQL8uZDgaRxrmDNiX3z1ZTYjhIYF3jv_zCpSIZzwMDuWy4,,,,,,,,,,,
,,,,,,,,,,,,,,p,1,0.55555,space,0.140225,0,167,167,14,1,0_dist_green/trial15.png,,,1,0,greenverival,p,55,31,m,2021-02-27_14h51.49.001,exp11,2020.2.6,Win32,60,IwAR3U2KXFL4e6znQL8uZDgaRxrmDNiX3z1ZTYjhIYF3jv_zCpSIZzwMDuWy4,,,,,,,,,,,
,,,,,,,,,,,,,,p,1,0.626345,space,0.105875,0,168,168,74,1,9_dist_green/trial25.png,,,1,9,greenverival,p,55,31,m,2021-02-27_14h51.49.001,exp11,2020.2.6,Win32,60,IwAR3U2KXFL4e6znQL8uZDgaRxrmDNiX3z1ZTYjhIYF3jv_zCpSIZzwMDuWy4,,,,,,,,,,,
,,,,,,,,,,,,,,p,1,0.82855,space,0.13463,0,169,169,42,1,3_dist_green/trial18.png,,,1,3,greenverival,p,55,31,m,2021-02-27_14h51.49.001,exp11,2020.2.6,Win32,60,IwAR3U2KXFL4e6znQL8uZDgaRxrmDNiX3z1ZTYjhIYF3jv_zCpSIZzwMDuWy4,,,,,,,,,,,
,,,,,,,,,,,,,,a,1,0.93301,space,0.106035,0,170,170,166,1,0_targ_10_dist_green/trial17.png,,,0,10,greenverival,a,55,31,m,2021-02-27_14h51.49.001,exp11,2020.2.6,Win32,60,IwAR3U2KXFL4e6znQL8uZDgaRxrmDNiX3z1ZTYjhIYF3jv_zCpSIZzwMDuWy4,,,,,,,,,,,
,,,,,,,,,,,,,,p,1,0.755915,space,0.23387,0,171,171,60,1,9_dist_green/trial11.png,,,1,9,greenverival,p,55,31,m,2021-02-27_14h51.49.001,exp11,2020.2.6,Win32,60,IwAR3U2KXFL4e6znQL8uZDgaRxrmDNiX3z1ZTYjhIYF3jv_zCpSIZzwMDuWy4,,,,,,,,,,,
,,,,,,,,,,,,,,a,1,0.933205,space,0.180005,0,172,172,178,1,0_targ_16_dist_green/trial4.png,,,0,16,greenverival,a,55,31,m,2021-02-27_14h51.49.001,exp11,2020.2.6,Win32,60,IwAR3U2KXFL4e6znQL8uZDgaRxrmDNiX3z1ZTYjhIYF3jv_zCpSIZzwMDuWy4,,,,,,,,,,,
,,,,,,,,,,,,,,a,1,0.70397,space,0.12325,0,173,173,111,1,0_targ_1_dist_green/trial12.png,,,0,1,greenverival,a,55,31,m,2021-02-27_14h51.49.001,exp11,2020.2.6,Win32,60,IwAR3U2KXFL4e6znQL8uZDgaRxrmDNiX3z1ZTYjhIYF3jv_zCpSIZzwMDuWy4,,,,,,,,,,,
,,,,,,,,,,,,,,a,1,0.921075,space,0.201285,0,174,174,181,1,0_targ_16_dist_green/trial7.png,,,0,16,greenverival,a,55,31,m,2021-02-27_14h51.49.001,exp11,2020.2.6,Win32,60,IwAR3U2KXFL4e6znQL8uZDgaRxrmDNiX3z1ZTYjhIYF3jv_zCpSIZzwMDuWy4,,,,,,,,,,,
,,,,,,,,,,,,,,p,1,0.66837,space,0.1723,0,175,175,21,1,0_dist_green/trial22.png,,,1,0,greenverival,p,55,31,m,2021-02-27_14h51.49.001,exp11,2020.2.6,Win32,60,IwAR3U2KXFL4e6znQL8uZDgaRxrmDNiX3z1ZTYjhIYF3jv_zCpSIZzwMDuWy4,,,,,,,,,,,
,,,,,,,,,,,,,,a,1,0.696825,space,0.1657,0,176,176,153,1,0_targ_10_dist_green/trial4.png,,,0,10,greenverival,a,55,31,m,2021-02-27_14h51.49.001,exp11,2020.2.6,Win32,60,IwAR3U2KXFL4e6znQL8uZDgaRxrmDNiX3z1ZTYjhIYF3jv_zCpSIZzwMDuWy4,,,,,,,,,,,
,,,,,,,,,,,,,,a,1,0.641175,space,0.143965,0,177,177,120,1,0_targ_1_dist_green/trial21.png,,,0,1,greenverival,a,55,31,m,2021-02-27_14h51.49.001,exp11,2020.2.6,Win32,60,IwAR3U2KXFL4e6znQL8uZDgaRxrmDNiX3z1ZTYjhIYF3jv_zCpSIZzwMDuWy4,,,,,,,,,,,
,,,,,,,,,,,,,,a,1,0.692875,space,0.17834,0,178,178,187,1,0_targ_16_dist_green/trial13.png,,,0,16,greenverival,a,55,31,m,2021-02-27_14h51.49.001,exp11,2020.2.6,Win32,60,IwAR3U2KXFL4e6znQL8uZDgaRxrmDNiX3z1ZTYjhIYF3jv_zCpSIZzwMDuWy4,,,,,,,,,,,
,,,,,,,,,,,,,,p,1,0.725255,space,0.184945,0,179,179,20,1,0_dist_green/trial21.png,,,1,0,greenverival,p,55,31,m,2021-02-27_14h51.49.001,exp11,2020.2.6,Win32,60,IwAR3U2KXFL4e6znQL8uZDgaRxrmDNiX3z1ZTYjhIYF3jv_zCpSIZzwMDuWy4,,,,,,,,,,,
,,,,,,,,,,,,,,a,1,0.842895,space,0.25058,0,180,180,147,1,0_targ_4_dist_green/trial23.png,,,0,4,greenverival,a,55,31,m,2021-02-27_14h51.49.001,exp11,2020.2.6,Win32,60,IwAR3U2KXFL4e6znQL8uZDgaRxrmDNiX3z1ZTYjhIYF3jv_zCpSIZzwMDuWy4,,,,,,,,,,,
,,,,,,,,,,,,,,p,1,0.667275,space,0.216105,0,181,181,47,1,3_dist_green/trial23.png,,,1,3,greenverival,p,55,31,m,2021-02-27_14h51.49.001,exp11,2020.2.6,Win32,60,IwAR3U2KXFL4e6znQL8uZDgaRxrmDNiX3z1ZTYjhIYF3jv_zCpSIZzwMDuWy4,,,,,,,,,,,
,,,,,,,,,,,,,,a,1,0.803585,space,0.204855,0,182,182,156,1,0_targ_10_dist_green/trial7.png,,,0,10,greenverival,a,55,31,m,2021-02-27_14h51.49.001,exp11,2020.2.6,Win32,60,IwAR3U2KXFL4e6znQL8uZDgaRxrmDNiX3z1ZTYjhIYF3jv_zCpSIZzwMDuWy4,,,,,,,,,,,
,,,,,,,,,,,,,,p,1,0.680045,space,0.203585,0,183,183,64,1,9_dist_green/trial15.png,,,1,9,greenverival,p,55,31,m,2021-02-27_14h51.49.001,exp11,2020.2.6,Win32,60,IwAR3U2KXFL4e6znQL8uZDgaRxrmDNiX3z1ZTYjhIYF3jv_zCpSIZzwMDuWy4,,,,,,,,,,,
,,,,,,,,,,,,,,a,1,0.769745,space,0.207695,0,184,184,139,1,0_targ_4_dist_green/trial15.png,,,0,4,greenverival,a,55,31,m,2021-02-27_14h51.49.001,exp11,2020.2.6,Win32,60,IwAR3U2KXFL4e6znQL8uZDgaRxrmDNiX3z1ZTYjhIYF3jv_zCpSIZzwMDuWy4,,,,,,,,,,,
,,,,,,,,,,,,,,a,0,0.59967,space,0.057005,0,185,185,8,1,0_dist_green/trial9.png,,,1,0,greenverival,p,55,31,m,2021-02-27_14h51.49.001,exp11,2020.2.6,Win32,60,IwAR3U2KXFL4e6znQL8uZDgaRxrmDNiX3z1ZTYjhIYF3jv_zCpSIZzwMDuWy4,,,,,,,,,,,
,,,,,,,,,,,,,,a,0,0.942235,space,0.181145,0,186,186,82,1,15_dist_green/trial8.png,,,1,15,greenverival,p,55,31,m,2021-02-27_14h51.49.001,exp11,2020.2.6,Win32,60,IwAR3U2KXFL4e6znQL8uZDgaRxrmDNiX3z1ZTYjhIYF3jv_zCpSIZzwMDuWy4,,,,,,,,,,,
,,,,,,,,,,,,,,p,1,0.70643,space,0.16458,0,187,187,1,1,0_dist_green/trial2.png,,,1,0,greenverival,p,55,31,m,2021-02-27_14h51.49.001,exp11,2020.2.6,Win32,60,IwAR3U2KXFL4e6znQL8uZDgaRxrmDNiX3z1ZTYjhIYF3jv_zCpSIZzwMDuWy4,,,,,,,,,,,
,,,,,,,,,,,,,,a,1,0.795105,space,0.20101,0,188,188,186,1,0_targ_16_dist_green/trial12.png,,,0,16,greenverival,a,55,31,m,2021-02-27_14h51.49.001,exp11,2020.2.6,Win32,60,IwAR3U2KXFL4e6znQL8uZDgaRxrmDNiX3z1ZTYjhIYF3jv_zCpSIZzwMDuWy4,,,,,,,,,,,
,,,,,,,,,,,,,,a,1,0.665505,space,0.15419,0,189,189,107,1,0_targ_1_dist_green/trial8.png,,,0,1,greenverival,a,55,31,m,2021-02-27_14h51.49.001,exp11,2020.2.6,Win32,60,IwAR3U2KXFL4e6znQL8uZDgaRxrmDNiX3z1ZTYjhIYF3jv_zCpSIZzwMDuWy4,,,,,,,,,,,
,,,,,,,,,,,,,,p,1,0.51265,space,0.106265,0,190,190,12,1,0_dist_green/trial13.png,,,1,0,greenverival,p,55,31,m,2021-02-27_14h51.49.001,exp11,2020.2.6,Win32,60,IwAR3U2KXFL4e6znQL8uZDgaRxrmDNiX3z1ZTYjhIYF3jv_zCpSIZzwMDuWy4,,,,,,,,,,,
,,,,,,,,,,,,,,a,1,0.55617,space,0.174685,0,191,191,182,1,0_targ_16_dist_green/trial8.png,,,0,16,greenverival,a,55,31,m,2021-02-27_14h51.49.001,exp11,2020.2.6,Win32,60,IwAR3U2KXFL4e6znQL8uZDgaRxrmDNiX3z1ZTYjhIYF3jv_zCpSIZzwMDuWy4,,,,,,,,,,,
,,,,,,,,,,,,,,a,1,0.670685,space,0.17222,0,192,192,180,1,0_targ_16_dist_green/trial6.png,,,0,16,greenverival,a,55,31,m,2021-02-27_14h51.49.001,exp11,2020.2.6,Win32,60,IwAR3U2KXFL4e6znQL8uZDgaRxrmDNiX3z1ZTYjhIYF3jv_zCpSIZzwMDuWy4,,,,,,,,,,,
,,,,,,,,,,,,,,a,1,0.621715,space,0.173065,0,193,193,136,1,0_targ_4_dist_green/trial12.png,,,0,4,greenverival,a,55,31,m,2021-02-27_14h51.49.001,exp11,2020.2.6,Win32,60,IwAR3U2KXFL4e6znQL8uZDgaRxrmDNiX3z1ZTYjhIYF3jv_zCpSIZzwMDuWy4,,,,,,,,,,,
,,,,,,,,,,,,,,a,0,0.605005,space,0.17178,0,194,194,96,1,15_dist_green/trial22.png,,,1,15,greenverival,p,55,31,m,2021-02-27_14h51.49.001,exp11,2020.2.6,Win32,60,IwAR3U2KXFL4e6znQL8uZDgaRxrmDNiX3z1ZTYjhIYF3jv_zCpSIZzwMDuWy4,,,,,,,,,,,
,,,,,,,,,,,,,,p,1,0.964435,space,0.130935,0,195,195,61,1,9_dist_green/trial12.png,,,1,9,greenverival,p,55,31,m,2021-02-27_14h51.49.001,exp11,2020.2.6,Win32,60,IwAR3U2KXFL4e6znQL8uZDgaRxrmDNiX3z1ZTYjhIYF3jv_zCpSIZzwMDuWy4,,,,,,,,,,,
,,,,,,,,,,,,,,a,1,0.601935,space,0.171565,0,196,196,176,1,0_targ_16_dist_green/trial2.png,,,0,16,greenverival,a,55,31,m,2021-02-27_14h51.49.001,exp11,2020.2.6,Win32,60,IwAR3U2KXFL4e6znQL8uZDgaRxrmDNiX3z1ZTYjhIYF3jv_zCpSIZzwMDuWy4,,,,,,,,,,,
,,,,,,,,,,,,,,a,1,0.765085,space,0.25348,0,197,197,189,1,0_targ_16_dist_green/trial15.png,,,0,16,greenverival,a,55,31,m,2021-02-27_14h51.49.001,exp11,2020.2.6,Win32,60,IwAR3U2KXFL4e6znQL8uZDgaRxrmDNiX3z1ZTYjhIYF3jv_zCpSIZzwMDuWy4,,,,,,,,,,,
,,,,,,,,,,,,,,a,1,0.594635,space,0.22045,0,198,198,199,1,0_targ_16_dist_green/trial25.png,,,0,16,greenverival,a,55,31,m,2021-02-27_14h51.49.001,exp11,2020.2.6,Win32,60,IwAR3U2KXFL4e6znQL8uZDgaRxrmDNiX3z1ZTYjhIYF3jv_zCpSIZzwMDuWy4,,,,,,,,,,,
,,,,,,,,,,,,,,p,1,0.621165,space,0.134895,0,199,199,65,1,9_dist_green/trial16.png,,,1,9,greenverival,p,55,31,m,2021-02-27_14h51.49.001,exp11,2020.2.6,Win32,60,IwAR3U2KXFL4e6znQL8uZDgaRxrmDNiX3z1ZTYjhIYF3jv_zCpSIZzwMDuWy4,,,,,,,,,,,
,,,,,,,,,,,,,,,,,,,,,,,,,,,,,,,55,31,m,2021-02-27_14h51.49.001,exp11,2020.2.6,Win32,60,IwAR3U2KXFL4e6znQL8uZDgaRxrmDNiX3z1ZTYjhIYF3jv_zCpSIZzwMDuWy4,0,1,1,0,1,conGreen.xlsx,green vertical,Look for green vertical bar (target) and indicate if it is present or absent in the array. If green vertical target is present press 'p' and if absent press 'a'. Press SPACE to start.,,,
