key_resp_6.keys,key_resp_6.rt,key_resp_7.keys,key_resp_7.rt,key_resp_8.keys,key_resp_8.rt,key_resp_10.keys,key_resp_10.rt,key_resp_9.keys,key_resp_9.rt,key_resp_3.keys,key_resp_3.rt,key_resp_5.keys,key_resp_5.rt,key_resp.keys,key_resp.corr,key_resp.rt,key_resp_4.keys,key_resp_4.rt,trials.thisRepN,trials.thisTrialN,trials.thisN,trials.thisIndex,trials.ran,ImageFile,tarPos,tarSize,targPres,numDist,targetName,correctAns,participant,age,sex,date,expName,psychopyVersion,OS,frameRate,fbclid,trials_2.thisRepN,trials_2.thisTrialN,trials_2.thisN,trials_2.thisIndex,trials_2.ran,condsFile,targName,instructionText,colTarget,sizeTarg,posit
space,5.202225,space,18.299245,space,32.122855,space,12.712305,space,1.917,space,13.964465,space,15.901385,p,0,2.04495,space,2.369635,0,0,0,132,1,0_targ_4_dist_green/trial8.png,,,0,4,greenverival,a,57,23,female,2021-02-23_21h17.45.296,exp11,2020.2.6,Win32,60,IwAR0fbhFbPWBJD8W8ulUltABWI7h-g-1gO5RlYgTQYTV_u_GWhCop-A_RuAE,,,,,,,,,,,
,,,,,,,,,,,,,,p,0,3.549715,space,0.3522,0,1,1,179,1,0_targ_16_dist_green/trial5.png,,,0,16,greenverival,a,57,23,female,2021-02-23_21h17.45.296,exp11,2020.2.6,Win32,60,IwAR0fbhFbPWBJD8W8ulUltABWI7h-g-1gO5RlYgTQYTV_u_GWhCop-A_RuAE,,,,,,,,,,,
,,,,,,,,,,,,,,a,0,1.0898,space,2.227685,0,2,2,47,1,3_dist_green/trial23.png,,,1,3,greenverival,p,57,23,female,2021-02-23_21h17.45.296,exp11,2020.2.6,Win32,60,IwAR0fbhFbPWBJD8W8ulUltABWI7h-g-1gO5RlYgTQYTV_u_GWhCop-A_RuAE,,,,,,,,,,,
,,,,,,,,,,,,,,p,0,0.006435,space,22.987315,0,3,3,157,1,0_targ_10_dist_green/trial8.png,,,0,10,greenverival,a,57,23,female,2021-02-23_21h17.45.296,exp11,2020.2.6,Win32,60,IwAR0fbhFbPWBJD8W8ulUltABWI7h-g-1gO5RlYgTQYTV_u_GWhCop-A_RuAE,,,,,,,,,,,
,,,,,,,,,,,,,,p,1,2.0271,space,1.170135,0,4,4,40,1,3_dist_green/trial16.png,,,1,3,greenverival,p,57,23,female,2021-02-23_21h17.45.296,exp11,2020.2.6,Win32,60,IwAR0fbhFbPWBJD8W8ulUltABWI7h-g-1gO5RlYgTQYTV_u_GWhCop-A_RuAE,,,,,,,,,,,
,,,,,,,,,,,,,,p,1,1.63962,space,0.74319,0,5,5,55,1,9_dist_green/trial6.png,,,1,9,greenverival,p,57,23,female,2021-02-23_21h17.45.296,exp11,2020.2.6,Win32,60,IwAR0fbhFbPWBJD8W8ulUltABWI7h-g-1gO5RlYgTQYTV_u_GWhCop-A_RuAE,,,,,,,,,,,
,,,,,,,,,,,,,,p,1,1.08002,space,0.637265,0,6,6,46,1,3_dist_green/trial22.png,,,1,3,greenverival,p,57,23,female,2021-02-23_21h17.45.296,exp11,2020.2.6,Win32,60,IwAR0fbhFbPWBJD8W8ulUltABWI7h-g-1gO5RlYgTQYTV_u_GWhCop-A_RuAE,,,,,,,,,,,
,,,,,,,,,,,,,,p,1,0.63365,space,0.405065,0,7,7,24,1,0_dist_green/trial25.png,,,1,0,greenverival,p,57,23,female,2021-02-23_21h17.45.296,exp11,2020.2.6,Win32,60,IwAR0fbhFbPWBJD8W8ulUltABWI7h-g-1gO5RlYgTQYTV_u_GWhCop-A_RuAE,,,,,,,,,,,
,,,,,,,,,,,,,,p,1,0.69652,space,0.466435,0,8,8,25,1,3_dist_green/trial1.png,,,1,3,greenverival,p,57,23,female,2021-02-23_21h17.45.296,exp11,2020.2.6,Win32,60,IwAR0fbhFbPWBJD8W8ulUltABWI7h-g-1gO5RlYgTQYTV_u_GWhCop-A_RuAE,,,,,,,,,,,
,,,,,,,,,,,,,,a,1,1.45205,space,0.38346,0,9,9,155,1,0_targ_10_dist_green/trial6.png,,,0,10,greenverival,a,57,23,female,2021-02-23_21h17.45.296,exp11,2020.2.6,Win32,60,IwAR0fbhFbPWBJD8W8ulUltABWI7h-g-1gO5RlYgTQYTV_u_GWhCop-A_RuAE,,,,,,,,,,,
,,,,,,,,,,,,,,a,0,0.65276,space,1.136515,0,10,10,75,1,15_dist_green/trial1.png,,,1,15,greenverival,p,57,23,female,2021-02-23_21h17.45.296,exp11,2020.2.6,Win32,60,IwAR0fbhFbPWBJD8W8ulUltABWI7h-g-1gO5RlYgTQYTV_u_GWhCop-A_RuAE,,,,,,,,,,,
,,,,,,,,,,,,,,a,1,1.493255,space,0.91876,0,11,11,130,1,0_targ_4_dist_green/trial6.png,,,0,4,greenverival,a,57,23,female,2021-02-23_21h17.45.296,exp11,2020.2.6,Win32,60,IwAR0fbhFbPWBJD8W8ulUltABWI7h-g-1gO5RlYgTQYTV_u_GWhCop-A_RuAE,,,,,,,,,,,
,,,,,,,,,,,,,,a,1,2.067525,space,0.551325,0,12,12,150,1,0_targ_10_dist_green/trial1.png,,,0,10,greenverival,a,57,23,female,2021-02-23_21h17.45.296,exp11,2020.2.6,Win32,60,IwAR0fbhFbPWBJD8W8ulUltABWI7h-g-1gO5RlYgTQYTV_u_GWhCop-A_RuAE,,,,,,,,,,,
,,,,,,,,,,,,,,a,1,1.965635,space,0.702205,0,13,13,197,1,0_targ_16_dist_green/trial23.png,,,0,16,greenverival,a,57,23,female,2021-02-23_21h17.45.296,exp11,2020.2.6,Win32,60,IwAR0fbhFbPWBJD8W8ulUltABWI7h-g-1gO5RlYgTQYTV_u_GWhCop-A_RuAE,,,,,,,,,,,
,,,,,,,,,,,,,,a,1,0.82453,space,0.41979,0,14,14,163,1,0_targ_10_dist_green/trial14.png,,,0,10,greenverival,a,57,23,female,2021-02-23_21h17.45.296,exp11,2020.2.6,Win32,60,IwAR0fbhFbPWBJD8W8ulUltABWI7h-g-1gO5RlYgTQYTV_u_GWhCop-A_RuAE,,,,,,,,,,,
,,,,,,,,,,,,,,p,1,1.25059,space,0.44799,0,15,15,99,1,15_dist_green/trial25.png,,,1,15,greenverival,p,57,23,female,2021-02-23_21h17.45.296,exp11,2020.2.6,Win32,60,IwAR0fbhFbPWBJD8W8ulUltABWI7h-g-1gO5RlYgTQYTV_u_GWhCop-A_RuAE,,,,,,,,,,,
,,,,,,,,,,,,,,p,1,0.81048,space,0.45899,0,16,16,42,1,3_dist_green/trial18.png,,,1,3,greenverival,p,57,23,female,2021-02-23_21h17.45.296,exp11,2020.2.6,Win32,60,IwAR0fbhFbPWBJD8W8ulUltABWI7h-g-1gO5RlYgTQYTV_u_GWhCop-A_RuAE,,,,,,,,,,,
,,,,,,,,,,,,,,a,1,0.75099,space,0.499265,0,17,17,137,1,0_targ_4_dist_green/trial13.png,,,0,4,greenverival,a,57,23,female,2021-02-23_21h17.45.296,exp11,2020.2.6,Win32,60,IwAR0fbhFbPWBJD8W8ulUltABWI7h-g-1gO5RlYgTQYTV_u_GWhCop-A_RuAE,,,,,,,,,,,
,,,,,,,,,,,,,,p,1,0.70596,space,0.419625,0,18,18,36,1,3_dist_green/trial12.png,,,1,3,greenverival,p,57,23,female,2021-02-23_21h17.45.296,exp11,2020.2.6,Win32,60,IwAR0fbhFbPWBJD8W8ulUltABWI7h-g-1gO5RlYgTQYTV_u_GWhCop-A_RuAE,,,,,,,,,,,
,,,,,,,,,,,,,,a,0,1.454765,space,8.61366,0,19,19,97,1,15_dist_green/trial23.png,,,1,15,greenverival,p,57,23,female,2021-02-23_21h17.45.296,exp11,2020.2.6,Win32,60,IwAR0fbhFbPWBJD8W8ulUltABWI7h-g-1gO5RlYgTQYTV_u_GWhCop-A_RuAE,,,,,,,,,,,
,,,,,,,,,,,,,,a,1,2.43443,space,1.452545,0,20,20,188,1,0_targ_16_dist_green/trial14.png,,,0,16,greenverival,a,57,23,female,2021-02-23_21h17.45.296,exp11,2020.2.6,Win32,60,IwAR0fbhFbPWBJD8W8ulUltABWI7h-g-1gO5RlYgTQYTV_u_GWhCop-A_RuAE,,,,,,,,,,,
,,,,,,,,,,,,,,a,1,1.94618,space,1.00147,0,21,21,184,1,0_targ_16_dist_green/trial10.png,,,0,16,greenverival,a,57,23,female,2021-02-23_21h17.45.296,exp11,2020.2.6,Win32,60,IwAR0fbhFbPWBJD8W8ulUltABWI7h-g-1gO5RlYgTQYTV_u_GWhCop-A_RuAE,,,,,,,,,,,
,,,,,,,,,,,,,,p,1,1.24874,space,0.666585,0,22,22,2,1,0_dist_green/trial3.png,,,1,0,greenverival,p,57,23,female,2021-02-23_21h17.45.296,exp11,2020.2.6,Win32,60,IwAR0fbhFbPWBJD8W8ulUltABWI7h-g-1gO5RlYgTQYTV_u_GWhCop-A_RuAE,,,,,,,,,,,
,,,,,,,,,,,,,,p,1,1.492105,space,0.43225,0,23,23,51,1,9_dist_green/trial2.png,,,1,9,greenverival,p,57,23,female,2021-02-23_21h17.45.296,exp11,2020.2.6,Win32,60,IwAR0fbhFbPWBJD8W8ulUltABWI7h-g-1gO5RlYgTQYTV_u_GWhCop-A_RuAE,,,,,,,,,,,
,,,,,,,,,,,,,,p,1,0.89401,space,0.368845,0,24,24,77,1,15_dist_green/trial3.png,,,1,15,greenverival,p,57,23,female,2021-02-23_21h17.45.296,exp11,2020.2.6,Win32,60,IwAR0fbhFbPWBJD8W8ulUltABWI7h-g-1gO5RlYgTQYTV_u_GWhCop-A_RuAE,,,,,,,,,,,
,,,,,,,,,,,,,,p,1,0.897065,space,0.6009,0,25,25,52,1,9_dist_green/trial3.png,,,1,9,greenverival,p,57,23,female,2021-02-23_21h17.45.296,exp11,2020.2.6,Win32,60,IwAR0fbhFbPWBJD8W8ulUltABWI7h-g-1gO5RlYgTQYTV_u_GWhCop-A_RuAE,,,,,,,,,,,
,,,,,,,,,,,,,,a,1,2.149785,space,0.382195,0,26,26,190,1,0_targ_16_dist_green/trial16.png,,,0,16,greenverival,a,57,23,female,2021-02-23_21h17.45.296,exp11,2020.2.6,Win32,60,IwAR0fbhFbPWBJD8W8ulUltABWI7h-g-1gO5RlYgTQYTV_u_GWhCop-A_RuAE,,,,,,,,,,,
,,,,,,,,,,,,,,a,1,1.345315,space,0.601065,0,27,27,167,1,0_targ_10_dist_green/trial18.png,,,0,10,greenverival,a,57,23,female,2021-02-23_21h17.45.296,exp11,2020.2.6,Win32,60,IwAR0fbhFbPWBJD8W8ulUltABWI7h-g-1gO5RlYgTQYTV_u_GWhCop-A_RuAE,,,,,,,,,,,
,,,,,,,,,,,,,,a,1,2.05652,space,0.54998,0,28,28,194,1,0_targ_16_dist_green/trial20.png,,,0,16,greenverival,a,57,23,female,2021-02-23_21h17.45.296,exp11,2020.2.6,Win32,60,IwAR0fbhFbPWBJD8W8ulUltABWI7h-g-1gO5RlYgTQYTV_u_GWhCop-A_RuAE,,,,,,,,,,,
,,,,,,,,,,,,,,a,1,0.792395,space,0.48491,0,29,29,125,1,0_targ_4_dist_green/trial1.png,,,0,4,greenverival,a,57,23,female,2021-02-23_21h17.45.296,exp11,2020.2.6,Win32,60,IwAR0fbhFbPWBJD8W8ulUltABWI7h-g-1gO5RlYgTQYTV_u_GWhCop-A_RuAE,,,,,,,,,,,
,,,,,,,,,,,,,,p,1,1.261205,space,0.33601,0,30,30,67,1,9_dist_green/trial18.png,,,1,9,greenverival,p,57,23,female,2021-02-23_21h17.45.296,exp11,2020.2.6,Win32,60,IwAR0fbhFbPWBJD8W8ulUltABWI7h-g-1gO5RlYgTQYTV_u_GWhCop-A_RuAE,,,,,,,,,,,
,,,,,,,,,,,,,,p,1,1.511675,space,0.25109,0,31,31,85,1,15_dist_green/trial11.png,,,1,15,greenverival,p,57,23,female,2021-02-23_21h17.45.296,exp11,2020.2.6,Win32,60,IwAR0fbhFbPWBJD8W8ulUltABWI7h-g-1gO5RlYgTQYTV_u_GWhCop-A_RuAE,,,,,,,,,,,
,,,,,,,,,,,,,,a,1,1.087145,space,0.302545,0,32,32,160,1,0_targ_10_dist_green/trial11.png,,,0,10,greenverival,a,57,23,female,2021-02-23_21h17.45.296,exp11,2020.2.6,Win32,60,IwAR0fbhFbPWBJD8W8ulUltABWI7h-g-1gO5RlYgTQYTV_u_GWhCop-A_RuAE,,,,,,,,,,,
,,,,,,,,,,,,,,a,1,1.07559,space,0.217845,0,33,33,115,1,0_targ_1_dist_green/trial6.png,,,0,1,greenverival,a,57,23,female,2021-02-23_21h17.45.296,exp11,2020.2.6,Win32,60,IwAR0fbhFbPWBJD8W8ulUltABWI7h-g-1gO5RlYgTQYTV_u_GWhCop-A_RuAE,,,,,,,,,,,
,,,,,,,,,,,,,,a,1,1.30503,space,0.25331,0,34,34,165,1,0_targ_10_dist_green/trial16.png,,,0,10,greenverival,a,57,23,female,2021-02-23_21h17.45.296,exp11,2020.2.6,Win32,60,IwAR0fbhFbPWBJD8W8ulUltABWI7h-g-1gO5RlYgTQYTV_u_GWhCop-A_RuAE,,,,,,,,,,,
,,,,,,,,,,,,,,p,1,0.840245,space,0.283915,0,35,35,83,1,15_dist_green/trial9.png,,,1,15,greenverival,p,57,23,female,2021-02-23_21h17.45.296,exp11,2020.2.6,Win32,60,IwAR0fbhFbPWBJD8W8ulUltABWI7h-g-1gO5RlYgTQYTV_u_GWhCop-A_RuAE,,,,,,,,,,,
,,,,,,,,,,,,,,p,1,0.943325,space,0.274455,0,36,36,34,1,3_dist_green/trial10.png,,,1,3,greenverival,p,57,23,female,2021-02-23_21h17.45.296,exp11,2020.2.6,Win32,60,IwAR0fbhFbPWBJD8W8ulUltABWI7h-g-1gO5RlYgTQYTV_u_GWhCop-A_RuAE,,,,,,,,,,,
,,,,,,,,,,,,,,p,1,0.996235,space,0.23488,0,37,37,80,1,15_dist_green/trial6.png,,,1,15,greenverival,p,57,23,female,2021-02-23_21h17.45.296,exp11,2020.2.6,Win32,60,IwAR0fbhFbPWBJD8W8ulUltABWI7h-g-1gO5RlYgTQYTV_u_GWhCop-A_RuAE,,,,,,,,,,,
,,,,,,,,,,,,,,a,1,0.80916,space,0.29694,0,38,38,166,1,0_targ_10_dist_green/trial17.png,,,0,10,greenverival,a,57,23,female,2021-02-23_21h17.45.296,exp11,2020.2.6,Win32,60,IwAR0fbhFbPWBJD8W8ulUltABWI7h-g-1gO5RlYgTQYTV_u_GWhCop-A_RuAE,,,,,,,,,,,
,,,,,,,,,,,,,,a,1,0.832165,space,0.26856,0,39,39,138,1,0_targ_4_dist_green/trial14.png,,,0,4,greenverival,a,57,23,female,2021-02-23_21h17.45.296,exp11,2020.2.6,Win32,60,IwAR0fbhFbPWBJD8W8ulUltABWI7h-g-1gO5RlYgTQYTV_u_GWhCop-A_RuAE,,,,,,,,,,,
,,,,,,,,,,,,,,p,1,0.663655,space,0.29423,0,40,40,49,1,3_dist_green/trial25.png,,,1,3,greenverival,p,57,23,female,2021-02-23_21h17.45.296,exp11,2020.2.6,Win32,60,IwAR0fbhFbPWBJD8W8ulUltABWI7h-g-1gO5RlYgTQYTV_u_GWhCop-A_RuAE,,,,,,,,,,,
,,,,,,,,,,,,,,p,1,1.259135,space,0.270525,0,41,41,96,1,15_dist_green/trial22.png,,,1,15,greenverival,p,57,23,female,2021-02-23_21h17.45.296,exp11,2020.2.6,Win32,60,IwAR0fbhFbPWBJD8W8ulUltABWI7h-g-1gO5RlYgTQYTV_u_GWhCop-A_RuAE,,,,,,,,,,,
,,,,,,,,,,,,,,a,1,0.99628,space,0.182035,0,42,42,119,1,0_targ_1_dist_green/trial20.png,,,0,1,greenverival,a,57,23,female,2021-02-23_21h17.45.296,exp11,2020.2.6,Win32,60,IwAR0fbhFbPWBJD8W8ulUltABWI7h-g-1gO5RlYgTQYTV_u_GWhCop-A_RuAE,,,,,,,,,,,
,,,,,,,,,,,,,,p,1,0.890265,space,0.32895,0,43,43,81,1,15_dist_green/trial7.png,,,1,15,greenverival,p,57,23,female,2021-02-23_21h17.45.296,exp11,2020.2.6,Win32,60,IwAR0fbhFbPWBJD8W8ulUltABWI7h-g-1gO5RlYgTQYTV_u_GWhCop-A_RuAE,,,,,,,,,,,
,,,,,,,,,,,,,,p,1,0.615435,space,0.28719,0,44,44,11,1,0_dist_green/trial12.png,,,1,0,greenverival,p,57,23,female,2021-02-23_21h17.45.296,exp11,2020.2.6,Win32,60,IwAR0fbhFbPWBJD8W8ulUltABWI7h-g-1gO5RlYgTQYTV_u_GWhCop-A_RuAE,,,,,,,,,,,
,,,,,,,,,,,,,,a,1,0.94385,space,0.18327,0,45,45,147,1,0_targ_4_dist_green/trial23.png,,,0,4,greenverival,a,57,23,female,2021-02-23_21h17.45.296,exp11,2020.2.6,Win32,60,IwAR0fbhFbPWBJD8W8ulUltABWI7h-g-1gO5RlYgTQYTV_u_GWhCop-A_RuAE,,,,,,,,,,,
,,,,,,,,,,,,,,a,1,1.312265,space,0.218895,0,46,46,198,1,0_targ_16_dist_green/trial24.png,,,0,16,greenverival,a,57,23,female,2021-02-23_21h17.45.296,exp11,2020.2.6,Win32,60,IwAR0fbhFbPWBJD8W8ulUltABWI7h-g-1gO5RlYgTQYTV_u_GWhCop-A_RuAE,,,,,,,,,,,
,,,,,,,,,,,,,,p,1,0.69861,space,0.26882,0,47,47,60,1,9_dist_green/trial11.png,,,1,9,greenverival,p,57,23,female,2021-02-23_21h17.45.296,exp11,2020.2.6,Win32,60,IwAR0fbhFbPWBJD8W8ulUltABWI7h-g-1gO5RlYgTQYTV_u_GWhCop-A_RuAE,,,,,,,,,,,
,,,,,,,,,,,,,,p,1,1.26136,space,0.201395,0,48,48,94,1,15_dist_green/trial20.png,,,1,15,greenverival,p,57,23,female,2021-02-23_21h17.45.296,exp11,2020.2.6,Win32,60,IwAR0fbhFbPWBJD8W8ulUltABWI7h-g-1gO5RlYgTQYTV_u_GWhCop-A_RuAE,,,,,,,,,,,
,,,,,,,,,,,,,,p,1,1.11365,space,0.186045,0,49,49,45,1,3_dist_green/trial21.png,,,1,3,greenverival,p,57,23,female,2021-02-23_21h17.45.296,exp11,2020.2.6,Win32,60,IwAR0fbhFbPWBJD8W8ulUltABWI7h-g-1gO5RlYgTQYTV_u_GWhCop-A_RuAE,,,,,,,,,,,
,,,,,,,,,,,,,,p,1,0.897635,space,0.204355,0,50,50,78,1,15_dist_green/trial4.png,,,1,15,greenverival,p,57,23,female,2021-02-23_21h17.45.296,exp11,2020.2.6,Win32,60,IwAR0fbhFbPWBJD8W8ulUltABWI7h-g-1gO5RlYgTQYTV_u_GWhCop-A_RuAE,,,,,,,,,,,
,,,,,,,,,,,,,,p,1,1.144315,space,0.22186,0,51,51,76,1,15_dist_green/trial2.png,,,1,15,greenverival,p,57,23,female,2021-02-23_21h17.45.296,exp11,2020.2.6,Win32,60,IwAR0fbhFbPWBJD8W8ulUltABWI7h-g-1gO5RlYgTQYTV_u_GWhCop-A_RuAE,,,,,,,,,,,
,,,,,,,,,,,,,,p,1,0.88826,space,0.153625,0,52,52,14,1,0_dist_green/trial15.png,,,1,0,greenverival,p,57,23,female,2021-02-23_21h17.45.296,exp11,2020.2.6,Win32,60,IwAR0fbhFbPWBJD8W8ulUltABWI7h-g-1gO5RlYgTQYTV_u_GWhCop-A_RuAE,,,,,,,,,,,
,,,,,,,,,,,,,,p,1,0.8028,space,0.17445,0,53,53,70,1,9_dist_green/trial21.png,,,1,9,greenverival,p,57,23,female,2021-02-23_21h17.45.296,exp11,2020.2.6,Win32,60,IwAR0fbhFbPWBJD8W8ulUltABWI7h-g-1gO5RlYgTQYTV_u_GWhCop-A_RuAE,,,,,,,,,,,
,,,,,,,,,,,,,,p,1,0.999445,space,0.166825,0,54,54,98,1,15_dist_green/trial24.png,,,1,15,greenverival,p,57,23,female,2021-02-23_21h17.45.296,exp11,2020.2.6,Win32,60,IwAR0fbhFbPWBJD8W8ulUltABWI7h-g-1gO5RlYgTQYTV_u_GWhCop-A_RuAE,,,,,,,,,,,
,,,,,,,,,,,,,,a,1,1.280195,space,0.167895,0,55,55,152,1,0_targ_10_dist_green/trial3.png,,,0,10,greenverival,a,57,23,female,2021-02-23_21h17.45.296,exp11,2020.2.6,Win32,60,IwAR0fbhFbPWBJD8W8ulUltABWI7h-g-1gO5RlYgTQYTV_u_GWhCop-A_RuAE,,,,,,,,,,,
,,,,,,,,,,,,,,a,1,1.94882,space,0.616445,0,56,56,149,1,0_targ_4_dist_green/trial25.png,,,0,4,greenverival,a,57,23,female,2021-02-23_21h17.45.296,exp11,2020.2.6,Win32,60,IwAR0fbhFbPWBJD8W8ulUltABWI7h-g-1gO5RlYgTQYTV_u_GWhCop-A_RuAE,,,,,,,,,,,
,,,,,,,,,,,,,,p,1,0.63347,space,0.282135,0,57,57,12,1,0_dist_green/trial13.png,,,1,0,greenverival,p,57,23,female,2021-02-23_21h17.45.296,exp11,2020.2.6,Win32,60,IwAR0fbhFbPWBJD8W8ulUltABWI7h-g-1gO5RlYgTQYTV_u_GWhCop-A_RuAE,,,,,,,,,,,
,,,,,,,,,,,,,,a,1,1.05501,space,0.2788,0,58,58,146,1,0_targ_4_dist_green/trial22.png,,,0,4,greenverival,a,57,23,female,2021-02-23_21h17.45.296,exp11,2020.2.6,Win32,60,IwAR0fbhFbPWBJD8W8ulUltABWI7h-g-1gO5RlYgTQYTV_u_GWhCop-A_RuAE,,,,,,,,,,,
,,,,,,,,,,,,,,p,1,0.52672,space,0.35272,0,59,59,7,1,0_dist_green/trial8.png,,,1,0,greenverival,p,57,23,female,2021-02-23_21h17.45.296,exp11,2020.2.6,Win32,60,IwAR0fbhFbPWBJD8W8ulUltABWI7h-g-1gO5RlYgTQYTV_u_GWhCop-A_RuAE,,,,,,,,,,,
,,,,,,,,,,,,,,p,1,0.58532,space,0.322085,0,60,60,0,1,0_dist_green/trial1.png,,,1,0,greenverival,p,57,23,female,2021-02-23_21h17.45.296,exp11,2020.2.6,Win32,60,IwAR0fbhFbPWBJD8W8ulUltABWI7h-g-1gO5RlYgTQYTV_u_GWhCop-A_RuAE,,,,,,,,,,,
,,,,,,,,,,,,,,a,1,1.35908,space,0.267875,0,61,61,193,1,0_targ_16_dist_green/trial19.png,,,0,16,greenverival,a,57,23,female,2021-02-23_21h17.45.296,exp11,2020.2.6,Win32,60,IwAR0fbhFbPWBJD8W8ulUltABWI7h-g-1gO5RlYgTQYTV_u_GWhCop-A_RuAE,,,,,,,,,,,
,,,,,,,,,,,,,,p,1,1.647315,space,0.49902,0,62,62,89,1,15_dist_green/trial15.png,,,1,15,greenverival,p,57,23,female,2021-02-23_21h17.45.296,exp11,2020.2.6,Win32,60,IwAR0fbhFbPWBJD8W8ulUltABWI7h-g-1gO5RlYgTQYTV_u_GWhCop-A_RuAE,,,,,,,,,,,
,,,,,,,,,,,,,,p,1,0.79248,space,0.28339,0,63,63,5,1,0_dist_green/trial6.png,,,1,0,greenverival,p,57,23,female,2021-02-23_21h17.45.296,exp11,2020.2.6,Win32,60,IwAR0fbhFbPWBJD8W8ulUltABWI7h-g-1gO5RlYgTQYTV_u_GWhCop-A_RuAE,,,,,,,,,,,
,,,,,,,,,,,,,,p,1,1.977645,space,0.15834,0,64,64,86,1,15_dist_green/trial12.png,,,1,15,greenverival,p,57,23,female,2021-02-23_21h17.45.296,exp11,2020.2.6,Win32,60,IwAR0fbhFbPWBJD8W8ulUltABWI7h-g-1gO5RlYgTQYTV_u_GWhCop-A_RuAE,,,,,,,,,,,
,,,,,,,,,,,,,,a,1,1.14327,space,0.368805,0,65,65,178,1,0_targ_16_dist_green/trial4.png,,,0,16,greenverival,a,57,23,female,2021-02-23_21h17.45.296,exp11,2020.2.6,Win32,60,IwAR0fbhFbPWBJD8W8ulUltABWI7h-g-1gO5RlYgTQYTV_u_GWhCop-A_RuAE,,,,,,,,,,,
,,,,,,,,,,,,,,a,1,0.780035,space,0.40146,0,66,66,175,1,0_targ_16_dist_green/trial1.png,,,0,16,greenverival,a,57,23,female,2021-02-23_21h17.45.296,exp11,2020.2.6,Win32,60,IwAR0fbhFbPWBJD8W8ulUltABWI7h-g-1gO5RlYgTQYTV_u_GWhCop-A_RuAE,,,,,,,,,,,
,,,,,,,,,,,,,,a,1,0.74034,space,0.252245,0,67,67,102,1,0_targ_1_dist_green/trial3.png,,,0,1,greenverival,a,57,23,female,2021-02-23_21h17.45.296,exp11,2020.2.6,Win32,60,IwAR0fbhFbPWBJD8W8ulUltABWI7h-g-1gO5RlYgTQYTV_u_GWhCop-A_RuAE,,,,,,,,,,,
,,,,,,,,,,,,,,p,1,0.5972,space,0.25373,0,68,68,16,1,0_dist_green/trial17.png,,,1,0,greenverival,p,57,23,female,2021-02-23_21h17.45.296,exp11,2020.2.6,Win32,60,IwAR0fbhFbPWBJD8W8ulUltABWI7h-g-1gO5RlYgTQYTV_u_GWhCop-A_RuAE,,,,,,,,,,,
,,,,,,,,,,,,,,a,1,0.613495,space,0.217195,0,69,69,100,1,0_targ_1_dist_green/trial1.png,,,0,1,greenverival,a,57,23,female,2021-02-23_21h17.45.296,exp11,2020.2.6,Win32,60,IwAR0fbhFbPWBJD8W8ulUltABWI7h-g-1gO5RlYgTQYTV_u_GWhCop-A_RuAE,,,,,,,,,,,
,,,,,,,,,,,,,,a,1,1.21515,space,0.16695,0,70,70,122,1,0_targ_1_dist_green/trial23.png,,,0,1,greenverival,a,57,23,female,2021-02-23_21h17.45.296,exp11,2020.2.6,Win32,60,IwAR0fbhFbPWBJD8W8ulUltABWI7h-g-1gO5RlYgTQYTV_u_GWhCop-A_RuAE,,,,,,,,,,,
,,,,,,,,,,,,,,a,1,1.41471,space,0.16089,0,71,71,143,1,0_targ_4_dist_green/trial19.png,,,0,4,greenverival,a,57,23,female,2021-02-23_21h17.45.296,exp11,2020.2.6,Win32,60,IwAR0fbhFbPWBJD8W8ulUltABWI7h-g-1gO5RlYgTQYTV_u_GWhCop-A_RuAE,,,,,,,,,,,
,,,,,,,,,,,,,,a,1,1.59368,space,0.31509,0,72,72,185,1,0_targ_16_dist_green/trial11.png,,,0,16,greenverival,a,57,23,female,2021-02-23_21h17.45.296,exp11,2020.2.6,Win32,60,IwAR0fbhFbPWBJD8W8ulUltABWI7h-g-1gO5RlYgTQYTV_u_GWhCop-A_RuAE,,,,,,,,,,,
,,,,,,,,,,,,,,a,1,1.372425,space,0.199885,0,73,73,109,1,0_targ_1_dist_green/trial10.png,,,0,1,greenverival,a,57,23,female,2021-02-23_21h17.45.296,exp11,2020.2.6,Win32,60,IwAR0fbhFbPWBJD8W8ulUltABWI7h-g-1gO5RlYgTQYTV_u_GWhCop-A_RuAE,,,,,,,,,,,
,,,,,,,,,,,,,,p,1,0.6822,space,0.284025,0,74,74,30,1,3_dist_green/trial6.png,,,1,3,greenverival,p,57,23,female,2021-02-23_21h17.45.296,exp11,2020.2.6,Win32,60,IwAR0fbhFbPWBJD8W8ulUltABWI7h-g-1gO5RlYgTQYTV_u_GWhCop-A_RuAE,,,,,,,,,,,
,,,,,,,,,,,,,,p,1,0.68549,space,0.236475,0,75,75,84,1,15_dist_green/trial10.png,,,1,15,greenverival,p,57,23,female,2021-02-23_21h17.45.296,exp11,2020.2.6,Win32,60,IwAR0fbhFbPWBJD8W8ulUltABWI7h-g-1gO5RlYgTQYTV_u_GWhCop-A_RuAE,,,,,,,,,,,
,,,,,,,,,,,,,,a,1,0.61742,space,0.252955,0,76,76,103,1,0_targ_1_dist_green/trial4.png,,,0,1,greenverival,a,57,23,female,2021-02-23_21h17.45.296,exp11,2020.2.6,Win32,60,IwAR0fbhFbPWBJD8W8ulUltABWI7h-g-1gO5RlYgTQYTV_u_GWhCop-A_RuAE,,,,,,,,,,,
,,,,,,,,,,,,,,p,1,1.42295,space,0.23446,0,77,77,28,1,3_dist_green/trial4.png,,,1,3,greenverival,p,57,23,female,2021-02-23_21h17.45.296,exp11,2020.2.6,Win32,60,IwAR0fbhFbPWBJD8W8ulUltABWI7h-g-1gO5RlYgTQYTV_u_GWhCop-A_RuAE,,,,,,,,,,,
,,,,,,,,,,,,,,p,1,0.657925,space,0.2017,0,78,78,31,1,3_dist_green/trial7.png,,,1,3,greenverival,p,57,23,female,2021-02-23_21h17.45.296,exp11,2020.2.6,Win32,60,IwAR0fbhFbPWBJD8W8ulUltABWI7h-g-1gO5RlYgTQYTV_u_GWhCop-A_RuAE,,,,,,,,,,,
,,,,,,,,,,,,,,p,1,1.290505,space,0.198695,0,79,79,91,1,15_dist_green/trial17.png,,,1,15,greenverival,p,57,23,female,2021-02-23_21h17.45.296,exp11,2020.2.6,Win32,60,IwAR0fbhFbPWBJD8W8ulUltABWI7h-g-1gO5RlYgTQYTV_u_GWhCop-A_RuAE,,,,,,,,,,,
,,,,,,,,,,,,,,p,1,0.717705,space,0.18661,0,80,80,53,1,9_dist_green/trial4.png,,,1,9,greenverival,p,57,23,female,2021-02-23_21h17.45.296,exp11,2020.2.6,Win32,60,IwAR0fbhFbPWBJD8W8ulUltABWI7h-g-1gO5RlYgTQYTV_u_GWhCop-A_RuAE,,,,,,,,,,,
,,,,,,,,,,,,,,a,1,0.64578,space,0.23547,0,81,81,104,1,0_targ_1_dist_green/trial5.png,,,0,1,greenverival,a,57,23,female,2021-02-23_21h17.45.296,exp11,2020.2.6,Win32,60,IwAR0fbhFbPWBJD8W8ulUltABWI7h-g-1gO5RlYgTQYTV_u_GWhCop-A_RuAE,,,,,,,,,,,
,,,,,,,,,,,,,,a,1,0.781675,space,0.178895,0,82,82,120,1,0_targ_1_dist_green/trial21.png,,,0,1,greenverival,a,57,23,female,2021-02-23_21h17.45.296,exp11,2020.2.6,Win32,60,IwAR0fbhFbPWBJD8W8ulUltABWI7h-g-1gO5RlYgTQYTV_u_GWhCop-A_RuAE,,,,,,,,,,,
,,,,,,,,,,,,,,p,1,0.5808,space,0.3191,0,83,83,33,1,3_dist_green/trial9.png,,,1,3,greenverival,p,57,23,female,2021-02-23_21h17.45.296,exp11,2020.2.6,Win32,60,IwAR0fbhFbPWBJD8W8ulUltABWI7h-g-1gO5RlYgTQYTV_u_GWhCop-A_RuAE,,,,,,,,,,,
,,,,,,,,,,,,,,a,1,0.99689,space,0.17224,0,84,84,134,1,0_targ_4_dist_green/trial10.png,,,0,4,greenverival,a,57,23,female,2021-02-23_21h17.45.296,exp11,2020.2.6,Win32,60,IwAR0fbhFbPWBJD8W8ulUltABWI7h-g-1gO5RlYgTQYTV_u_GWhCop-A_RuAE,,,,,,,,,,,
,,,,,,,,,,,,,,p,1,0.66589,space,0.204965,0,85,85,66,1,9_dist_green/trial17.png,,,1,9,greenverival,p,57,23,female,2021-02-23_21h17.45.296,exp11,2020.2.6,Win32,60,IwAR0fbhFbPWBJD8W8ulUltABWI7h-g-1gO5RlYgTQYTV_u_GWhCop-A_RuAE,,,,,,,,,,,
,,,,,,,,,,,,,,p,1,0.59523,space,0.20219,0,86,86,58,1,9_dist_green/trial9.png,,,1,9,greenverival,p,57,23,female,2021-02-23_21h17.45.296,exp11,2020.2.6,Win32,60,IwAR0fbhFbPWBJD8W8ulUltABWI7h-g-1gO5RlYgTQYTV_u_GWhCop-A_RuAE,,,,,,,,,,,
,,,,,,,,,,,,,,a,1,0.629525,space,0.1507,0,87,87,128,1,0_targ_4_dist_green/trial4.png,,,0,4,greenverival,a,57,23,female,2021-02-23_21h17.45.296,exp11,2020.2.6,Win32,60,IwAR0fbhFbPWBJD8W8ulUltABWI7h-g-1gO5RlYgTQYTV_u_GWhCop-A_RuAE,,,,,,,,,,,
,,,,,,,,,,,,,,a,1,1.146965,space,0.167255,0,88,88,113,1,0_targ_1_dist_green/trial14.png,,,0,1,greenverival,a,57,23,female,2021-02-23_21h17.45.296,exp11,2020.2.6,Win32,60,IwAR0fbhFbPWBJD8W8ulUltABWI7h-g-1gO5RlYgTQYTV_u_GWhCop-A_RuAE,,,,,,,,,,,
,,,,,,,,,,,,,,p,0,2.024105,space,7.299925,0,89,89,173,1,0_targ_10_dist_green/trial24.png,,,0,10,greenverival,a,57,23,female,2021-02-23_21h17.45.296,exp11,2020.2.6,Win32,60,IwAR0fbhFbPWBJD8W8ulUltABWI7h-g-1gO5RlYgTQYTV_u_GWhCop-A_RuAE,,,,,,,,,,,
,,,,,,,,,,,,,,p,1,1.52572,space,0.147965,0,90,90,74,1,9_dist_green/trial25.png,,,1,9,greenverival,p,57,23,female,2021-02-23_21h17.45.296,exp11,2020.2.6,Win32,60,IwAR0fbhFbPWBJD8W8ulUltABWI7h-g-1gO5RlYgTQYTV_u_GWhCop-A_RuAE,,,,,,,,,,,
,,,,,,,,,,,,,,a,1,0.948955,space,0.112355,0,91,91,111,1,0_targ_1_dist_green/trial12.png,,,0,1,greenverival,a,57,23,female,2021-02-23_21h17.45.296,exp11,2020.2.6,Win32,60,IwAR0fbhFbPWBJD8W8ulUltABWI7h-g-1gO5RlYgTQYTV_u_GWhCop-A_RuAE,,,,,,,,,,,
,,,,,,,,,,,,,,a,1,0.617915,space,0.16926,0,92,92,101,1,0_targ_1_dist_green/trial2.png,,,0,1,greenverival,a,57,23,female,2021-02-23_21h17.45.296,exp11,2020.2.6,Win32,60,IwAR0fbhFbPWBJD8W8ulUltABWI7h-g-1gO5RlYgTQYTV_u_GWhCop-A_RuAE,,,,,,,,,,,
,,,,,,,,,,,,,,p,1,0.600565,space,0.200175,0,93,93,41,1,3_dist_green/trial17.png,,,1,3,greenverival,p,57,23,female,2021-02-23_21h17.45.296,exp11,2020.2.6,Win32,60,IwAR0fbhFbPWBJD8W8ulUltABWI7h-g-1gO5RlYgTQYTV_u_GWhCop-A_RuAE,,,,,,,,,,,
,,,,,,,,,,,,,,a,1,2.60028,space,0.13306,0,94,94,112,1,0_targ_1_dist_green/trial13.png,,,0,1,greenverival,a,57,23,female,2021-02-23_21h17.45.296,exp11,2020.2.6,Win32,60,IwAR0fbhFbPWBJD8W8ulUltABWI7h-g-1gO5RlYgTQYTV_u_GWhCop-A_RuAE,,,,,,,,,,,
,,,,,,,,,,,,,,a,1,1.9242,space,0.12211,0,95,95,105,1,0_targ_1_dist_green/trial6.png,,,0,1,greenverival,a,57,23,female,2021-02-23_21h17.45.296,exp11,2020.2.6,Win32,60,IwAR0fbhFbPWBJD8W8ulUltABWI7h-g-1gO5RlYgTQYTV_u_GWhCop-A_RuAE,,,,,,,,,,,
,,,,,,,,,,,,,,p,1,0.59546,space,0.15495,0,96,96,64,1,9_dist_green/trial15.png,,,1,9,greenverival,p,57,23,female,2021-02-23_21h17.45.296,exp11,2020.2.6,Win32,60,IwAR0fbhFbPWBJD8W8ulUltABWI7h-g-1gO5RlYgTQYTV_u_GWhCop-A_RuAE,,,,,,,,,,,
,,,,,,,,,,,,,,a,1,1.51823,space,0.16848,0,97,97,116,1,0_targ_1_dist_green/trial17.png,,,0,1,greenverival,a,57,23,female,2021-02-23_21h17.45.296,exp11,2020.2.6,Win32,60,IwAR0fbhFbPWBJD8W8ulUltABWI7h-g-1gO5RlYgTQYTV_u_GWhCop-A_RuAE,,,,,,,,,,,
,,,,,,,,,,,,,,p,1,0.97925,space,0.153445,0,98,98,79,1,15_dist_green/trial5.png,,,1,15,greenverival,p,57,23,female,2021-02-23_21h17.45.296,exp11,2020.2.6,Win32,60,IwAR0fbhFbPWBJD8W8ulUltABWI7h-g-1gO5RlYgTQYTV_u_GWhCop-A_RuAE,,,,,,,,,,,
,,,,,,,,,,,,,,a,1,1.862165,space,0.265145,0,99,99,176,1,0_targ_16_dist_green/trial2.png,,,0,16,greenverival,a,57,23,female,2021-02-23_21h17.45.296,exp11,2020.2.6,Win32,60,IwAR0fbhFbPWBJD8W8ulUltABWI7h-g-1gO5RlYgTQYTV_u_GWhCop-A_RuAE,,,,,,,,,,,
,,,,,,,,,,,,,,a,1,0.61805,space,0.16872,0,100,100,124,1,0_targ_1_dist_green/trial25.png,,,0,1,greenverival,a,57,23,female,2021-02-23_21h17.45.296,exp11,2020.2.6,Win32,60,IwAR0fbhFbPWBJD8W8ulUltABWI7h-g-1gO5RlYgTQYTV_u_GWhCop-A_RuAE,,,,,,,,,,,
,,,,,,,,,,,,,,p,1,0.562275,space,0.152665,0,101,101,22,1,0_dist_green/trial23.png,,,1,0,greenverival,p,57,23,female,2021-02-23_21h17.45.296,exp11,2020.2.6,Win32,60,IwAR0fbhFbPWBJD8W8ulUltABWI7h-g-1gO5RlYgTQYTV_u_GWhCop-A_RuAE,,,,,,,,,,,
,,,,,,,,,,,,,,p,1,0.611855,space,0.187435,0,102,102,19,1,0_dist_green/trial20.png,,,1,0,greenverival,p,57,23,female,2021-02-23_21h17.45.296,exp11,2020.2.6,Win32,60,IwAR0fbhFbPWBJD8W8ulUltABWI7h-g-1gO5RlYgTQYTV_u_GWhCop-A_RuAE,,,,,,,,,,,
,,,,,,,,,,,,,,p,1,0.76196,space,0.153755,0,103,103,50,1,9_dist_green/trial1.png,,,1,9,greenverival,p,57,23,female,2021-02-23_21h17.45.296,exp11,2020.2.6,Win32,60,IwAR0fbhFbPWBJD8W8ulUltABWI7h-g-1gO5RlYgTQYTV_u_GWhCop-A_RuAE,,,,,,,,,,,
,,,,,,,,,,,,,,p,1,0.649705,space,0.123375,0,104,104,73,1,9_dist_green/trial24.png,,,1,9,greenverival,p,57,23,female,2021-02-23_21h17.45.296,exp11,2020.2.6,Win32,60,IwAR0fbhFbPWBJD8W8ulUltABWI7h-g-1gO5RlYgTQYTV_u_GWhCop-A_RuAE,,,,,,,,,,,
,,,,,,,,,,,,,,a,1,0.90857,space,0.118255,0,105,105,159,1,0_targ_10_dist_green/trial10.png,,,0,10,greenverival,a,57,23,female,2021-02-23_21h17.45.296,exp11,2020.2.6,Win32,60,IwAR0fbhFbPWBJD8W8ulUltABWI7h-g-1gO5RlYgTQYTV_u_GWhCop-A_RuAE,,,,,,,,,,,
,,,,,,,,,,,,,,p,1,0.515085,space,0.18364,0,106,106,3,1,0_dist_green/trial4.png,,,1,0,greenverival,p,57,23,female,2021-02-23_21h17.45.296,exp11,2020.2.6,Win32,60,IwAR0fbhFbPWBJD8W8ulUltABWI7h-g-1gO5RlYgTQYTV_u_GWhCop-A_RuAE,,,,,,,,,,,
,,,,,,,,,,,,,,a,1,0.61197,space,0.19484,0,107,107,108,1,0_targ_1_dist_green/trial9.png,,,0,1,greenverival,a,57,23,female,2021-02-23_21h17.45.296,exp11,2020.2.6,Win32,60,IwAR0fbhFbPWBJD8W8ulUltABWI7h-g-1gO5RlYgTQYTV_u_GWhCop-A_RuAE,,,,,,,,,,,
,,,,,,,,,,,,,,a,1,0.638115,space,0.13342,0,108,108,140,1,0_targ_4_dist_green/trial6.png,,,0,4,greenverival,a,57,23,female,2021-02-23_21h17.45.296,exp11,2020.2.6,Win32,60,IwAR0fbhFbPWBJD8W8ulUltABWI7h-g-1gO5RlYgTQYTV_u_GWhCop-A_RuAE,,,,,,,,,,,
,,,,,,,,,,,,,,p,1,0.54698,space,0.172705,0,109,109,9,1,0_dist_green/trial10.png,,,1,0,greenverival,p,57,23,female,2021-02-23_21h17.45.296,exp11,2020.2.6,Win32,60,IwAR0fbhFbPWBJD8W8ulUltABWI7h-g-1gO5RlYgTQYTV_u_GWhCop-A_RuAE,,,,,,,,,,,
,,,,,,,,,,,,,,a,1,0.65892,space,0.129195,0,110,110,141,1,0_targ_4_dist_green/trial17.png,,,0,4,greenverival,a,57,23,female,2021-02-23_21h17.45.296,exp11,2020.2.6,Win32,60,IwAR0fbhFbPWBJD8W8ulUltABWI7h-g-1gO5RlYgTQYTV_u_GWhCop-A_RuAE,,,,,,,,,,,
,,,,,,,,,,,,,,p,1,1.107275,space,0.20175,0,111,111,92,1,15_dist_green/trial18.png,,,1,15,greenverival,p,57,23,female,2021-02-23_21h17.45.296,exp11,2020.2.6,Win32,60,IwAR0fbhFbPWBJD8W8ulUltABWI7h-g-1gO5RlYgTQYTV_u_GWhCop-A_RuAE,,,,,,,,,,,
,,,,,,,,,,,,,,a,1,1.570985,space,0.148845,0,112,112,154,1,0_targ_10_dist_green/trial5.png,,,0,10,greenverival,a,57,23,female,2021-02-23_21h17.45.296,exp11,2020.2.6,Win32,60,IwAR0fbhFbPWBJD8W8ulUltABWI7h-g-1gO5RlYgTQYTV_u_GWhCop-A_RuAE,,,,,,,,,,,
,,,,,,,,,,,,,,p,1,0.525825,space,0.184885,0,113,113,57,1,9_dist_green/trial8.png,,,1,9,greenverival,p,57,23,female,2021-02-23_21h17.45.296,exp11,2020.2.6,Win32,60,IwAR0fbhFbPWBJD8W8ulUltABWI7h-g-1gO5RlYgTQYTV_u_GWhCop-A_RuAE,,,,,,,,,,,
,,,,,,,,,,,,,,p,1,0.84451,space,0.08463,0,114,114,82,1,15_dist_green/trial8.png,,,1,15,greenverival,p,57,23,female,2021-02-23_21h17.45.296,exp11,2020.2.6,Win32,60,IwAR0fbhFbPWBJD8W8ulUltABWI7h-g-1gO5RlYgTQYTV_u_GWhCop-A_RuAE,,,,,,,,,,,
,,,,,,,,,,,,,,a,1,1.133135,space,0.0351,0,115,115,180,1,0_targ_16_dist_green/trial6.png,,,0,16,greenverival,a,57,23,female,2021-02-23_21h17.45.296,exp11,2020.2.6,Win32,60,IwAR0fbhFbPWBJD8W8ulUltABWI7h-g-1gO5RlYgTQYTV_u_GWhCop-A_RuAE,,,,,,,,,,,
,,,,,,,,,,,,,,p,1,1.032735,space,0.03057,0,116,116,69,1,9_dist_green/trial20.png,,,1,9,greenverival,p,57,23,female,2021-02-23_21h17.45.296,exp11,2020.2.6,Win32,60,IwAR0fbhFbPWBJD8W8ulUltABWI7h-g-1gO5RlYgTQYTV_u_GWhCop-A_RuAE,,,,,,,,,,,
,,,,,,,,,,,,,,a,0,1.042055,space,2.604745,0,117,117,71,1,9_dist_green/trial22.png,,,1,9,greenverival,p,57,23,female,2021-02-23_21h17.45.296,exp11,2020.2.6,Win32,60,IwAR0fbhFbPWBJD8W8ulUltABWI7h-g-1gO5RlYgTQYTV_u_GWhCop-A_RuAE,,,,,,,,,,,
,,,,,,,,,,,,,,p,1,6.950825,space,0.51609,0,118,118,65,1,9_dist_green/trial16.png,,,1,9,greenverival,p,57,23,female,2021-02-23_21h17.45.296,exp11,2020.2.6,Win32,60,IwAR0fbhFbPWBJD8W8ulUltABWI7h-g-1gO5RlYgTQYTV_u_GWhCop-A_RuAE,,,,,,,,,,,
,,,,,,,,,,,,,,a,1,1.85411,space,0.25279,0,119,119,153,1,0_targ_10_dist_green/trial4.png,,,0,10,greenverival,a,57,23,female,2021-02-23_21h17.45.296,exp11,2020.2.6,Win32,60,IwAR0fbhFbPWBJD8W8ulUltABWI7h-g-1gO5RlYgTQYTV_u_GWhCop-A_RuAE,,,,,,,,,,,
,,,,,,,,,,,,,,a,1,1.0042,space,0.249755,0,120,120,169,1,0_targ_10_dist_green/trial20.png,,,0,10,greenverival,a,57,23,female,2021-02-23_21h17.45.296,exp11,2020.2.6,Win32,60,IwAR0fbhFbPWBJD8W8ulUltABWI7h-g-1gO5RlYgTQYTV_u_GWhCop-A_RuAE,,,,,,,,,,,
,,,,,,,,,,,,,,p,1,0.856505,space,0.287845,0,121,121,15,1,0_dist_green/trial16.png,,,1,0,greenverival,p,57,23,female,2021-02-23_21h17.45.296,exp11,2020.2.6,Win32,60,IwAR0fbhFbPWBJD8W8ulUltABWI7h-g-1gO5RlYgTQYTV_u_GWhCop-A_RuAE,,,,,,,,,,,
,,,,,,,,,,,,,,p,0,1.117255,space,1.94943,0,122,122,164,1,0_targ_10_dist_green/trial15.png,,,0,10,greenverival,a,57,23,female,2021-02-23_21h17.45.296,exp11,2020.2.6,Win32,60,IwAR0fbhFbPWBJD8W8ulUltABWI7h-g-1gO5RlYgTQYTV_u_GWhCop-A_RuAE,,,,,,,,,,,
,,,,,,,,,,,,,,p,1,1.642725,space,0.115165,0,123,123,39,1,3_dist_green/trial15.png,,,1,3,greenverival,p,57,23,female,2021-02-23_21h17.45.296,exp11,2020.2.6,Win32,60,IwAR0fbhFbPWBJD8W8ulUltABWI7h-g-1gO5RlYgTQYTV_u_GWhCop-A_RuAE,,,,,,,,,,,
,,,,,,,,,,,,,,a,1,1.405095,space,0.16503,0,124,124,174,1,0_targ_10_dist_green/trial25.png,,,0,10,greenverival,a,57,23,female,2021-02-23_21h17.45.296,exp11,2020.2.6,Win32,60,IwAR0fbhFbPWBJD8W8ulUltABWI7h-g-1gO5RlYgTQYTV_u_GWhCop-A_RuAE,,,,,,,,,,,
,,,,,,,,,,,,,,a,1,0.723065,space,0.204075,0,125,125,106,1,0_targ_1_dist_green/trial7.png,,,0,1,greenverival,a,57,23,female,2021-02-23_21h17.45.296,exp11,2020.2.6,Win32,60,IwAR0fbhFbPWBJD8W8ulUltABWI7h-g-1gO5RlYgTQYTV_u_GWhCop-A_RuAE,,,,,,,,,,,
,,,,,,,,,,,,,,p,1,1.19444,space,0.134425,0,126,126,93,1,15_dist_green/trial19.png,,,1,15,greenverival,p,57,23,female,2021-02-23_21h17.45.296,exp11,2020.2.6,Win32,60,IwAR0fbhFbPWBJD8W8ulUltABWI7h-g-1gO5RlYgTQYTV_u_GWhCop-A_RuAE,,,,,,,,,,,
,,,,,,,,,,,,,,a,1,27.535605,space,0.12322,0,127,127,168,1,0_targ_10_dist_green/trial19.png,,,0,10,greenverival,a,57,23,female,2021-02-23_21h17.45.296,exp11,2020.2.6,Win32,60,IwAR0fbhFbPWBJD8W8ulUltABWI7h-g-1gO5RlYgTQYTV_u_GWhCop-A_RuAE,,,,,,,,,,,
,,,,,,,,,,,,,,a,1,1.282845,space,0.23469,0,128,128,156,1,0_targ_10_dist_green/trial7.png,,,0,10,greenverival,a,57,23,female,2021-02-23_21h17.45.296,exp11,2020.2.6,Win32,60,IwAR0fbhFbPWBJD8W8ulUltABWI7h-g-1gO5RlYgTQYTV_u_GWhCop-A_RuAE,,,,,,,,,,,
,,,,,,,,,,,,,,p,1,0.87705,space,0.11782,0,129,129,88,1,15_dist_green/trial14.png,,,1,15,greenverival,p,57,23,female,2021-02-23_21h17.45.296,exp11,2020.2.6,Win32,60,IwAR0fbhFbPWBJD8W8ulUltABWI7h-g-1gO5RlYgTQYTV_u_GWhCop-A_RuAE,,,,,,,,,,,
,,,,,,,,,,,,,,p,1,1.222065,space,0.13618,0,130,130,90,1,15_dist_green/trial16.png,,,1,15,greenverival,p,57,23,female,2021-02-23_21h17.45.296,exp11,2020.2.6,Win32,60,IwAR0fbhFbPWBJD8W8ulUltABWI7h-g-1gO5RlYgTQYTV_u_GWhCop-A_RuAE,,,,,,,,,,,
,,,,,,,,,,,,,,a,1,0.978345,space,0.23532,0,131,131,177,1,0_targ_16_dist_green/trial3.png,,,0,16,greenverival,a,57,23,female,2021-02-23_21h17.45.296,exp11,2020.2.6,Win32,60,IwAR0fbhFbPWBJD8W8ulUltABWI7h-g-1gO5RlYgTQYTV_u_GWhCop-A_RuAE,,,,,,,,,,,
,,,,,,,,,,,,,,a,1,1.59221,space,0.286405,0,132,132,192,1,0_targ_16_dist_green/trial18.png,,,0,16,greenverival,a,57,23,female,2021-02-23_21h17.45.296,exp11,2020.2.6,Win32,60,IwAR0fbhFbPWBJD8W8ulUltABWI7h-g-1gO5RlYgTQYTV_u_GWhCop-A_RuAE,,,,,,,,,,,
,,,,,,,,,,,,,,a,1,0.840285,space,0.262615,0,133,133,151,1,0_targ_10_dist_green/trial2.png,,,0,10,greenverival,a,57,23,female,2021-02-23_21h17.45.296,exp11,2020.2.6,Win32,60,IwAR0fbhFbPWBJD8W8ulUltABWI7h-g-1gO5RlYgTQYTV_u_GWhCop-A_RuAE,,,,,,,,,,,
,,,,,,,,,,,,,,a,1,1.22969,space,0.2347,0,134,134,199,1,0_targ_16_dist_green/trial25.png,,,0,16,greenverival,a,57,23,female,2021-02-23_21h17.45.296,exp11,2020.2.6,Win32,60,IwAR0fbhFbPWBJD8W8ulUltABWI7h-g-1gO5RlYgTQYTV_u_GWhCop-A_RuAE,,,,,,,,,,,
,,,,,,,,,,,,,,a,1,0.72879,space,0.2308,0,135,135,123,1,0_targ_1_dist_green/trial24.png,,,0,1,greenverival,a,57,23,female,2021-02-23_21h17.45.296,exp11,2020.2.6,Win32,60,IwAR0fbhFbPWBJD8W8ulUltABWI7h-g-1gO5RlYgTQYTV_u_GWhCop-A_RuAE,,,,,,,,,,,
,,,,,,,,,,,,,,p,1,0.7901,space,0.13525,0,136,136,13,1,0_dist_green/trial14.png,,,1,0,greenverival,p,57,23,female,2021-02-23_21h17.45.296,exp11,2020.2.6,Win32,60,IwAR0fbhFbPWBJD8W8ulUltABWI7h-g-1gO5RlYgTQYTV_u_GWhCop-A_RuAE,,,,,,,,,,,
,,,,,,,,,,,,,,a,1,0.970175,space,0.268275,0,137,137,145,1,0_targ_4_dist_green/trial21.png,,,0,4,greenverival,a,57,23,female,2021-02-23_21h17.45.296,exp11,2020.2.6,Win32,60,IwAR0fbhFbPWBJD8W8ulUltABWI7h-g-1gO5RlYgTQYTV_u_GWhCop-A_RuAE,,,,,,,,,,,
,,,,,,,,,,,,,,a,1,0.828445,space,0.196385,0,138,138,117,1,0_targ_1_dist_green/trial18.png,,,0,1,greenverival,a,57,23,female,2021-02-23_21h17.45.296,exp11,2020.2.6,Win32,60,IwAR0fbhFbPWBJD8W8ulUltABWI7h-g-1gO5RlYgTQYTV_u_GWhCop-A_RuAE,,,,,,,,,,,
,,,,,,,,,,,,,,a,1,1.492355,space,0.25258,0,139,139,183,1,0_targ_16_dist_green/trial9.png,,,0,16,greenverival,a,57,23,female,2021-02-23_21h17.45.296,exp11,2020.2.6,Win32,60,IwAR0fbhFbPWBJD8W8ulUltABWI7h-g-1gO5RlYgTQYTV_u_GWhCop-A_RuAE,,,,,,,,,,,
,,,,,,,,,,,,,,a,1,0.69498,space,0.23822,0,140,140,127,1,0_targ_4_dist_green/trial3.png,,,0,4,greenverival,a,57,23,female,2021-02-23_21h17.45.296,exp11,2020.2.6,Win32,60,IwAR0fbhFbPWBJD8W8ulUltABWI7h-g-1gO5RlYgTQYTV_u_GWhCop-A_RuAE,,,,,,,,,,,
,,,,,,,,,,,,,,a,1,0.68595,space,0.23529,0,141,141,126,1,0_targ_4_dist_green/trial2.png,,,0,4,greenverival,a,57,23,female,2021-02-23_21h17.45.296,exp11,2020.2.6,Win32,60,IwAR0fbhFbPWBJD8W8ulUltABWI7h-g-1gO5RlYgTQYTV_u_GWhCop-A_RuAE,,,,,,,,,,,
,,,,,,,,,,,,,,p,1,1.0523,space,0.12168,0,142,142,61,1,9_dist_green/trial12.png,,,1,9,greenverival,p,57,23,female,2021-02-23_21h17.45.296,exp11,2020.2.6,Win32,60,IwAR0fbhFbPWBJD8W8ulUltABWI7h-g-1gO5RlYgTQYTV_u_GWhCop-A_RuAE,,,,,,,,,,,
,,,,,,,,,,,,,,p,1,0.64569,space,0.14947,0,143,143,8,1,0_dist_green/trial9.png,,,1,0,greenverival,p,57,23,female,2021-02-23_21h17.45.296,exp11,2020.2.6,Win32,60,IwAR0fbhFbPWBJD8W8ulUltABWI7h-g-1gO5RlYgTQYTV_u_GWhCop-A_RuAE,,,,,,,,,,,
,,,,,,,,,,,,,,a,1,0.78644,space,0.223305,0,144,144,144,1,0_targ_4_dist_green/trial20.png,,,0,4,greenverival,a,57,23,female,2021-02-23_21h17.45.296,exp11,2020.2.6,Win32,60,IwAR0fbhFbPWBJD8W8ulUltABWI7h-g-1gO5RlYgTQYTV_u_GWhCop-A_RuAE,,,,,,,,,,,
,,,,,,,,,,,,,,a,1,1.968055,space,0.22064,0,145,145,182,1,0_targ_16_dist_green/trial8.png,,,0,16,greenverival,a,57,23,female,2021-02-23_21h17.45.296,exp11,2020.2.6,Win32,60,IwAR0fbhFbPWBJD8W8ulUltABWI7h-g-1gO5RlYgTQYTV_u_GWhCop-A_RuAE,,,,,,,,,,,
,,,,,,,,,,,,,,p,1,0.709915,space,0.285975,0,146,146,48,1,3_dist_green/trial24.png,,,1,3,greenverival,p,57,23,female,2021-02-23_21h17.45.296,exp11,2020.2.6,Win32,60,IwAR0fbhFbPWBJD8W8ulUltABWI7h-g-1gO5RlYgTQYTV_u_GWhCop-A_RuAE,,,,,,,,,,,
,,,,,,,,,,,,,,p,1,0.624,space,0.158415,0,147,147,29,1,3_dist_green/trial5.png,,,1,3,greenverival,p,57,23,female,2021-02-23_21h17.45.296,exp11,2020.2.6,Win32,60,IwAR0fbhFbPWBJD8W8ulUltABWI7h-g-1gO5RlYgTQYTV_u_GWhCop-A_RuAE,,,,,,,,,,,
,,,,,,,,,,,,,,p,1,0.847655,space,0.07947,0,148,148,17,1,0_dist_green/trial18.png,,,1,0,greenverival,p,57,23,female,2021-02-23_21h17.45.296,exp11,2020.2.6,Win32,60,IwAR0fbhFbPWBJD8W8ulUltABWI7h-g-1gO5RlYgTQYTV_u_GWhCop-A_RuAE,,,,,,,,,,,
,,,,,,,,,,,,,,p,1,0.76494,space,0.11794,0,149,149,26,1,3_dist_green/trial2.png,,,1,3,greenverival,p,57,23,female,2021-02-23_21h17.45.296,exp11,2020.2.6,Win32,60,IwAR0fbhFbPWBJD8W8ulUltABWI7h-g-1gO5RlYgTQYTV_u_GWhCop-A_RuAE,,,,,,,,,,,
,,,,,,,,,,,,,,a,1,1.319235,space,0.202955,0,150,150,191,1,0_targ_16_dist_green/trial17.png,,,0,16,greenverival,a,57,23,female,2021-02-23_21h17.45.296,exp11,2020.2.6,Win32,60,IwAR0fbhFbPWBJD8W8ulUltABWI7h-g-1gO5RlYgTQYTV_u_GWhCop-A_RuAE,,,,,,,,,,,
,,,,,,,,,,,,,,a,1,0.786105,space,0.17971,0,151,151,196,1,0_targ_16_dist_green/trial22.png,,,0,16,greenverival,a,57,23,female,2021-02-23_21h17.45.296,exp11,2020.2.6,Win32,60,IwAR0fbhFbPWBJD8W8ulUltABWI7h-g-1gO5RlYgTQYTV_u_GWhCop-A_RuAE,,,,,,,,,,,
,,,,,,,,,,,,,,a,1,0.66255,space,0.201275,0,152,152,129,1,0_targ_4_dist_green/trial5.png,,,0,4,greenverival,a,57,23,female,2021-02-23_21h17.45.296,exp11,2020.2.6,Win32,60,IwAR0fbhFbPWBJD8W8ulUltABWI7h-g-1gO5RlYgTQYTV_u_GWhCop-A_RuAE,,,,,,,,,,,
,,,,,,,,,,,,,,p,1,0.96342,space,0.10352,0,153,153,68,1,9_dist_green/trial19.png,,,1,9,greenverival,p,57,23,female,2021-02-23_21h17.45.296,exp11,2020.2.6,Win32,60,IwAR0fbhFbPWBJD8W8ulUltABWI7h-g-1gO5RlYgTQYTV_u_GWhCop-A_RuAE,,,,,,,,,,,
,,,,,,,,,,,,,,p,1,0.57182,space,0.10122,0,154,154,87,1,15_dist_green/trial13.png,,,1,15,greenverival,p,57,23,female,2021-02-23_21h17.45.296,exp11,2020.2.6,Win32,60,IwAR0fbhFbPWBJD8W8ulUltABWI7h-g-1gO5RlYgTQYTV_u_GWhCop-A_RuAE,,,,,,,,,,,
,,,,,,,,,,,,,,a,1,0.699755,space,0.16898,0,155,155,139,1,0_targ_4_dist_green/trial15.png,,,0,4,greenverival,a,57,23,female,2021-02-23_21h17.45.296,exp11,2020.2.6,Win32,60,IwAR0fbhFbPWBJD8W8ulUltABWI7h-g-1gO5RlYgTQYTV_u_GWhCop-A_RuAE,,,,,,,,,,,
,,,,,,,,,,,,,,a,1,0.685175,space,0.18355,0,156,156,133,1,0_targ_4_dist_green/trial9.png,,,0,4,greenverival,a,57,23,female,2021-02-23_21h17.45.296,exp11,2020.2.6,Win32,60,IwAR0fbhFbPWBJD8W8ulUltABWI7h-g-1gO5RlYgTQYTV_u_GWhCop-A_RuAE,,,,,,,,,,,
,,,,,,,,,,,,,,p,1,0.65799,space,0.12116,0,157,157,21,1,0_dist_green/trial22.png,,,1,0,greenverival,p,57,23,female,2021-02-23_21h17.45.296,exp11,2020.2.6,Win32,60,IwAR0fbhFbPWBJD8W8ulUltABWI7h-g-1gO5RlYgTQYTV_u_GWhCop-A_RuAE,,,,,,,,,,,
,,,,,,,,,,,,,,p,1,0.527705,space,0.11812,0,158,158,23,1,0_dist_green/trial24.png,,,1,0,greenverival,p,57,23,female,2021-02-23_21h17.45.296,exp11,2020.2.6,Win32,60,IwAR0fbhFbPWBJD8W8ulUltABWI7h-g-1gO5RlYgTQYTV_u_GWhCop-A_RuAE,,,,,,,,,,,
,,,,,,,,,,,,,,p,1,0.742595,space,0.102835,0,159,159,59,1,9_dist_green/trial10.png,,,1,9,greenverival,p,57,23,female,2021-02-23_21h17.45.296,exp11,2020.2.6,Win32,60,IwAR0fbhFbPWBJD8W8ulUltABWI7h-g-1gO5RlYgTQYTV_u_GWhCop-A_RuAE,,,,,,,,,,,
,,,,,,,,,,,,,,a,1,0.795815,space,0.167295,0,160,160,135,1,0_targ_4_dist_green/trial11.png,,,0,4,greenverival,a,57,23,female,2021-02-23_21h17.45.296,exp11,2020.2.6,Win32,60,IwAR0fbhFbPWBJD8W8ulUltABWI7h-g-1gO5RlYgTQYTV_u_GWhCop-A_RuAE,,,,,,,,,,,
,,,,,,,,,,,,,,a,1,0.78356,space,0.179545,0,161,161,110,1,0_targ_1_dist_green/trial11.png,,,0,1,greenverival,a,57,23,female,2021-02-23_21h17.45.296,exp11,2020.2.6,Win32,60,IwAR0fbhFbPWBJD8W8ulUltABWI7h-g-1gO5RlYgTQYTV_u_GWhCop-A_RuAE,,,,,,,,,,,
,,,,,,,,,,,,,,a,1,1.12142,space,0.167415,0,162,162,172,1,0_targ_10_dist_green/trial23.png,,,0,10,greenverival,a,57,23,female,2021-02-23_21h17.45.296,exp11,2020.2.6,Win32,60,IwAR0fbhFbPWBJD8W8ulUltABWI7h-g-1gO5RlYgTQYTV_u_GWhCop-A_RuAE,,,,,,,,,,,
,,,,,,,,,,,,,,a,1,0.739955,space,0.20705,0,163,163,107,1,0_targ_1_dist_green/trial8.png,,,0,1,greenverival,a,57,23,female,2021-02-23_21h17.45.296,exp11,2020.2.6,Win32,60,IwAR0fbhFbPWBJD8W8ulUltABWI7h-g-1gO5RlYgTQYTV_u_GWhCop-A_RuAE,,,,,,,,,,,
,,,,,,,,,,,,,,p,1,1.29846,space,0.086775,0,164,164,95,1,15_dist_green/trial21.png,,,1,15,greenverival,p,57,23,female,2021-02-23_21h17.45.296,exp11,2020.2.6,Win32,60,IwAR0fbhFbPWBJD8W8ulUltABWI7h-g-1gO5RlYgTQYTV_u_GWhCop-A_RuAE,,,,,,,,,,,
,,,,,,,,,,,,,,a,1,1.437945,space,0.228525,0,165,165,181,1,0_targ_16_dist_green/trial7.png,,,0,16,greenverival,a,57,23,female,2021-02-23_21h17.45.296,exp11,2020.2.6,Win32,60,IwAR0fbhFbPWBJD8W8ulUltABWI7h-g-1gO5RlYgTQYTV_u_GWhCop-A_RuAE,,,,,,,,,,,
,,,,,,,,,,,,,,a,1,1.15543,space,0.167945,0,166,166,171,1,0_targ_10_dist_green/trial22.png,,,0,10,greenverival,a,57,23,female,2021-02-23_21h17.45.296,exp11,2020.2.6,Win32,60,IwAR0fbhFbPWBJD8W8ulUltABWI7h-g-1gO5RlYgTQYTV_u_GWhCop-A_RuAE,,,,,,,,,,,
,,,,,,,,,,,,,,p,1,0.847255,space,0.20167,0,167,167,63,1,9_dist_green/trial14.png,,,1,9,greenverival,p,57,23,female,2021-02-23_21h17.45.296,exp11,2020.2.6,Win32,60,IwAR0fbhFbPWBJD8W8ulUltABWI7h-g-1gO5RlYgTQYTV_u_GWhCop-A_RuAE,,,,,,,,,,,
,,,,,,,,,,,,,,p,1,0.91296,space,0.150745,0,168,168,27,1,3_dist_green/trial3.png,,,1,3,greenverival,p,57,23,female,2021-02-23_21h17.45.296,exp11,2020.2.6,Win32,60,IwAR0fbhFbPWBJD8W8ulUltABWI7h-g-1gO5RlYgTQYTV_u_GWhCop-A_RuAE,,,,,,,,,,,
,,,,,,,,,,,,,,p,1,0.578465,space,0.085065,0,169,169,37,1,3_dist_green/trial13.png,,,1,3,greenverival,p,57,23,female,2021-02-23_21h17.45.296,exp11,2020.2.6,Win32,60,IwAR0fbhFbPWBJD8W8ulUltABWI7h-g-1gO5RlYgTQYTV_u_GWhCop-A_RuAE,,,,,,,,,,,
,,,,,,,,,,,,,,p,1,0.81065,space,0.08777,0,170,170,54,1,9_dist_green/trial5.png,,,1,9,greenverival,p,57,23,female,2021-02-23_21h17.45.296,exp11,2020.2.6,Win32,60,IwAR0fbhFbPWBJD8W8ulUltABWI7h-g-1gO5RlYgTQYTV_u_GWhCop-A_RuAE,,,,,,,,,,,
,,,,,,,,,,,,,,a,1,0.76388,space,0.190085,0,171,171,158,1,0_targ_10_dist_green/trial9.png,,,0,10,greenverival,a,57,23,female,2021-02-23_21h17.45.296,exp11,2020.2.6,Win32,60,IwAR0fbhFbPWBJD8W8ulUltABWI7h-g-1gO5RlYgTQYTV_u_GWhCop-A_RuAE,,,,,,,,,,,
,,,,,,,,,,,,,,a,1,0.68801,space,0.169875,0,172,172,118,1,0_targ_1_dist_green/trial19.png,,,0,1,greenverival,a,57,23,female,2021-02-23_21h17.45.296,exp11,2020.2.6,Win32,60,IwAR0fbhFbPWBJD8W8ulUltABWI7h-g-1gO5RlYgTQYTV_u_GWhCop-A_RuAE,,,,,,,,,,,
,,,,,,,,,,,,,,a,1,0.76354,space,0.170275,0,173,173,121,1,0_targ_1_dist_green/trial22.png,,,0,1,greenverival,a,57,23,female,2021-02-23_21h17.45.296,exp11,2020.2.6,Win32,60,IwAR0fbhFbPWBJD8W8ulUltABWI7h-g-1gO5RlYgTQYTV_u_GWhCop-A_RuAE,,,,,,,,,,,
,,,,,,,,,,,,,,a,1,1.1768,space,0.15264,0,174,174,142,1,0_targ_4_dist_green/trial18.png,,,0,4,greenverival,a,57,23,female,2021-02-23_21h17.45.296,exp11,2020.2.6,Win32,60,IwAR0fbhFbPWBJD8W8ulUltABWI7h-g-1gO5RlYgTQYTV_u_GWhCop-A_RuAE,,,,,,,,,,,
,,,,,,,,,,,,,,p,1,0.63924,space,0.153615,0,175,175,4,1,0_dist_green/trial5.png,,,1,0,greenverival,p,57,23,female,2021-02-23_21h17.45.296,exp11,2020.2.6,Win32,60,IwAR0fbhFbPWBJD8W8ulUltABWI7h-g-1gO5RlYgTQYTV_u_GWhCop-A_RuAE,,,,,,,,,,,
,,,,,,,,,,,,,,p,1,1.288965,space,0.097805,0,176,176,72,1,9_dist_green/trial23.png,,,1,9,greenverival,p,57,23,female,2021-02-23_21h17.45.296,exp11,2020.2.6,Win32,60,IwAR0fbhFbPWBJD8W8ulUltABWI7h-g-1gO5RlYgTQYTV_u_GWhCop-A_RuAE,,,,,,,,,,,
,,,,,,,,,,,,,,a,1,0.963395,space,0.16169,0,177,177,170,1,0_targ_10_dist_green/trial21.png,,,0,10,greenverival,a,57,23,female,2021-02-23_21h17.45.296,exp11,2020.2.6,Win32,60,IwAR0fbhFbPWBJD8W8ulUltABWI7h-g-1gO5RlYgTQYTV_u_GWhCop-A_RuAE,,,,,,,,,,,
,,,,,,,,,,,,,,a,1,2.033935,space,0.197685,0,178,178,186,1,0_targ_16_dist_green/trial12.png,,,0,16,greenverival,a,57,23,female,2021-02-23_21h17.45.296,exp11,2020.2.6,Win32,60,IwAR0fbhFbPWBJD8W8ulUltABWI7h-g-1gO5RlYgTQYTV_u_GWhCop-A_RuAE,,,,,,,,,,,
,,,,,,,,,,,,,,a,1,1.25768,space,0.183965,0,179,179,162,1,0_targ_10_dist_green/trial13.png,,,0,10,greenverival,a,57,23,female,2021-02-23_21h17.45.296,exp11,2020.2.6,Win32,60,IwAR0fbhFbPWBJD8W8ulUltABWI7h-g-1gO5RlYgTQYTV_u_GWhCop-A_RuAE,,,,,,,,,,,
,,,,,,,,,,,,,,p,1,0.570175,space,0.117635,0,180,180,20,1,0_dist_green/trial21.png,,,1,0,greenverival,p,57,23,female,2021-02-23_21h17.45.296,exp11,2020.2.6,Win32,60,IwAR0fbhFbPWBJD8W8ulUltABWI7h-g-1gO5RlYgTQYTV_u_GWhCop-A_RuAE,,,,,,,,,,,
,,,,,,,,,,,,,,p,1,0.56369,space,0.12065,0,181,181,32,1,3_dist_green/trial8.png,,,1,3,greenverival,p,57,23,female,2021-02-23_21h17.45.296,exp11,2020.2.6,Win32,60,IwAR0fbhFbPWBJD8W8ulUltABWI7h-g-1gO5RlYgTQYTV_u_GWhCop-A_RuAE,,,,,,,,,,,
,,,,,,,,,,,,,,p,1,0.54335,space,0.08743,0,182,182,38,1,3_dist_green/trial14.png,,,1,3,greenverival,p,57,23,female,2021-02-23_21h17.45.296,exp11,2020.2.6,Win32,60,IwAR0fbhFbPWBJD8W8ulUltABWI7h-g-1gO5RlYgTQYTV_u_GWhCop-A_RuAE,,,,,,,,,,,
,,,,,,,,,,,,,,p,1,1.013125,space,0.06839,0,183,183,10,1,0_dist_green/trial11.png,,,1,0,greenverival,p,57,23,female,2021-02-23_21h17.45.296,exp11,2020.2.6,Win32,60,IwAR0fbhFbPWBJD8W8ulUltABWI7h-g-1gO5RlYgTQYTV_u_GWhCop-A_RuAE,,,,,,,,,,,
,,,,,,,,,,,,,,p,1,0.498775,space,0.095605,0,184,184,44,1,3_dist_green/trial20.png,,,1,3,greenverival,p,57,23,female,2021-02-23_21h17.45.296,exp11,2020.2.6,Win32,60,IwAR0fbhFbPWBJD8W8ulUltABWI7h-g-1gO5RlYgTQYTV_u_GWhCop-A_RuAE,,,,,,,,,,,
,,,,,,,,,,,,,,a,1,0.745405,space,0.20041,0,185,185,131,1,0_targ_4_dist_green/trial7.png,,,0,4,greenverival,a,57,23,female,2021-02-23_21h17.45.296,exp11,2020.2.6,Win32,60,IwAR0fbhFbPWBJD8W8ulUltABWI7h-g-1gO5RlYgTQYTV_u_GWhCop-A_RuAE,,,,,,,,,,,
,,,,,,,,,,,,,,p,1,0.600745,space,0.116685,0,186,186,35,1,3_dist_green/trial11.png,,,1,3,greenverival,p,57,23,female,2021-02-23_21h17.45.296,exp11,2020.2.6,Win32,60,IwAR0fbhFbPWBJD8W8ulUltABWI7h-g-1gO5RlYgTQYTV_u_GWhCop-A_RuAE,,,,,,,,,,,
,,,,,,,,,,,,,,a,1,1.270305,space,0.17073,0,187,187,136,1,0_targ_4_dist_green/trial12.png,,,0,4,greenverival,a,57,23,female,2021-02-23_21h17.45.296,exp11,2020.2.6,Win32,60,IwAR0fbhFbPWBJD8W8ulUltABWI7h-g-1gO5RlYgTQYTV_u_GWhCop-A_RuAE,,,,,,,,,,,
,,,,,,,,,,,,,,p,1,0.577535,space,0.13502,0,188,188,43,1,3_dist_green/trial19.png,,,1,3,greenverival,p,57,23,female,2021-02-23_21h17.45.296,exp11,2020.2.6,Win32,60,IwAR0fbhFbPWBJD8W8ulUltABWI7h-g-1gO5RlYgTQYTV_u_GWhCop-A_RuAE,,,,,,,,,,,
,,,,,,,,,,,,,,p,1,0.880315,space,0.10314,0,189,189,62,1,9_dist_green/trial13.png,,,1,9,greenverival,p,57,23,female,2021-02-23_21h17.45.296,exp11,2020.2.6,Win32,60,IwAR0fbhFbPWBJD8W8ulUltABWI7h-g-1gO5RlYgTQYTV_u_GWhCop-A_RuAE,,,,,,,,,,,
,,,,,,,,,,,,,,a,1,0.939765,space,0.285405,0,190,190,195,1,0_targ_16_dist_green/trial21.png,,,0,16,greenverival,a,57,23,female,2021-02-23_21h17.45.296,exp11,2020.2.6,Win32,60,IwAR0fbhFbPWBJD8W8ulUltABWI7h-g-1gO5RlYgTQYTV_u_GWhCop-A_RuAE,,,,,,,,,,,
,,,,,,,,,,,,,,p,1,0.500575,space,0.184365,0,191,191,6,1,0_dist_green/trial7.png,,,1,0,greenverival,p,57,23,female,2021-02-23_21h17.45.296,exp11,2020.2.6,Win32,60,IwAR0fbhFbPWBJD8W8ulUltABWI7h-g-1gO5RlYgTQYTV_u_GWhCop-A_RuAE,,,,,,,,,,,
,,,,,,,,,,,,,,p,1,0.623505,space,0.102235,0,192,192,56,1,9_dist_green/trial7.png,,,1,9,greenverival,p,57,23,female,2021-02-23_21h17.45.296,exp11,2020.2.6,Win32,60,IwAR0fbhFbPWBJD8W8ulUltABWI7h-g-1gO5RlYgTQYTV_u_GWhCop-A_RuAE,,,,,,,,,,,
,,,,,,,,,,,,,,a,1,1.357505,space,0.2919,0,193,193,187,1,0_targ_16_dist_green/trial13.png,,,0,16,greenverival,a,57,23,female,2021-02-23_21h17.45.296,exp11,2020.2.6,Win32,60,IwAR0fbhFbPWBJD8W8ulUltABWI7h-g-1gO5RlYgTQYTV_u_GWhCop-A_RuAE,,,,,,,,,,,
,,,,,,,,,,,,,,p,1,0.723435,space,0.10766,0,194,194,1,1,0_dist_green/trial2.png,,,1,0,greenverival,p,57,23,female,2021-02-23_21h17.45.296,exp11,2020.2.6,Win32,60,IwAR0fbhFbPWBJD8W8ulUltABWI7h-g-1gO5RlYgTQYTV_u_GWhCop-A_RuAE,,,,,,,,,,,
,,,,,,,,,,,,,,a,1,1.485745,space,0.301215,0,195,195,148,1,0_targ_4_dist_green/trial24.png,,,0,4,greenverival,a,57,23,female,2021-02-23_21h17.45.296,exp11,2020.2.6,Win32,60,IwAR0fbhFbPWBJD8W8ulUltABWI7h-g-1gO5RlYgTQYTV_u_GWhCop-A_RuAE,,,,,,,,,,,
,,,,,,,,,,,,,,a,1,0.97479,space,0.212635,0,196,196,161,1,0_targ_10_dist_green/trial12.png,,,0,10,greenverival,a,57,23,female,2021-02-23_21h17.45.296,exp11,2020.2.6,Win32,60,IwAR0fbhFbPWBJD8W8ulUltABWI7h-g-1gO5RlYgTQYTV_u_GWhCop-A_RuAE,,,,,,,,,,,
,,,,,,,,,,,,,,a,1,1.388845,space,0.294735,0,197,197,114,1,0_targ_1_dist_green/trial15.png,,,0,1,greenverival,a,57,23,female,2021-02-23_21h17.45.296,exp11,2020.2.6,Win32,60,IwAR0fbhFbPWBJD8W8ulUltABWI7h-g-1gO5RlYgTQYTV_u_GWhCop-A_RuAE,,,,,,,,,,,
,,,,,,,,,,,,,,a,1,1.54584,space,0.17437,0,198,198,189,1,0_targ_16_dist_green/trial15.png,,,0,16,greenverival,a,57,23,female,2021-02-23_21h17.45.296,exp11,2020.2.6,Win32,60,IwAR0fbhFbPWBJD8W8ulUltABWI7h-g-1gO5RlYgTQYTV_u_GWhCop-A_RuAE,,,,,,,,,,,
,,,,,,,,,,,,,,p,1,0.47739,space,0.135425,0,199,199,18,1,0_dist_green/trial19.png,,,1,0,greenverival,p,57,23,female,2021-02-23_21h17.45.296,exp11,2020.2.6,Win32,60,IwAR0fbhFbPWBJD8W8ulUltABWI7h-g-1gO5RlYgTQYTV_u_GWhCop-A_RuAE,,,,,,,,,,,
,,,,,,,,,,,,,,,,,,,,,,,,,,,,,,,57,23,female,2021-02-23_21h17.45.296,exp11,2020.2.6,Win32,60,IwAR0fbhFbPWBJD8W8ulUltABWI7h-g-1gO5RlYgTQYTV_u_GWhCop-A_RuAE,0,0,0,0,1,conGreen.xlsx,green vertical,Look for green vertical bar (target) and indicate if it is present or absent in the array. If green vertical target is present press 'p' and if absent press 'a'. Press SPACE to start.,,,
,,,,,,,,,,space,10.69739,space,1.375725,p,1,1.07737,space,0.112255,0,0,0,8,1,0_dist_red/trial9.png,,,1,0,redHorizontal,p,57,23,female,2021-02-23_21h17.45.296,exp11,2020.2.6,Win32,60,IwAR0fbhFbPWBJD8W8ulUltABWI7h-g-1gO5RlYgTQYTV_u_GWhCop-A_RuAE,,,,,,,,,,,
,,,,,,,,,,,,,,p,1,0.607915,space,0.1041,0,1,1,1,1,0_dist_red/trial2.png,,,1,0,redHorizontal,p,57,23,female,2021-02-23_21h17.45.296,exp11,2020.2.6,Win32,60,IwAR0fbhFbPWBJD8W8ulUltABWI7h-g-1gO5RlYgTQYTV_u_GWhCop-A_RuAE,,,,,,,,,,,
,,,,,,,,,,,,,,p,1,0.905995,space,0.11304,0,2,2,62,1,9_dist_red/trial13.png,,,1,9,redHorizontal,p,57,23,female,2021-02-23_21h17.45.296,exp11,2020.2.6,Win32,60,IwAR0fbhFbPWBJD8W8ulUltABWI7h-g-1gO5RlYgTQYTV_u_GWhCop-A_RuAE,,,,,,,,,,,
,,,,,,,,,,,,,,a,1,1.21641,space,0.200295,0,3,3,150,1,0_targ_10_dist_red/trial1.png,,,0,10,redHorizontal,a,57,23,female,2021-02-23_21h17.45.296,exp11,2020.2.6,Win32,60,IwAR0fbhFbPWBJD8W8ulUltABWI7h-g-1gO5RlYgTQYTV_u_GWhCop-A_RuAE,,,,,,,,,,,
,,,,,,,,,,,,,,p,1,0.79254,space,0.101335,0,4,4,47,1,3_dist_red/trial23.png,,,1,3,redHorizontal,p,57,23,female,2021-02-23_21h17.45.296,exp11,2020.2.6,Win32,60,IwAR0fbhFbPWBJD8W8ulUltABWI7h-g-1gO5RlYgTQYTV_u_GWhCop-A_RuAE,,,,,,,,,,,
,,,,,,,,,,,,,,p,1,1.20263,space,0.10097,0,5,5,36,1,3_dist_red/trial12.png,,,1,3,redHorizontal,p,57,23,female,2021-02-23_21h17.45.296,exp11,2020.2.6,Win32,60,IwAR0fbhFbPWBJD8W8ulUltABWI7h-g-1gO5RlYgTQYTV_u_GWhCop-A_RuAE,,,,,,,,,,,
,,,,,,,,,,,,,,p,1,1.00575,space,0.085545,0,6,6,13,1,0_dist_red/trial14.png,,,1,0,redHorizontal,p,57,23,female,2021-02-23_21h17.45.296,exp11,2020.2.6,Win32,60,IwAR0fbhFbPWBJD8W8ulUltABWI7h-g-1gO5RlYgTQYTV_u_GWhCop-A_RuAE,,,,,,,,,,,
,,,,,,,,,,,,,,a,1,2.04424,space,0.134965,0,7,7,178,1,0_targ_16_dist_red/trial4.png,,,0,16,redHorizontal,a,57,23,female,2021-02-23_21h17.45.296,exp11,2020.2.6,Win32,60,IwAR0fbhFbPWBJD8W8ulUltABWI7h-g-1gO5RlYgTQYTV_u_GWhCop-A_RuAE,,,,,,,,,,,
,,,,,,,,,,,,,,a,1,1.14592,space,0.101235,0,8,8,110,1,0_targ_1_dist_red/trial11.png,,,0,1,redHorizontal,a,57,23,female,2021-02-23_21h17.45.296,exp11,2020.2.6,Win32,60,IwAR0fbhFbPWBJD8W8ulUltABWI7h-g-1gO5RlYgTQYTV_u_GWhCop-A_RuAE,,,,,,,,,,,
,,,,,,,,,,,,,,p,1,0.985785,space,0.101055,0,9,9,78,1,15_dist_red/trial4.png,,,1,15,redHorizontal,p,57,23,female,2021-02-23_21h17.45.296,exp11,2020.2.6,Win32,60,IwAR0fbhFbPWBJD8W8ulUltABWI7h-g-1gO5RlYgTQYTV_u_GWhCop-A_RuAE,,,,,,,,,,,
,,,,,,,,,,,,,,p,1,1.42384,space,0.13308,0,10,10,84,1,15_dist_red/trial10.png,,,1,15,redHorizontal,p,57,23,female,2021-02-23_21h17.45.296,exp11,2020.2.6,Win32,60,IwAR0fbhFbPWBJD8W8ulUltABWI7h-g-1gO5RlYgTQYTV_u_GWhCop-A_RuAE,,,,,,,,,,,
,,,,,,,,,,,,,,p,1,0.667795,space,0.09972,0,11,11,0,1,0_dist_red/trial1.png,,,1,0,redHorizontal,p,57,23,female,2021-02-23_21h17.45.296,exp11,2020.2.6,Win32,60,IwAR0fbhFbPWBJD8W8ulUltABWI7h-g-1gO5RlYgTQYTV_u_GWhCop-A_RuAE,,,,,,,,,,,
,,,,,,,,,,,,,,p,1,0.58183,space,0.10073,0,12,12,6,1,0_dist_red/trial7.png,,,1,0,redHorizontal,p,57,23,female,2021-02-23_21h17.45.296,exp11,2020.2.6,Win32,60,IwAR0fbhFbPWBJD8W8ulUltABWI7h-g-1gO5RlYgTQYTV_u_GWhCop-A_RuAE,,,,,,,,,,,
,,,,,,,,,,,,,,a,1,1.0071,space,0.134615,0,13,13,136,1,0_targ_4_dist_red/trial12.png,,,0,4,redHorizontal,a,57,23,female,2021-02-23_21h17.45.296,exp11,2020.2.6,Win32,60,IwAR0fbhFbPWBJD8W8ulUltABWI7h-g-1gO5RlYgTQYTV_u_GWhCop-A_RuAE,,,,,,,,,,,
,,,,,,,,,,,,,,p,1,0.77965,space,0.10168,0,14,14,52,1,9_dist_red/trial3.png,,,1,9,redHorizontal,p,57,23,female,2021-02-23_21h17.45.296,exp11,2020.2.6,Win32,60,IwAR0fbhFbPWBJD8W8ulUltABWI7h-g-1gO5RlYgTQYTV_u_GWhCop-A_RuAE,,,,,,,,,,,
,,,,,,,,,,,,,,p,1,0.866215,space,0.067225,0,15,15,66,1,9_dist_red/trial17.png,,,1,9,redHorizontal,p,57,23,female,2021-02-23_21h17.45.296,exp11,2020.2.6,Win32,60,IwAR0fbhFbPWBJD8W8ulUltABWI7h-g-1gO5RlYgTQYTV_u_GWhCop-A_RuAE,,,,,,,,,,,
,,,,,,,,,,,,,,a,1,1.257755,space,0.13511,0,16,16,198,1,0_targ_16_dist_red/trial24.png,,,0,16,redHorizontal,a,57,23,female,2021-02-23_21h17.45.296,exp11,2020.2.6,Win32,60,IwAR0fbhFbPWBJD8W8ulUltABWI7h-g-1gO5RlYgTQYTV_u_GWhCop-A_RuAE,,,,,,,,,,,
,,,,,,,,,,,,,,p,1,0.83529,space,0.08858,0,17,17,95,1,15_dist_red/trial21.png,,,1,15,redHorizontal,p,57,23,female,2021-02-23_21h17.45.296,exp11,2020.2.6,Win32,60,IwAR0fbhFbPWBJD8W8ulUltABWI7h-g-1gO5RlYgTQYTV_u_GWhCop-A_RuAE,,,,,,,,,,,
,,,,,,,,,,,,,,a,1,1.960445,space,0.08506,0,18,18,144,1,0_targ_4_dist_red/trial20.png,,,0,4,redHorizontal,a,57,23,female,2021-02-23_21h17.45.296,exp11,2020.2.6,Win32,60,IwAR0fbhFbPWBJD8W8ulUltABWI7h-g-1gO5RlYgTQYTV_u_GWhCop-A_RuAE,,,,,,,,,,,
,,,,,,,,,,,,,,p,1,0.612645,space,0.07468,0,19,19,38,1,3_dist_red/trial14.png,,,1,3,redHorizontal,p,57,23,female,2021-02-23_21h17.45.296,exp11,2020.2.6,Win32,60,IwAR0fbhFbPWBJD8W8ulUltABWI7h-g-1gO5RlYgTQYTV_u_GWhCop-A_RuAE,,,,,,,,,,,
,,,,,,,,,,,,,,p,1,2.14314,space,0.11721,0,20,20,31,1,3_dist_red/trial7.png,,,1,3,redHorizontal,p,57,23,female,2021-02-23_21h17.45.296,exp11,2020.2.6,Win32,60,IwAR0fbhFbPWBJD8W8ulUltABWI7h-g-1gO5RlYgTQYTV_u_GWhCop-A_RuAE,,,,,,,,,,,
,,,,,,,,,,,,,,p,1,1.380405,space,0.134665,0,21,21,15,1,0_dist_red/trial16.png,,,1,0,redHorizontal,p,57,23,female,2021-02-23_21h17.45.296,exp11,2020.2.6,Win32,60,IwAR0fbhFbPWBJD8W8ulUltABWI7h-g-1gO5RlYgTQYTV_u_GWhCop-A_RuAE,,,,,,,,,,,
,,,,,,,,,,,,,,a,0,2.56986,space,1.266395,0,22,22,71,1,9_dist_red/trial22.png,,,1,9,redHorizontal,p,57,23,female,2021-02-23_21h17.45.296,exp11,2020.2.6,Win32,60,IwAR0fbhFbPWBJD8W8ulUltABWI7h-g-1gO5RlYgTQYTV_u_GWhCop-A_RuAE,,,,,,,,,,,
,,,,,,,,,,,,,,a,1,5.095755,space,0.116355,0,23,23,167,1,0_targ_10_dist_red/trial18.png,,,0,10,redHorizontal,a,57,23,female,2021-02-23_21h17.45.296,exp11,2020.2.6,Win32,60,IwAR0fbhFbPWBJD8W8ulUltABWI7h-g-1gO5RlYgTQYTV_u_GWhCop-A_RuAE,,,,,,,,,,,
,,,,,,,,,,,,,,p,1,1.99334,space,0.11764,0,24,24,3,1,0_dist_red/trial4.png,,,1,0,redHorizontal,p,57,23,female,2021-02-23_21h17.45.296,exp11,2020.2.6,Win32,60,IwAR0fbhFbPWBJD8W8ulUltABWI7h-g-1gO5RlYgTQYTV_u_GWhCop-A_RuAE,,,,,,,,,,,
,,,,,,,,,,,,,,p,1,0.545285,space,0.106195,0,25,25,11,1,0_dist_red/trial12.png,,,1,0,redHorizontal,p,57,23,female,2021-02-23_21h17.45.296,exp11,2020.2.6,Win32,60,IwAR0fbhFbPWBJD8W8ulUltABWI7h-g-1gO5RlYgTQYTV_u_GWhCop-A_RuAE,,,,,,,,,,,
,,,,,,,,,,,,,,a,1,1.06641,space,0.151605,0,26,26,148,1,0_targ_4_dist_red/trial24.png,,,0,4,redHorizontal,a,57,23,female,2021-02-23_21h17.45.296,exp11,2020.2.6,Win32,60,IwAR0fbhFbPWBJD8W8ulUltABWI7h-g-1gO5RlYgTQYTV_u_GWhCop-A_RuAE,,,,,,,,,,,
,,,,,,,,,,,,,,a,0,0.047105,space,4.76207,0,27,27,85,1,15_dist_red/trial11.png,,,1,15,redHorizontal,p,57,23,female,2021-02-23_21h17.45.296,exp11,2020.2.6,Win32,60,IwAR0fbhFbPWBJD8W8ulUltABWI7h-g-1gO5RlYgTQYTV_u_GWhCop-A_RuAE,,,,,,,,,,,
,,,,,,,,,,,,,,p,1,2.127015,space,0.045465,0,28,28,34,1,3_dist_red/trial10.png,,,1,3,redHorizontal,p,57,23,female,2021-02-23_21h17.45.296,exp11,2020.2.6,Win32,60,IwAR0fbhFbPWBJD8W8ulUltABWI7h-g-1gO5RlYgTQYTV_u_GWhCop-A_RuAE,,,,,,,,,,,
,,,,,,,,,,,,,,a,1,2.079045,space,0.166575,0,29,29,183,1,0_targ_16_dist_red/trial9.png,,,0,16,redHorizontal,a,57,23,female,2021-02-23_21h17.45.296,exp11,2020.2.6,Win32,60,IwAR0fbhFbPWBJD8W8ulUltABWI7h-g-1gO5RlYgTQYTV_u_GWhCop-A_RuAE,,,,,,,,,,,
,,,,,,,,,,,,,,p,1,0.93224,space,0.103145,0,30,30,21,1,0_dist_red/trial22.png,,,1,0,redHorizontal,p,57,23,female,2021-02-23_21h17.45.296,exp11,2020.2.6,Win32,60,IwAR0fbhFbPWBJD8W8ulUltABWI7h-g-1gO5RlYgTQYTV_u_GWhCop-A_RuAE,,,,,,,,,,,
,,,,,,,,,,,,,,p,1,0.810745,space,0.15171,0,31,31,68,1,9_dist_red/trial19.png,,,1,9,redHorizontal,p,57,23,female,2021-02-23_21h17.45.296,exp11,2020.2.6,Win32,60,IwAR0fbhFbPWBJD8W8ulUltABWI7h-g-1gO5RlYgTQYTV_u_GWhCop-A_RuAE,,,,,,,,,,,
,,,,,,,,,,,,,,a,1,0.982225,space,0.21817,0,32,32,182,1,0_targ_16_dist_red/trial8.png,,,0,16,redHorizontal,a,57,23,female,2021-02-23_21h17.45.296,exp11,2020.2.6,Win32,60,IwAR0fbhFbPWBJD8W8ulUltABWI7h-g-1gO5RlYgTQYTV_u_GWhCop-A_RuAE,,,,,,,,,,,
,,,,,,,,,,,,,,a,1,0.99356,space,0.16805,0,33,33,145,1,0_targ_4_dist_red/trial21.png,,,0,4,redHorizontal,a,57,23,female,2021-02-23_21h17.45.296,exp11,2020.2.6,Win32,60,IwAR0fbhFbPWBJD8W8ulUltABWI7h-g-1gO5RlYgTQYTV_u_GWhCop-A_RuAE,,,,,,,,,,,
,,,,,,,,,,,,,,p,1,1.01543,space,0.11674,0,34,34,69,1,9_dist_red/trial20.png,,,1,9,redHorizontal,p,57,23,female,2021-02-23_21h17.45.296,exp11,2020.2.6,Win32,60,IwAR0fbhFbPWBJD8W8ulUltABWI7h-g-1gO5RlYgTQYTV_u_GWhCop-A_RuAE,,,,,,,,,,,
,,,,,,,,,,,,,,p,1,0.62569,space,0.117,0,35,35,92,1,15_dist_red/trial18.png,,,1,15,redHorizontal,p,57,23,female,2021-02-23_21h17.45.296,exp11,2020.2.6,Win32,60,IwAR0fbhFbPWBJD8W8ulUltABWI7h-g-1gO5RlYgTQYTV_u_GWhCop-A_RuAE,,,,,,,,,,,
,,,,,,,,,,,,,,a,1,0.94282,space,0.15025,0,36,36,173,1,0_targ_10_dist_red/trial24.png,,,0,10,redHorizontal,a,57,23,female,2021-02-23_21h17.45.296,exp11,2020.2.6,Win32,60,IwAR0fbhFbPWBJD8W8ulUltABWI7h-g-1gO5RlYgTQYTV_u_GWhCop-A_RuAE,,,,,,,,,,,
,,,,,,,,,,,,,,a,1,0.85185,space,0.166675,0,37,37,105,1,0_targ_1_dist_red/trial6.png,,,0,1,redHorizontal,a,57,23,female,2021-02-23_21h17.45.296,exp11,2020.2.6,Win32,60,IwAR0fbhFbPWBJD8W8ulUltABWI7h-g-1gO5RlYgTQYTV_u_GWhCop-A_RuAE,,,,,,,,,,,
,,,,,,,,,,,,,,a,1,1.163445,space,0.151155,0,38,38,187,1,0_targ_16_dist_red/trial13.png,,,0,16,redHorizontal,a,57,23,female,2021-02-23_21h17.45.296,exp11,2020.2.6,Win32,60,IwAR0fbhFbPWBJD8W8ulUltABWI7h-g-1gO5RlYgTQYTV_u_GWhCop-A_RuAE,,,,,,,,,,,
,,,,,,,,,,,,,,p,1,0.622255,space,0.11769,0,39,39,48,1,3_dist_red/trial24.png,,,1,3,redHorizontal,p,57,23,female,2021-02-23_21h17.45.296,exp11,2020.2.6,Win32,60,IwAR0fbhFbPWBJD8W8ulUltABWI7h-g-1gO5RlYgTQYTV_u_GWhCop-A_RuAE,,,,,,,,,,,
,,,,,,,,,,,,,,p,1,0.79443,space,0.117785,0,40,40,42,1,3_dist_red/trial18.png,,,1,3,redHorizontal,p,57,23,female,2021-02-23_21h17.45.296,exp11,2020.2.6,Win32,60,IwAR0fbhFbPWBJD8W8ulUltABWI7h-g-1gO5RlYgTQYTV_u_GWhCop-A_RuAE,,,,,,,,,,,
,,,,,,,,,,,,,,a,1,1.157455,space,0.10178,0,41,41,197,1,0_targ_16_dist_red/trial23.png,,,0,16,redHorizontal,a,57,23,female,2021-02-23_21h17.45.296,exp11,2020.2.6,Win32,60,IwAR0fbhFbPWBJD8W8ulUltABWI7h-g-1gO5RlYgTQYTV_u_GWhCop-A_RuAE,,,,,,,,,,,
,,,,,,,,,,,,,,p,1,0.66617,space,0.11614,0,42,42,12,1,0_dist_red/trial13.png,,,1,0,redHorizontal,p,57,23,female,2021-02-23_21h17.45.296,exp11,2020.2.6,Win32,60,IwAR0fbhFbPWBJD8W8ulUltABWI7h-g-1gO5RlYgTQYTV_u_GWhCop-A_RuAE,,,,,,,,,,,
,,,,,,,,,,,,,,a,0,1.52997,space,5.184435,0,43,43,61,1,9_dist_red/trial12.png,,,1,9,redHorizontal,p,57,23,female,2021-02-23_21h17.45.296,exp11,2020.2.6,Win32,60,IwAR0fbhFbPWBJD8W8ulUltABWI7h-g-1gO5RlYgTQYTV_u_GWhCop-A_RuAE,,,,,,,,,,,
,,,,,,,,,,,,,,p,1,1.374415,space,0.140685,0,44,44,83,1,15_dist_red/trial9.png,,,1,15,redHorizontal,p,57,23,female,2021-02-23_21h17.45.296,exp11,2020.2.6,Win32,60,IwAR0fbhFbPWBJD8W8ulUltABWI7h-g-1gO5RlYgTQYTV_u_GWhCop-A_RuAE,,,,,,,,,,,
,,,,,,,,,,,,,,a,1,0.90551,space,0.22281,0,45,45,164,1,0_targ_10_dist_red/trial15.png,,,0,10,redHorizontal,a,57,23,female,2021-02-23_21h17.45.296,exp11,2020.2.6,Win32,60,IwAR0fbhFbPWBJD8W8ulUltABWI7h-g-1gO5RlYgTQYTV_u_GWhCop-A_RuAE,,,,,,,,,,,
,,,,,,,,,,,,,,a,1,1.228395,space,0.217115,0,46,46,128,1,0_targ_4_dist_red/trial4.png,,,0,4,redHorizontal,a,57,23,female,2021-02-23_21h17.45.296,exp11,2020.2.6,Win32,60,IwAR0fbhFbPWBJD8W8ulUltABWI7h-g-1gO5RlYgTQYTV_u_GWhCop-A_RuAE,,,,,,,,,,,
,,,,,,,,,,,,,,p,1,0.70897,space,0.131075,0,47,47,88,1,15_dist_red/trial14.png,,,1,15,redHorizontal,p,57,23,female,2021-02-23_21h17.45.296,exp11,2020.2.6,Win32,60,IwAR0fbhFbPWBJD8W8ulUltABWI7h-g-1gO5RlYgTQYTV_u_GWhCop-A_RuAE,,,,,,,,,,,
,,,,,,,,,,,,,,a,1,1.13345,space,0.18404,0,48,48,108,1,0_targ_1_dist_red/trial9.png,,,0,1,redHorizontal,a,57,23,female,2021-02-23_21h17.45.296,exp11,2020.2.6,Win32,60,IwAR0fbhFbPWBJD8W8ulUltABWI7h-g-1gO5RlYgTQYTV_u_GWhCop-A_RuAE,,,,,,,,,,,
,,,,,,,,,,,,,,a,1,0.833255,space,0.165555,0,49,49,175,1,0_targ_16_dist_red/trial1.png,,,0,16,redHorizontal,a,57,23,female,2021-02-23_21h17.45.296,exp11,2020.2.6,Win32,60,IwAR0fbhFbPWBJD8W8ulUltABWI7h-g-1gO5RlYgTQYTV_u_GWhCop-A_RuAE,,,,,,,,,,,
,,,,,,,,,,,,,,a,1,1.203265,space,0.131835,0,50,50,151,1,0_targ_10_dist_red/trial2.png,,,0,10,redHorizontal,a,57,23,female,2021-02-23_21h17.45.296,exp11,2020.2.6,Win32,60,IwAR0fbhFbPWBJD8W8ulUltABWI7h-g-1gO5RlYgTQYTV_u_GWhCop-A_RuAE,,,,,,,,,,,
,,,,,,,,,,,,,,a,1,1.027185,space,0.171895,0,51,51,103,1,0_targ_1_dist_red/trial4.png,,,0,1,redHorizontal,a,57,23,female,2021-02-23_21h17.45.296,exp11,2020.2.6,Win32,60,IwAR0fbhFbPWBJD8W8ulUltABWI7h-g-1gO5RlYgTQYTV_u_GWhCop-A_RuAE,,,,,,,,,,,
,,,,,,,,,,,,,,a,1,0.705345,space,0.0552,0,52,52,132,1,0_targ_4_dist_red/trial8.png,,,0,4,redHorizontal,a,57,23,female,2021-02-23_21h17.45.296,exp11,2020.2.6,Win32,60,IwAR0fbhFbPWBJD8W8ulUltABWI7h-g-1gO5RlYgTQYTV_u_GWhCop-A_RuAE,,,,,,,,,,,
,,,,,,,,,,,,,,a,1,0.706515,space,0.00135,0,53,53,125,1,0_targ_4_dist_red/trial1.png,,,0,4,redHorizontal,a,57,23,female,2021-02-23_21h17.45.296,exp11,2020.2.6,Win32,60,IwAR0fbhFbPWBJD8W8ulUltABWI7h-g-1gO5RlYgTQYTV_u_GWhCop-A_RuAE,,,,,,,,,,,
,,,,,,,,,,,,,,a,1,0.72542,space,0.006515,0,54,54,140,1,0_targ_4_dist_red/trial6.png,,,0,4,redHorizontal,a,57,23,female,2021-02-23_21h17.45.296,exp11,2020.2.6,Win32,60,IwAR0fbhFbPWBJD8W8ulUltABWI7h-g-1gO5RlYgTQYTV_u_GWhCop-A_RuAE,,,,,,,,,,,
,,,,,,,,,,,,,,p,1,0.76074,space,0.01912,0,55,55,7,1,0_dist_red/trial8.png,,,1,0,redHorizontal,p,57,23,female,2021-02-23_21h17.45.296,exp11,2020.2.6,Win32,60,IwAR0fbhFbPWBJD8W8ulUltABWI7h-g-1gO5RlYgTQYTV_u_GWhCop-A_RuAE,,,,,,,,,,,
,,,,,,,,,,,,,,p,1,1.877115,space,0.021455,0,56,56,55,1,9_dist_red/trial6.png,,,1,9,redHorizontal,p,57,23,female,2021-02-23_21h17.45.296,exp11,2020.2.6,Win32,60,IwAR0fbhFbPWBJD8W8ulUltABWI7h-g-1gO5RlYgTQYTV_u_GWhCop-A_RuAE,,,,,,,,,,,
,,,,,,,,,,,,,,a,1,0.836805,space,0.033825,0,57,57,117,1,0_targ_1_dist_red/trial18.png,,,0,1,redHorizontal,a,57,23,female,2021-02-23_21h17.45.296,exp11,2020.2.6,Win32,60,IwAR0fbhFbPWBJD8W8ulUltABWI7h-g-1gO5RlYgTQYTV_u_GWhCop-A_RuAE,,,,,,,,,,,
,,,,,,,,,,,,,,p,1,0.75188,space,2.3693,0,58,58,5,1,0_dist_red/trial6.png,,,1,0,redHorizontal,p,57,23,female,2021-02-23_21h17.45.296,exp11,2020.2.6,Win32,60,IwAR0fbhFbPWBJD8W8ulUltABWI7h-g-1gO5RlYgTQYTV_u_GWhCop-A_RuAE,,,,,,,,,,,
,,,,,,,,,,,,,,p,1,1.69108,space,0.001075,0,59,59,65,1,9_dist_red/trial16.png,,,1,9,redHorizontal,p,57,23,female,2021-02-23_21h17.45.296,exp11,2020.2.6,Win32,60,IwAR0fbhFbPWBJD8W8ulUltABWI7h-g-1gO5RlYgTQYTV_u_GWhCop-A_RuAE,,,,,,,,,,,
,,,,,,,,,,,,,,p,1,1.22102,space,1.1514,0,60,60,90,1,15_dist_red/trial16.png,,,1,15,redHorizontal,p,57,23,female,2021-02-23_21h17.45.296,exp11,2020.2.6,Win32,60,IwAR0fbhFbPWBJD8W8ulUltABWI7h-g-1gO5RlYgTQYTV_u_GWhCop-A_RuAE,,,,,,,,,,,
,,,,,,,,,,,,,,a,1,1.57427,space,1.014085,0,61,61,138,1,0_targ_4_dist_red/trial14.png,,,0,4,redHorizontal,a,57,23,female,2021-02-23_21h17.45.296,exp11,2020.2.6,Win32,60,IwAR0fbhFbPWBJD8W8ulUltABWI7h-g-1gO5RlYgTQYTV_u_GWhCop-A_RuAE,,,,,,,,,,,
,,,,,,,,,,,,,,a,1,1.772855,space,0.007345,0,62,62,161,1,0_targ_10_dist_red/trial12.png,,,0,10,redHorizontal,a,57,23,female,2021-02-23_21h17.45.296,exp11,2020.2.6,Win32,60,IwAR0fbhFbPWBJD8W8ulUltABWI7h-g-1gO5RlYgTQYTV_u_GWhCop-A_RuAE,,,,,,,,,,,
,,,,,,,,,,,,,,p,1,1.56418,space,0.00169,0,63,63,24,1,0_dist_red/trial25.png,,,1,0,redHorizontal,p,57,23,female,2021-02-23_21h17.45.296,exp11,2020.2.6,Win32,60,IwAR0fbhFbPWBJD8W8ulUltABWI7h-g-1gO5RlYgTQYTV_u_GWhCop-A_RuAE,,,,,,,,,,,
,,,,,,,,,,,,,,p,1,0.737515,space,0.03505,0,64,64,97,1,15_dist_red/trial23.png,,,1,15,redHorizontal,p,57,23,female,2021-02-23_21h17.45.296,exp11,2020.2.6,Win32,60,IwAR0fbhFbPWBJD8W8ulUltABWI7h-g-1gO5RlYgTQYTV_u_GWhCop-A_RuAE,,,,,,,,,,,
,,,,,,,,,,,,,,p,1,0.820795,space,0.0063,0,65,65,35,1,3_dist_red/trial11.png,,,1,3,redHorizontal,p,57,23,female,2021-02-23_21h17.45.296,exp11,2020.2.6,Win32,60,IwAR0fbhFbPWBJD8W8ulUltABWI7h-g-1gO5RlYgTQYTV_u_GWhCop-A_RuAE,,,,,,,,,,,
,,,,,,,,,,,,,,p,1,0.66254,space,0.90021,0,66,66,67,1,9_dist_red/trial18.png,,,1,9,redHorizontal,p,57,23,female,2021-02-23_21h17.45.296,exp11,2020.2.6,Win32,60,IwAR0fbhFbPWBJD8W8ulUltABWI7h-g-1gO5RlYgTQYTV_u_GWhCop-A_RuAE,,,,,,,,,,,
,,,,,,,,,,,,,,p,1,0.765185,space,0.653765,0,67,67,32,1,3_dist_red/trial8.png,,,1,3,redHorizontal,p,57,23,female,2021-02-23_21h17.45.296,exp11,2020.2.6,Win32,60,IwAR0fbhFbPWBJD8W8ulUltABWI7h-g-1gO5RlYgTQYTV_u_GWhCop-A_RuAE,,,,,,,,,,,
,,,,,,,,,,,,,,p,1,0.99917,space,0.02315,0,68,68,98,1,15_dist_red/trial24.png,,,1,15,redHorizontal,p,57,23,female,2021-02-23_21h17.45.296,exp11,2020.2.6,Win32,60,IwAR0fbhFbPWBJD8W8ulUltABWI7h-g-1gO5RlYgTQYTV_u_GWhCop-A_RuAE,,,,,,,,,,,
,,,,,,,,,,,,,,a,1,1.32395,space,0.89536,0,69,69,129,1,0_targ_4_dist_red/trial5.png,,,0,4,redHorizontal,a,57,23,female,2021-02-23_21h17.45.296,exp11,2020.2.6,Win32,60,IwAR0fbhFbPWBJD8W8ulUltABWI7h-g-1gO5RlYgTQYTV_u_GWhCop-A_RuAE,,,,,,,,,,,
,,,,,,,,,,,,,,a,0,0.961015,space,0.447295,0,70,70,87,1,15_dist_red/trial13.png,,,1,15,redHorizontal,p,57,23,female,2021-02-23_21h17.45.296,exp11,2020.2.6,Win32,60,IwAR0fbhFbPWBJD8W8ulUltABWI7h-g-1gO5RlYgTQYTV_u_GWhCop-A_RuAE,,,,,,,,,,,
,,,,,,,,,,,,,,p,1,3.16276,space,0.79176,0,71,71,76,1,15_dist_red/trial2.png,,,1,15,redHorizontal,p,57,23,female,2021-02-23_21h17.45.296,exp11,2020.2.6,Win32,60,IwAR0fbhFbPWBJD8W8ulUltABWI7h-g-1gO5RlYgTQYTV_u_GWhCop-A_RuAE,,,,,,,,,,,
,,,,,,,,,,,,,,p,1,0.588195,space,0.535225,0,72,72,16,1,0_dist_red/trial17.png,,,1,0,redHorizontal,p,57,23,female,2021-02-23_21h17.45.296,exp11,2020.2.6,Win32,60,IwAR0fbhFbPWBJD8W8ulUltABWI7h-g-1gO5RlYgTQYTV_u_GWhCop-A_RuAE,,,,,,,,,,,
,,,,,,,,,,,,,,p,1,0.62792,space,0.45189,0,73,73,10,1,0_dist_red/trial11.png,,,1,0,redHorizontal,p,57,23,female,2021-02-23_21h17.45.296,exp11,2020.2.6,Win32,60,IwAR0fbhFbPWBJD8W8ulUltABWI7h-g-1gO5RlYgTQYTV_u_GWhCop-A_RuAE,,,,,,,,,,,
,,,,,,,,,,,,,,p,1,1.150235,space,0.46735,0,74,74,75,1,15_dist_red/trial1.png,,,1,15,redHorizontal,p,57,23,female,2021-02-23_21h17.45.296,exp11,2020.2.6,Win32,60,IwAR0fbhFbPWBJD8W8ulUltABWI7h-g-1gO5RlYgTQYTV_u_GWhCop-A_RuAE,,,,,,,,,,,
,,,,,,,,,,,,,,a,1,1.17109,space,0.015335,0,75,75,124,1,0_targ_1_dist_red/trial25.png,,,0,1,redHorizontal,a,57,23,female,2021-02-23_21h17.45.296,exp11,2020.2.6,Win32,60,IwAR0fbhFbPWBJD8W8ulUltABWI7h-g-1gO5RlYgTQYTV_u_GWhCop-A_RuAE,,,,,,,,,,,
,,,,,,,,,,,,,,a,1,2.06216,space,0.0025,0,76,76,158,1,0_targ_10_dist_red/trial9.png,,,0,10,redHorizontal,a,57,23,female,2021-02-23_21h17.45.296,exp11,2020.2.6,Win32,60,IwAR0fbhFbPWBJD8W8ulUltABWI7h-g-1gO5RlYgTQYTV_u_GWhCop-A_RuAE,,,,,,,,,,,
,,,,,,,,,,,,,,p,1,1.016805,space,0.034615,0,77,77,64,1,9_dist_red/trial15.png,,,1,9,redHorizontal,p,57,23,female,2021-02-23_21h17.45.296,exp11,2020.2.6,Win32,60,IwAR0fbhFbPWBJD8W8ulUltABWI7h-g-1gO5RlYgTQYTV_u_GWhCop-A_RuAE,,,,,,,,,,,
,,,,,,,,,,,,,,a,1,1.501665,space,0.006525,0,78,78,115,1,0_targ_1_dist_red/trial6.png,,,0,1,redHorizontal,a,57,23,female,2021-02-23_21h17.45.296,exp11,2020.2.6,Win32,60,IwAR0fbhFbPWBJD8W8ulUltABWI7h-g-1gO5RlYgTQYTV_u_GWhCop-A_RuAE,,,,,,,,,,,
,,,,,,,,,,,,,,p,1,1.147125,space,1.501385,0,79,79,23,1,0_dist_red/trial24.png,,,1,0,redHorizontal,p,57,23,female,2021-02-23_21h17.45.296,exp11,2020.2.6,Win32,60,IwAR0fbhFbPWBJD8W8ulUltABWI7h-g-1gO5RlYgTQYTV_u_GWhCop-A_RuAE,,,,,,,,,,,
,,,,,,,,,,,,,,p,1,1.09463,space,0.00306,0,80,80,93,1,15_dist_red/trial19.png,,,1,15,redHorizontal,p,57,23,female,2021-02-23_21h17.45.296,exp11,2020.2.6,Win32,60,IwAR0fbhFbPWBJD8W8ulUltABWI7h-g-1gO5RlYgTQYTV_u_GWhCop-A_RuAE,,,,,,,,,,,
,,,,,,,,,,,,,,p,1,1.36426,space,0.017295,0,81,81,89,1,15_dist_red/trial15.png,,,1,15,redHorizontal,p,57,23,female,2021-02-23_21h17.45.296,exp11,2020.2.6,Win32,60,IwAR0fbhFbPWBJD8W8ulUltABWI7h-g-1gO5RlYgTQYTV_u_GWhCop-A_RuAE,,,,,,,,,,,
,,,,,,,,,,,,,,p,1,0.67836,space,0.90016,0,82,82,41,1,3_dist_red/trial17.png,,,1,3,redHorizontal,p,57,23,female,2021-02-23_21h17.45.296,exp11,2020.2.6,Win32,60,IwAR0fbhFbPWBJD8W8ulUltABWI7h-g-1gO5RlYgTQYTV_u_GWhCop-A_RuAE,,,,,,,,,,,
,,,,,,,,,,,,,,a,1,1.71196,space,0.00148,0,83,83,116,1,0_targ_1_dist_red/trial17.png,,,0,1,redHorizontal,a,57,23,female,2021-02-23_21h17.45.296,exp11,2020.2.6,Win32,60,IwAR0fbhFbPWBJD8W8ulUltABWI7h-g-1gO5RlYgTQYTV_u_GWhCop-A_RuAE,,,,,,,,,,,
,,,,,,,,,,,,,,p,1,0.930735,space,0.68515,0,84,84,81,1,15_dist_red/trial7.png,,,1,15,redHorizontal,p,57,23,female,2021-02-23_21h17.45.296,exp11,2020.2.6,Win32,60,IwAR0fbhFbPWBJD8W8ulUltABWI7h-g-1gO5RlYgTQYTV_u_GWhCop-A_RuAE,,,,,,,,,,,
,,,,,,,,,,,,,,p,1,1.379755,space,0.00184,0,85,85,19,1,0_dist_red/trial20.png,,,1,0,redHorizontal,p,57,23,female,2021-02-23_21h17.45.296,exp11,2020.2.6,Win32,60,IwAR0fbhFbPWBJD8W8ulUltABWI7h-g-1gO5RlYgTQYTV_u_GWhCop-A_RuAE,,,,,,,,,,,
,,,,,,,,,,,,,,p,1,0.61464,space,0.769185,0,86,86,40,1,3_dist_red/trial16.png,,,1,3,redHorizontal,p,57,23,female,2021-02-23_21h17.45.296,exp11,2020.2.6,Win32,60,IwAR0fbhFbPWBJD8W8ulUltABWI7h-g-1gO5RlYgTQYTV_u_GWhCop-A_RuAE,,,,,,,,,,,
,,,,,,,,,,,,,,a,1,1.798475,space,0.850815,0,87,87,168,1,0_targ_10_dist_red/trial19.png,,,0,10,redHorizontal,a,57,23,female,2021-02-23_21h17.45.296,exp11,2020.2.6,Win32,60,IwAR0fbhFbPWBJD8W8ulUltABWI7h-g-1gO5RlYgTQYTV_u_GWhCop-A_RuAE,,,,,,,,,,,
,,,,,,,,,,,,,,a,1,1.56099,space,0.465985,0,88,88,186,1,0_targ_16_dist_red/trial12.png,,,0,16,redHorizontal,a,57,23,female,2021-02-23_21h17.45.296,exp11,2020.2.6,Win32,60,IwAR0fbhFbPWBJD8W8ulUltABWI7h-g-1gO5RlYgTQYTV_u_GWhCop-A_RuAE,,,,,,,,,,,
,,,,,,,,,,,,,,a,1,0.77125,space,0.00824,0,89,89,123,1,0_targ_1_dist_red/trial24.png,,,0,1,redHorizontal,a,57,23,female,2021-02-23_21h17.45.296,exp11,2020.2.6,Win32,60,IwAR0fbhFbPWBJD8W8ulUltABWI7h-g-1gO5RlYgTQYTV_u_GWhCop-A_RuAE,,,,,,,,,,,
,,,,,,,,,,,,,,p,1,0.75965,space,0.69999,0,90,90,46,1,3_dist_red/trial22.png,,,1,3,redHorizontal,p,57,23,female,2021-02-23_21h17.45.296,exp11,2020.2.6,Win32,60,IwAR0fbhFbPWBJD8W8ulUltABWI7h-g-1gO5RlYgTQYTV_u_GWhCop-A_RuAE,,,,,,,,,,,
,,,,,,,,,,,,,,a,1,1.0499,space,0.03498,0,91,91,147,1,0_targ_4_dist_red/trial23.png,,,0,4,redHorizontal,a,57,23,female,2021-02-23_21h17.45.296,exp11,2020.2.6,Win32,60,IwAR0fbhFbPWBJD8W8ulUltABWI7h-g-1gO5RlYgTQYTV_u_GWhCop-A_RuAE,,,,,,,,,,,
,,,,,,,,,,,,,,a,1,1.601205,space,0.00176,0,92,92,199,1,0_targ_16_dist_red/trial25.png,,,0,16,redHorizontal,a,57,23,female,2021-02-23_21h17.45.296,exp11,2020.2.6,Win32,60,IwAR0fbhFbPWBJD8W8ulUltABWI7h-g-1gO5RlYgTQYTV_u_GWhCop-A_RuAE,,,,,,,,,,,
,,,,,,,,,,,,,,p,1,0.846225,space,0.59193,0,93,93,28,1,3_dist_red/trial4.png,,,1,3,redHorizontal,p,57,23,female,2021-02-23_21h17.45.296,exp11,2020.2.6,Win32,60,IwAR0fbhFbPWBJD8W8ulUltABWI7h-g-1gO5RlYgTQYTV_u_GWhCop-A_RuAE,,,,,,,,,,,
,,,,,,,,,,,,,,p,1,0.6035,space,0.44637,0,94,94,45,1,3_dist_red/trial21.png,,,1,3,redHorizontal,p,57,23,female,2021-02-23_21h17.45.296,exp11,2020.2.6,Win32,60,IwAR0fbhFbPWBJD8W8ulUltABWI7h-g-1gO5RlYgTQYTV_u_GWhCop-A_RuAE,,,,,,,,,,,
,,,,,,,,,,,,,,a,1,1.135765,space,0.00092,0,95,95,193,1,0_targ_16_dist_red/trial19.png,,,0,16,redHorizontal,a,57,23,female,2021-02-23_21h17.45.296,exp11,2020.2.6,Win32,60,IwAR0fbhFbPWBJD8W8ulUltABWI7h-g-1gO5RlYgTQYTV_u_GWhCop-A_RuAE,,,,,,,,,,,
,,,,,,,,,,,,,,p,1,0.78832,space,0.52354,0,96,96,60,1,9_dist_red/trial11.png,,,1,9,redHorizontal,p,57,23,female,2021-02-23_21h17.45.296,exp11,2020.2.6,Win32,60,IwAR0fbhFbPWBJD8W8ulUltABWI7h-g-1gO5RlYgTQYTV_u_GWhCop-A_RuAE,,,,,,,,,,,
,,,,,,,,,,,,,,a,1,1.11643,space,0.789125,0,97,97,100,1,0_targ_1_dist_red/trial1.png,,,0,1,redHorizontal,a,57,23,female,2021-02-23_21h17.45.296,exp11,2020.2.6,Win32,60,IwAR0fbhFbPWBJD8W8ulUltABWI7h-g-1gO5RlYgTQYTV_u_GWhCop-A_RuAE,,,,,,,,,,,
,,,,,,,,,,,,,,a,1,0.917215,space,0.367055,0,98,98,135,1,0_targ_4_dist_red/trial11.png,,,0,4,redHorizontal,a,57,23,female,2021-02-23_21h17.45.296,exp11,2020.2.6,Win32,60,IwAR0fbhFbPWBJD8W8ulUltABWI7h-g-1gO5RlYgTQYTV_u_GWhCop-A_RuAE,,,,,,,,,,,
,,,,,,,,,,,,,,a,1,0.802445,space,0.316535,0,99,99,118,1,0_targ_1_dist_red/trial19.png,,,0,1,redHorizontal,a,57,23,female,2021-02-23_21h17.45.296,exp11,2020.2.6,Win32,60,IwAR0fbhFbPWBJD8W8ulUltABWI7h-g-1gO5RlYgTQYTV_u_GWhCop-A_RuAE,,,,,,,,,,,
,,,,,,,,,,,,,,p,1,0.64871,space,0.56907,0,100,100,99,1,15_dist_red/trial25.png,,,1,15,redHorizontal,p,57,23,female,2021-02-23_21h17.45.296,exp11,2020.2.6,Win32,60,IwAR0fbhFbPWBJD8W8ulUltABWI7h-g-1gO5RlYgTQYTV_u_GWhCop-A_RuAE,,,,,,,,,,,
,,,,,,,,,,,,,,a,1,1.149445,space,0.34745,0,101,101,185,1,0_targ_16_dist_red/trial11.png,,,0,16,redHorizontal,a,57,23,female,2021-02-23_21h17.45.296,exp11,2020.2.6,Win32,60,IwAR0fbhFbPWBJD8W8ulUltABWI7h-g-1gO5RlYgTQYTV_u_GWhCop-A_RuAE,,,,,,,,,,,
,,,,,,,,,,,,,,p,1,0.61536,space,0.01862,0,102,102,37,1,3_dist_red/trial13.png,,,1,3,redHorizontal,p,57,23,female,2021-02-23_21h17.45.296,exp11,2020.2.6,Win32,60,IwAR0fbhFbPWBJD8W8ulUltABWI7h-g-1gO5RlYgTQYTV_u_GWhCop-A_RuAE,,,,,,,,,,,
,,,,,,,,,,,,,,p,1,1.2627,space,0.034695,0,103,103,79,1,15_dist_red/trial5.png,,,1,15,redHorizontal,p,57,23,female,2021-02-23_21h17.45.296,exp11,2020.2.6,Win32,60,IwAR0fbhFbPWBJD8W8ulUltABWI7h-g-1gO5RlYgTQYTV_u_GWhCop-A_RuAE,,,,,,,,,,,
,,,,,,,,,,,,,,p,1,1.11612,space,0.0023,0,104,104,54,1,9_dist_red/trial5.png,,,1,9,redHorizontal,p,57,23,female,2021-02-23_21h17.45.296,exp11,2020.2.6,Win32,60,IwAR0fbhFbPWBJD8W8ulUltABWI7h-g-1gO5RlYgTQYTV_u_GWhCop-A_RuAE,,,,,,,,,,,
,,,,,,,,,,,,,,p,1,0.76149,space,0.60406,0,105,105,74,1,9_dist_red/trial25.png,,,1,9,redHorizontal,p,57,23,female,2021-02-23_21h17.45.296,exp11,2020.2.6,Win32,60,IwAR0fbhFbPWBJD8W8ulUltABWI7h-g-1gO5RlYgTQYTV_u_GWhCop-A_RuAE,,,,,,,,,,,
,,,,,,,,,,,,,,p,1,0.66099,space,0.449725,0,106,106,72,1,9_dist_red/trial23.png,,,1,9,redHorizontal,p,57,23,female,2021-02-23_21h17.45.296,exp11,2020.2.6,Win32,60,IwAR0fbhFbPWBJD8W8ulUltABWI7h-g-1gO5RlYgTQYTV_u_GWhCop-A_RuAE,,,,,,,,,,,
,,,,,,,,,,,,,,a,1,1.198565,space,0.40077,0,107,107,194,1,0_targ_16_dist_red/trial20.png,,,0,16,redHorizontal,a,57,23,female,2021-02-23_21h17.45.296,exp11,2020.2.6,Win32,60,IwAR0fbhFbPWBJD8W8ulUltABWI7h-g-1gO5RlYgTQYTV_u_GWhCop-A_RuAE,,,,,,,,,,,
,,,,,,,,,,,,,,a,1,1.10794,space,0.443125,0,108,108,180,1,0_targ_16_dist_red/trial6.png,,,0,16,redHorizontal,a,57,23,female,2021-02-23_21h17.45.296,exp11,2020.2.6,Win32,60,IwAR0fbhFbPWBJD8W8ulUltABWI7h-g-1gO5RlYgTQYTV_u_GWhCop-A_RuAE,,,,,,,,,,,
,,,,,,,,,,,,,,p,1,1.577455,space,0.69942,0,109,109,14,1,0_dist_red/trial15.png,,,1,0,redHorizontal,p,57,23,female,2021-02-23_21h17.45.296,exp11,2020.2.6,Win32,60,IwAR0fbhFbPWBJD8W8ulUltABWI7h-g-1gO5RlYgTQYTV_u_GWhCop-A_RuAE,,,,,,,,,,,
,,,,,,,,,,,,,,p,1,0.59494,space,0.03512,0,110,110,4,1,0_dist_red/trial5.png,,,1,0,redHorizontal,p,57,23,female,2021-02-23_21h17.45.296,exp11,2020.2.6,Win32,60,IwAR0fbhFbPWBJD8W8ulUltABWI7h-g-1gO5RlYgTQYTV_u_GWhCop-A_RuAE,,,,,,,,,,,
,,,,,,,,,,,,,,a,1,1.345655,space,0.69282,0,111,111,184,1,0_targ_16_dist_red/trial10.png,,,0,16,redHorizontal,a,57,23,female,2021-02-23_21h17.45.296,exp11,2020.2.6,Win32,60,IwAR0fbhFbPWBJD8W8ulUltABWI7h-g-1gO5RlYgTQYTV_u_GWhCop-A_RuAE,,,,,,,,,,,
,,,,,,,,,,,,,,p,1,0.761365,space,0.034325,0,112,112,56,1,9_dist_red/trial7.png,,,1,9,redHorizontal,p,57,23,female,2021-02-23_21h17.45.296,exp11,2020.2.6,Win32,60,IwAR0fbhFbPWBJD8W8ulUltABWI7h-g-1gO5RlYgTQYTV_u_GWhCop-A_RuAE,,,,,,,,,,,
,,,,,,,,,,,,,,a,1,1.104125,space,0.02172,0,113,113,195,1,0_targ_16_dist_red/trial21.png,,,0,16,redHorizontal,a,57,23,female,2021-02-23_21h17.45.296,exp11,2020.2.6,Win32,60,IwAR0fbhFbPWBJD8W8ulUltABWI7h-g-1gO5RlYgTQYTV_u_GWhCop-A_RuAE,,,,,,,,,,,
,,,,,,,,,,,,,,p,1,0.787625,space,0.003845,0,114,114,96,1,15_dist_red/trial22.png,,,1,15,redHorizontal,p,57,23,female,2021-02-23_21h17.45.296,exp11,2020.2.6,Win32,60,IwAR0fbhFbPWBJD8W8ulUltABWI7h-g-1gO5RlYgTQYTV_u_GWhCop-A_RuAE,,,,,,,,,,,
,,,,,,,,,,,,,,a,1,1.38268,space,0.033835,0,115,115,188,1,0_targ_16_dist_red/trial14.png,,,0,16,redHorizontal,a,57,23,female,2021-02-23_21h17.45.296,exp11,2020.2.6,Win32,60,IwAR0fbhFbPWBJD8W8ulUltABWI7h-g-1gO5RlYgTQYTV_u_GWhCop-A_RuAE,,,,,,,,,,,
,,,,,,,,,,,,,,p,1,0.758385,space,0.638345,0,116,116,17,1,0_dist_red/trial18.png,,,1,0,redHorizontal,p,57,23,female,2021-02-23_21h17.45.296,exp11,2020.2.6,Win32,60,IwAR0fbhFbPWBJD8W8ulUltABWI7h-g-1gO5RlYgTQYTV_u_GWhCop-A_RuAE,,,,,,,,,,,
,,,,,,,,,,,,,,p,1,1.31224,space,0.00912,0,117,117,80,1,15_dist_red/trial6.png,,,1,15,redHorizontal,p,57,23,female,2021-02-23_21h17.45.296,exp11,2020.2.6,Win32,60,IwAR0fbhFbPWBJD8W8ulUltABWI7h-g-1gO5RlYgTQYTV_u_GWhCop-A_RuAE,,,,,,,,,,,
,,,,,,,,,,,,,,a,1,1.714235,space,0.61994,0,118,118,157,1,0_targ_10_dist_red/trial8.png,,,0,10,redHorizontal,a,57,23,female,2021-02-23_21h17.45.296,exp11,2020.2.6,Win32,60,IwAR0fbhFbPWBJD8W8ulUltABWI7h-g-1gO5RlYgTQYTV_u_GWhCop-A_RuAE,,,,,,,,,,,
,,,,,,,,,,,,,,a,1,2.86078,space,0.0006,0,119,119,172,1,0_targ_10_dist_red/trial23.png,,,0,10,redHorizontal,a,57,23,female,2021-02-23_21h17.45.296,exp11,2020.2.6,Win32,60,IwAR0fbhFbPWBJD8W8ulUltABWI7h-g-1gO5RlYgTQYTV_u_GWhCop-A_RuAE,,,,,,,,,,,
,,,,,,,,,,,,,,a,1,0.997865,space,0.01833,0,120,120,122,1,0_targ_1_dist_red/trial23.png,,,0,1,redHorizontal,a,57,23,female,2021-02-23_21h17.45.296,exp11,2020.2.6,Win32,60,IwAR0fbhFbPWBJD8W8ulUltABWI7h-g-1gO5RlYgTQYTV_u_GWhCop-A_RuAE,,,,,,,,,,,
,,,,,,,,,,,,,,p,1,0.99335,space,0.848435,0,121,121,44,1,3_dist_red/trial20.png,,,1,3,redHorizontal,p,57,23,female,2021-02-23_21h17.45.296,exp11,2020.2.6,Win32,60,IwAR0fbhFbPWBJD8W8ulUltABWI7h-g-1gO5RlYgTQYTV_u_GWhCop-A_RuAE,,,,,,,,,,,
,,,,,,,,,,,,,,p,1,0.687275,space,0.55158,0,122,122,59,1,9_dist_red/trial10.png,,,1,9,redHorizontal,p,57,23,female,2021-02-23_21h17.45.296,exp11,2020.2.6,Win32,60,IwAR0fbhFbPWBJD8W8ulUltABWI7h-g-1gO5RlYgTQYTV_u_GWhCop-A_RuAE,,,,,,,,,,,
,,,,,,,,,,,,,,p,1,0.78844,space,0.002225,0,123,123,51,1,9_dist_red/trial2.png,,,1,9,redHorizontal,p,57,23,female,2021-02-23_21h17.45.296,exp11,2020.2.6,Win32,60,IwAR0fbhFbPWBJD8W8ulUltABWI7h-g-1gO5RlYgTQYTV_u_GWhCop-A_RuAE,,,,,,,,,,,
,,,,,,,,,,,,,,p,1,0.68459,space,0.585535,0,124,124,20,1,0_dist_red/trial21.png,,,1,0,redHorizontal,p,57,23,female,2021-02-23_21h17.45.296,exp11,2020.2.6,Win32,60,IwAR0fbhFbPWBJD8W8ulUltABWI7h-g-1gO5RlYgTQYTV_u_GWhCop-A_RuAE,,,,,,,,,,,
,,,,,,,,,,,,,,a,1,1.45486,space,0.584355,0,125,125,163,1,0_targ_10_dist_red/trial14.png,,,0,10,redHorizontal,a,57,23,female,2021-02-23_21h17.45.296,exp11,2020.2.6,Win32,60,IwAR0fbhFbPWBJD8W8ulUltABWI7h-g-1gO5RlYgTQYTV_u_GWhCop-A_RuAE,,,,,,,,,,,
,,,,,,,,,,,,,,a,1,1.059805,space,0.634885,0,126,126,107,1,0_targ_1_dist_red/trial8.png,,,0,1,redHorizontal,a,57,23,female,2021-02-23_21h17.45.296,exp11,2020.2.6,Win32,60,IwAR0fbhFbPWBJD8W8ulUltABWI7h-g-1gO5RlYgTQYTV_u_GWhCop-A_RuAE,,,,,,,,,,,
,,,,,,,,,,,,,,p,1,0.58519,space,0.063145,0,127,127,25,1,3_dist_red/trial1.png,,,1,3,redHorizontal,p,57,23,female,2021-02-23_21h17.45.296,exp11,2020.2.6,Win32,60,IwAR0fbhFbPWBJD8W8ulUltABWI7h-g-1gO5RlYgTQYTV_u_GWhCop-A_RuAE,,,,,,,,,,,
,,,,,,,,,,,,,,p,1,1.794635,space,0.001125,0,128,128,86,1,15_dist_red/trial12.png,,,1,15,redHorizontal,p,57,23,female,2021-02-23_21h17.45.296,exp11,2020.2.6,Win32,60,IwAR0fbhFbPWBJD8W8ulUltABWI7h-g-1gO5RlYgTQYTV_u_GWhCop-A_RuAE,,,,,,,,,,,
,,,,,,,,,,,,,,p,1,0.7323,space,0.66854,0,129,129,57,1,9_dist_red/trial8.png,,,1,9,redHorizontal,p,57,23,female,2021-02-23_21h17.45.296,exp11,2020.2.6,Win32,60,IwAR0fbhFbPWBJD8W8ulUltABWI7h-g-1gO5RlYgTQYTV_u_GWhCop-A_RuAE,,,,,,,,,,,
,,,,,,,,,,,,,,p,1,1.435715,space,0.36826,0,130,130,82,1,15_dist_red/trial8.png,,,1,15,redHorizontal,p,57,23,female,2021-02-23_21h17.45.296,exp11,2020.2.6,Win32,60,IwAR0fbhFbPWBJD8W8ulUltABWI7h-g-1gO5RlYgTQYTV_u_GWhCop-A_RuAE,,,,,,,,,,,
,,,,,,,,,,,,,,p,1,0.662755,space,0.37258,0,131,131,49,1,3_dist_red/trial25.png,,,1,3,redHorizontal,p,57,23,female,2021-02-23_21h17.45.296,exp11,2020.2.6,Win32,60,IwAR0fbhFbPWBJD8W8ulUltABWI7h-g-1gO5RlYgTQYTV_u_GWhCop-A_RuAE,,,,,,,,,,,
,,,,,,,,,,,,,,a,1,1.763375,space,0.283965,0,132,132,176,1,0_targ_16_dist_red/trial2.png,,,0,16,redHorizontal,a,57,23,female,2021-02-23_21h17.45.296,exp11,2020.2.6,Win32,60,IwAR0fbhFbPWBJD8W8ulUltABWI7h-g-1gO5RlYgTQYTV_u_GWhCop-A_RuAE,,,,,,,,,,,
,,,,,,,,,,,,,,p,1,1.05009,space,0.3852,0,133,133,43,1,3_dist_red/trial19.png,,,1,3,redHorizontal,p,57,23,female,2021-02-23_21h17.45.296,exp11,2020.2.6,Win32,60,IwAR0fbhFbPWBJD8W8ulUltABWI7h-g-1gO5RlYgTQYTV_u_GWhCop-A_RuAE,,,,,,,,,,,
,,,,,,,,,,,,,,a,1,1.390015,space,0.28907,0,134,134,141,1,0_targ_4_dist_red/trial17.png,,,0,4,redHorizontal,a,57,23,female,2021-02-23_21h17.45.296,exp11,2020.2.6,Win32,60,IwAR0fbhFbPWBJD8W8ulUltABWI7h-g-1gO5RlYgTQYTV_u_GWhCop-A_RuAE,,,,,,,,,,,
,,,,,,,,,,,,,,p,1,0.578065,space,0.302505,0,135,135,70,1,9_dist_red/trial21.png,,,1,9,redHorizontal,p,57,23,female,2021-02-23_21h17.45.296,exp11,2020.2.6,Win32,60,IwAR0fbhFbPWBJD8W8ulUltABWI7h-g-1gO5RlYgTQYTV_u_GWhCop-A_RuAE,,,,,,,,,,,
,,,,,,,,,,,,,,a,1,0.80572,space,0.39788,0,136,136,139,1,0_targ_4_dist_red/trial15.png,,,0,4,redHorizontal,a,57,23,female,2021-02-23_21h17.45.296,exp11,2020.2.6,Win32,60,IwAR0fbhFbPWBJD8W8ulUltABWI7h-g-1gO5RlYgTQYTV_u_GWhCop-A_RuAE,,,,,,,,,,,
,,,,,,,,,,,,,,p,1,0.65669,space,0.23315,0,137,137,91,1,15_dist_red/trial17.png,,,1,15,redHorizontal,p,57,23,female,2021-02-23_21h17.45.296,exp11,2020.2.6,Win32,60,IwAR0fbhFbPWBJD8W8ulUltABWI7h-g-1gO5RlYgTQYTV_u_GWhCop-A_RuAE,,,,,,,,,,,
,,,,,,,,,,,,,,p,1,0.663185,space,0.1851,0,138,138,39,1,3_dist_red/trial15.png,,,1,3,redHorizontal,p,57,23,female,2021-02-23_21h17.45.296,exp11,2020.2.6,Win32,60,IwAR0fbhFbPWBJD8W8ulUltABWI7h-g-1gO5RlYgTQYTV_u_GWhCop-A_RuAE,,,,,,,,,,,
,,,,,,,,,,,,,,a,0,0.688965,space,0.48718,0,139,139,77,1,15_dist_red/trial3.png,,,1,15,redHorizontal,p,57,23,female,2021-02-23_21h17.45.296,exp11,2020.2.6,Win32,60,IwAR0fbhFbPWBJD8W8ulUltABWI7h-g-1gO5RlYgTQYTV_u_GWhCop-A_RuAE,,,,,,,,,,,
,,,,,,,,,,,,,,a,1,2.55956,space,1.012555,0,140,140,153,1,0_targ_10_dist_red/trial4.png,,,0,10,redHorizontal,a,57,23,female,2021-02-23_21h17.45.296,exp11,2020.2.6,Win32,60,IwAR0fbhFbPWBJD8W8ulUltABWI7h-g-1gO5RlYgTQYTV_u_GWhCop-A_RuAE,,,,,,,,,,,
,,,,,,,,,,,,,,p,1,0.904425,space,0.12533,0,141,141,22,1,0_dist_red/trial23.png,,,1,0,redHorizontal,p,57,23,female,2021-02-23_21h17.45.296,exp11,2020.2.6,Win32,60,IwAR0fbhFbPWBJD8W8ulUltABWI7h-g-1gO5RlYgTQYTV_u_GWhCop-A_RuAE,,,,,,,,,,,
,,,,,,,,,,,,,,a,1,1.503575,space,0.327955,0,142,142,137,1,0_targ_4_dist_red/trial13.png,,,0,4,redHorizontal,a,57,23,female,2021-02-23_21h17.45.296,exp11,2020.2.6,Win32,60,IwAR0fbhFbPWBJD8W8ulUltABWI7h-g-1gO5RlYgTQYTV_u_GWhCop-A_RuAE,,,,,,,,,,,
,,,,,,,,,,,,,,a,1,1.425235,space,0.25189,0,143,143,190,1,0_targ_16_dist_red/trial16.png,,,0,16,redHorizontal,a,57,23,female,2021-02-23_21h17.45.296,exp11,2020.2.6,Win32,60,IwAR0fbhFbPWBJD8W8ulUltABWI7h-g-1gO5RlYgTQYTV_u_GWhCop-A_RuAE,,,,,,,,,,,
,,,,,,,,,,,,,,a,1,0.595195,space,0.41804,0,144,144,146,1,0_targ_4_dist_red/trial22.png,,,0,4,redHorizontal,a,57,23,female,2021-02-23_21h17.45.296,exp11,2020.2.6,Win32,60,IwAR0fbhFbPWBJD8W8ulUltABWI7h-g-1gO5RlYgTQYTV_u_GWhCop-A_RuAE,,,,,,,,,,,
,,,,,,,,,,,,,,a,1,0.505235,space,0.360335,0,145,145,101,1,0_targ_1_dist_red/trial2.png,,,0,1,redHorizontal,a,57,23,female,2021-02-23_21h17.45.296,exp11,2020.2.6,Win32,60,IwAR0fbhFbPWBJD8W8ulUltABWI7h-g-1gO5RlYgTQYTV_u_GWhCop-A_RuAE,,,,,,,,,,,
,,,,,,,,,,,,,,a,1,0.821295,space,0.33395,0,146,146,130,1,0_targ_4_dist_red/trial6.png,,,0,4,redHorizontal,a,57,23,female,2021-02-23_21h17.45.296,exp11,2020.2.6,Win32,60,IwAR0fbhFbPWBJD8W8ulUltABWI7h-g-1gO5RlYgTQYTV_u_GWhCop-A_RuAE,,,,,,,,,,,
,,,,,,,,,,,,,,a,1,0.6127,space,0.254165,0,147,147,156,1,0_targ_10_dist_red/trial7.png,,,0,10,redHorizontal,a,57,23,female,2021-02-23_21h17.45.296,exp11,2020.2.6,Win32,60,IwAR0fbhFbPWBJD8W8ulUltABWI7h-g-1gO5RlYgTQYTV_u_GWhCop-A_RuAE,,,,,,,,,,,
,,,,,,,,,,,,,,a,1,0.487645,space,0.300885,0,148,148,113,1,0_targ_1_dist_red/trial14.png,,,0,1,redHorizontal,a,57,23,female,2021-02-23_21h17.45.296,exp11,2020.2.6,Win32,60,IwAR0fbhFbPWBJD8W8ulUltABWI7h-g-1gO5RlYgTQYTV_u_GWhCop-A_RuAE,,,,,,,,,,,
,,,,,,,,,,,,,,p,1,0.63988,space,0.179955,0,149,149,9,1,0_dist_red/trial10.png,,,1,0,redHorizontal,p,57,23,female,2021-02-23_21h17.45.296,exp11,2020.2.6,Win32,60,IwAR0fbhFbPWBJD8W8ulUltABWI7h-g-1gO5RlYgTQYTV_u_GWhCop-A_RuAE,,,,,,,,,,,
,,,,,,,,,,,,,,p,1,0.715495,space,0.13545,0,150,150,94,1,15_dist_red/trial20.png,,,1,15,redHorizontal,p,57,23,female,2021-02-23_21h17.45.296,exp11,2020.2.6,Win32,60,IwAR0fbhFbPWBJD8W8ulUltABWI7h-g-1gO5RlYgTQYTV_u_GWhCop-A_RuAE,,,,,,,,,,,
,,,,,,,,,,,,,,p,1,0.50071,space,0.168005,0,151,151,18,1,0_dist_red/trial19.png,,,1,0,redHorizontal,p,57,23,female,2021-02-23_21h17.45.296,exp11,2020.2.6,Win32,60,IwAR0fbhFbPWBJD8W8ulUltABWI7h-g-1gO5RlYgTQYTV_u_GWhCop-A_RuAE,,,,,,,,,,,
,,,,,,,,,,,,,,a,1,0.645345,space,0.382575,0,152,152,165,1,0_targ_10_dist_red/trial16.png,,,0,10,redHorizontal,a,57,23,female,2021-02-23_21h17.45.296,exp11,2020.2.6,Win32,60,IwAR0fbhFbPWBJD8W8ulUltABWI7h-g-1gO5RlYgTQYTV_u_GWhCop-A_RuAE,,,,,,,,,,,
,,,,,,,,,,,,,,a,1,0.580045,space,0.36946,0,153,153,160,1,0_targ_10_dist_red/trial11.png,,,0,10,redHorizontal,a,57,23,female,2021-02-23_21h17.45.296,exp11,2020.2.6,Win32,60,IwAR0fbhFbPWBJD8W8ulUltABWI7h-g-1gO5RlYgTQYTV_u_GWhCop-A_RuAE,,,,,,,,,,,
,,,,,,,,,,,,,,a,1,0.534615,space,0.268855,0,154,154,174,1,0_targ_10_dist_red/trial25.png,,,0,10,redHorizontal,a,57,23,female,2021-02-23_21h17.45.296,exp11,2020.2.6,Win32,60,IwAR0fbhFbPWBJD8W8ulUltABWI7h-g-1gO5RlYgTQYTV_u_GWhCop-A_RuAE,,,,,,,,,,,
,,,,,,,,,,,,,,a,1,0.51612,space,0.269355,0,155,155,155,1,0_targ_10_dist_red/trial6.png,,,0,10,redHorizontal,a,57,23,female,2021-02-23_21h17.45.296,exp11,2020.2.6,Win32,60,IwAR0fbhFbPWBJD8W8ulUltABWI7h-g-1gO5RlYgTQYTV_u_GWhCop-A_RuAE,,,,,,,,,,,
,,,,,,,,,,,,,,a,1,0.604655,space,0.25465,0,156,156,191,1,0_targ_16_dist_red/trial17.png,,,0,16,redHorizontal,a,57,23,female,2021-02-23_21h17.45.296,exp11,2020.2.6,Win32,60,IwAR0fbhFbPWBJD8W8ulUltABWI7h-g-1gO5RlYgTQYTV_u_GWhCop-A_RuAE,,,,,,,,,,,
,,,,,,,,,,,,,,a,1,0.52469,space,0.25545,0,157,157,133,1,0_targ_4_dist_red/trial9.png,,,0,4,redHorizontal,a,57,23,female,2021-02-23_21h17.45.296,exp11,2020.2.6,Win32,60,IwAR0fbhFbPWBJD8W8ulUltABWI7h-g-1gO5RlYgTQYTV_u_GWhCop-A_RuAE,,,,,,,,,,,
,,,,,,,,,,,,,,a,1,0.78801,space,0.31798,0,158,158,177,1,0_targ_16_dist_red/trial3.png,,,0,16,redHorizontal,a,57,23,female,2021-02-23_21h17.45.296,exp11,2020.2.6,Win32,60,IwAR0fbhFbPWBJD8W8ulUltABWI7h-g-1gO5RlYgTQYTV_u_GWhCop-A_RuAE,,,,,,,,,,,
,,,,,,,,,,,,,,a,1,0.6985,space,0.284065,0,159,159,126,1,0_targ_4_dist_red/trial2.png,,,0,4,redHorizontal,a,57,23,female,2021-02-23_21h17.45.296,exp11,2020.2.6,Win32,60,IwAR0fbhFbPWBJD8W8ulUltABWI7h-g-1gO5RlYgTQYTV_u_GWhCop-A_RuAE,,,,,,,,,,,
,,,,,,,,,,,,,,a,1,0.605505,space,0.25125,0,160,160,112,1,0_targ_1_dist_red/trial13.png,,,0,1,redHorizontal,a,57,23,female,2021-02-23_21h17.45.296,exp11,2020.2.6,Win32,60,IwAR0fbhFbPWBJD8W8ulUltABWI7h-g-1gO5RlYgTQYTV_u_GWhCop-A_RuAE,,,,,,,,,,,
,,,,,,,,,,,,,,a,1,0.648205,space,0.29589,0,161,161,152,1,0_targ_10_dist_red/trial3.png,,,0,10,redHorizontal,a,57,23,female,2021-02-23_21h17.45.296,exp11,2020.2.6,Win32,60,IwAR0fbhFbPWBJD8W8ulUltABWI7h-g-1gO5RlYgTQYTV_u_GWhCop-A_RuAE,,,,,,,,,,,
,,,,,,,,,,,,,,p,1,0.72085,space,0.29583,0,162,162,50,1,9_dist_red/trial1.png,,,1,9,redHorizontal,p,57,23,female,2021-02-23_21h17.45.296,exp11,2020.2.6,Win32,60,IwAR0fbhFbPWBJD8W8ulUltABWI7h-g-1gO5RlYgTQYTV_u_GWhCop-A_RuAE,,,,,,,,,,,
,,,,,,,,,,,,,,a,1,1.314605,space,0.264485,0,163,163,149,1,0_targ_4_dist_red/trial25.png,,,0,4,redHorizontal,a,57,23,female,2021-02-23_21h17.45.296,exp11,2020.2.6,Win32,60,IwAR0fbhFbPWBJD8W8ulUltABWI7h-g-1gO5RlYgTQYTV_u_GWhCop-A_RuAE,,,,,,,,,,,
,,,,,,,,,,,,,,p,1,0.622295,space,0.218485,0,164,164,26,1,3_dist_red/trial2.png,,,1,3,redHorizontal,p,57,23,female,2021-02-23_21h17.45.296,exp11,2020.2.6,Win32,60,IwAR0fbhFbPWBJD8W8ulUltABWI7h-g-1gO5RlYgTQYTV_u_GWhCop-A_RuAE,,,,,,,,,,,
,,,,,,,,,,,,,,a,1,0.898665,space,0.235205,0,165,165,114,1,0_targ_1_dist_red/trial15.png,,,0,1,redHorizontal,a,57,23,female,2021-02-23_21h17.45.296,exp11,2020.2.6,Win32,60,IwAR0fbhFbPWBJD8W8ulUltABWI7h-g-1gO5RlYgTQYTV_u_GWhCop-A_RuAE,,,,,,,,,,,
,,,,,,,,,,,,,,a,1,0.830485,space,0.207945,0,166,166,104,1,0_targ_1_dist_red/trial5.png,,,0,1,redHorizontal,a,57,23,female,2021-02-23_21h17.45.296,exp11,2020.2.6,Win32,60,IwAR0fbhFbPWBJD8W8ulUltABWI7h-g-1gO5RlYgTQYTV_u_GWhCop-A_RuAE,,,,,,,,,,,
,,,,,,,,,,,,,,a,1,1.2095,space,0.251395,0,167,167,181,1,0_targ_16_dist_red/trial7.png,,,0,16,redHorizontal,a,57,23,female,2021-02-23_21h17.45.296,exp11,2020.2.6,Win32,60,IwAR0fbhFbPWBJD8W8ulUltABWI7h-g-1gO5RlYgTQYTV_u_GWhCop-A_RuAE,,,,,,,,,,,
,,,,,,,,,,,,,,a,1,0.61641,space,0.284845,0,168,168,154,1,0_targ_10_dist_red/trial5.png,,,0,10,redHorizontal,a,57,23,female,2021-02-23_21h17.45.296,exp11,2020.2.6,Win32,60,IwAR0fbhFbPWBJD8W8ulUltABWI7h-g-1gO5RlYgTQYTV_u_GWhCop-A_RuAE,,,,,,,,,,,
,,,,,,,,,,,,,,p,1,0.583385,space,0.271225,0,169,169,2,1,0_dist_red/trial3.png,,,1,0,redHorizontal,p,57,23,female,2021-02-23_21h17.45.296,exp11,2020.2.6,Win32,60,IwAR0fbhFbPWBJD8W8ulUltABWI7h-g-1gO5RlYgTQYTV_u_GWhCop-A_RuAE,,,,,,,,,,,
,,,,,,,,,,,,,,a,1,0.66893,space,0.259405,0,170,170,162,1,0_targ_10_dist_red/trial13.png,,,0,10,redHorizontal,a,57,23,female,2021-02-23_21h17.45.296,exp11,2020.2.6,Win32,60,IwAR0fbhFbPWBJD8W8ulUltABWI7h-g-1gO5RlYgTQYTV_u_GWhCop-A_RuAE,,,,,,,,,,,
,,,,,,,,,,,,,,a,1,0.58414,space,0.318225,0,171,171,109,1,0_targ_1_dist_red/trial10.png,,,0,1,redHorizontal,a,57,23,female,2021-02-23_21h17.45.296,exp11,2020.2.6,Win32,60,IwAR0fbhFbPWBJD8W8ulUltABWI7h-g-1gO5RlYgTQYTV_u_GWhCop-A_RuAE,,,,,,,,,,,
,,,,,,,,,,,,,,p,1,2.289485,space,0.13579,0,172,172,27,1,3_dist_red/trial3.png,,,1,3,redHorizontal,p,57,23,female,2021-02-23_21h17.45.296,exp11,2020.2.6,Win32,60,IwAR0fbhFbPWBJD8W8ulUltABWI7h-g-1gO5RlYgTQYTV_u_GWhCop-A_RuAE,,,,,,,,,,,
,,,,,,,,,,,,,,p,1,1.0093,space,0.15227,0,173,173,63,1,9_dist_red/trial14.png,,,1,9,redHorizontal,p,57,23,female,2021-02-23_21h17.45.296,exp11,2020.2.6,Win32,60,IwAR0fbhFbPWBJD8W8ulUltABWI7h-g-1gO5RlYgTQYTV_u_GWhCop-A_RuAE,,,,,,,,,,,
,,,,,,,,,,,,,,a,1,0.794855,space,0.240715,0,174,174,171,1,0_targ_10_dist_red/trial22.png,,,0,10,redHorizontal,a,57,23,female,2021-02-23_21h17.45.296,exp11,2020.2.6,Win32,60,IwAR0fbhFbPWBJD8W8ulUltABWI7h-g-1gO5RlYgTQYTV_u_GWhCop-A_RuAE,,,,,,,,,,,
,,,,,,,,,,,,,,a,1,0.63342,space,0.21803,0,175,175,120,1,0_targ_1_dist_red/trial21.png,,,0,1,redHorizontal,a,57,23,female,2021-02-23_21h17.45.296,exp11,2020.2.6,Win32,60,IwAR0fbhFbPWBJD8W8ulUltABWI7h-g-1gO5RlYgTQYTV_u_GWhCop-A_RuAE,,,,,,,,,,,
,,,,,,,,,,,,,,a,1,0.62454,space,0.28758,0,176,176,170,1,0_targ_10_dist_red/trial21.png,,,0,10,redHorizontal,a,57,23,female,2021-02-23_21h17.45.296,exp11,2020.2.6,Win32,60,IwAR0fbhFbPWBJD8W8ulUltABWI7h-g-1gO5RlYgTQYTV_u_GWhCop-A_RuAE,,,,,,,,,,,
,,,,,,,,,,,,,,a,1,0.524285,space,0.23648,0,177,177,106,1,0_targ_1_dist_red/trial7.png,,,0,1,redHorizontal,a,57,23,female,2021-02-23_21h17.45.296,exp11,2020.2.6,Win32,60,IwAR0fbhFbPWBJD8W8ulUltABWI7h-g-1gO5RlYgTQYTV_u_GWhCop-A_RuAE,,,,,,,,,,,
,,,,,,,,,,,,,,a,1,0.546195,space,0.247015,0,178,178,166,1,0_targ_10_dist_red/trial17.png,,,0,10,redHorizontal,a,57,23,female,2021-02-23_21h17.45.296,exp11,2020.2.6,Win32,60,IwAR0fbhFbPWBJD8W8ulUltABWI7h-g-1gO5RlYgTQYTV_u_GWhCop-A_RuAE,,,,,,,,,,,
,,,,,,,,,,,,,,p,1,0.641315,space,0.233755,0,179,179,29,1,3_dist_red/trial5.png,,,1,3,redHorizontal,p,57,23,female,2021-02-23_21h17.45.296,exp11,2020.2.6,Win32,60,IwAR0fbhFbPWBJD8W8ulUltABWI7h-g-1gO5RlYgTQYTV_u_GWhCop-A_RuAE,,,,,,,,,,,
,,,,,,,,,,,,,,p,1,0.6073,space,0.25164,0,180,180,53,1,9_dist_red/trial4.png,,,1,9,redHorizontal,p,57,23,female,2021-02-23_21h17.45.296,exp11,2020.2.6,Win32,60,IwAR0fbhFbPWBJD8W8ulUltABWI7h-g-1gO5RlYgTQYTV_u_GWhCop-A_RuAE,,,,,,,,,,,
,,,,,,,,,,,,,,a,1,0.68027,space,0.28375,0,181,181,102,1,0_targ_1_dist_red/trial3.png,,,0,1,redHorizontal,a,57,23,female,2021-02-23_21h17.45.296,exp11,2020.2.6,Win32,60,IwAR0fbhFbPWBJD8W8ulUltABWI7h-g-1gO5RlYgTQYTV_u_GWhCop-A_RuAE,,,,,,,,,,,
,,,,,,,,,,,,,,a,1,0.533385,space,0.243505,0,182,182,143,1,0_targ_4_dist_red/trial19.png,,,0,4,redHorizontal,a,57,23,female,2021-02-23_21h17.45.296,exp11,2020.2.6,Win32,60,IwAR0fbhFbPWBJD8W8ulUltABWI7h-g-1gO5RlYgTQYTV_u_GWhCop-A_RuAE,,,,,,,,,,,
,,,,,,,,,,,,,,p,1,0.53564,space,0.319015,0,183,183,30,1,3_dist_red/trial6.png,,,1,3,redHorizontal,p,57,23,female,2021-02-23_21h17.45.296,exp11,2020.2.6,Win32,60,IwAR0fbhFbPWBJD8W8ulUltABWI7h-g-1gO5RlYgTQYTV_u_GWhCop-A_RuAE,,,,,,,,,,,
,,,,,,,,,,,,,,a,1,0.63894,space,0.271725,0,184,184,159,1,0_targ_10_dist_red/trial10.png,,,0,10,redHorizontal,a,57,23,female,2021-02-23_21h17.45.296,exp11,2020.2.6,Win32,60,IwAR0fbhFbPWBJD8W8ulUltABWI7h-g-1gO5RlYgTQYTV_u_GWhCop-A_RuAE,,,,,,,,,,,
,,,,,,,,,,,,,,a,1,0.55412,space,0.26759,0,185,185,134,1,0_targ_4_dist_red/trial10.png,,,0,4,redHorizontal,a,57,23,female,2021-02-23_21h17.45.296,exp11,2020.2.6,Win32,60,IwAR0fbhFbPWBJD8W8ulUltABWI7h-g-1gO5RlYgTQYTV_u_GWhCop-A_RuAE,,,,,,,,,,,
,,,,,,,,,,,,,,a,1,0.64032,space,0.268755,0,186,186,169,1,0_targ_10_dist_red/trial20.png,,,0,10,redHorizontal,a,57,23,female,2021-02-23_21h17.45.296,exp11,2020.2.6,Win32,60,IwAR0fbhFbPWBJD8W8ulUltABWI7h-g-1gO5RlYgTQYTV_u_GWhCop-A_RuAE,,,,,,,,,,,
,,,,,,,,,,,,,,a,1,0.47632,space,0.285915,0,187,187,142,1,0_targ_4_dist_red/trial18.png,,,0,4,redHorizontal,a,57,23,female,2021-02-23_21h17.45.296,exp11,2020.2.6,Win32,60,IwAR0fbhFbPWBJD8W8ulUltABWI7h-g-1gO5RlYgTQYTV_u_GWhCop-A_RuAE,,,,,,,,,,,
,,,,,,,,,,,,,,a,1,0.59539,space,0.30078,0,188,188,119,1,0_targ_1_dist_red/trial20.png,,,0,1,redHorizontal,a,57,23,female,2021-02-23_21h17.45.296,exp11,2020.2.6,Win32,60,IwAR0fbhFbPWBJD8W8ulUltABWI7h-g-1gO5RlYgTQYTV_u_GWhCop-A_RuAE,,,,,,,,,,,
,,,,,,,,,,,,,,a,1,0.63183,space,0.35065,0,189,189,179,1,0_targ_16_dist_red/trial5.png,,,0,16,redHorizontal,a,57,23,female,2021-02-23_21h17.45.296,exp11,2020.2.6,Win32,60,IwAR0fbhFbPWBJD8W8ulUltABWI7h-g-1gO5RlYgTQYTV_u_GWhCop-A_RuAE,,,,,,,,,,,
,,,,,,,,,,,,,,p,1,0.52432,space,0.303335,0,190,190,33,1,3_dist_red/trial9.png,,,1,3,redHorizontal,p,57,23,female,2021-02-23_21h17.45.296,exp11,2020.2.6,Win32,60,IwAR0fbhFbPWBJD8W8ulUltABWI7h-g-1gO5RlYgTQYTV_u_GWhCop-A_RuAE,,,,,,,,,,,
,,,,,,,,,,,,,,a,1,0.849835,space,0.248615,0,191,191,127,1,0_targ_4_dist_red/trial3.png,,,0,4,redHorizontal,a,57,23,female,2021-02-23_21h17.45.296,exp11,2020.2.6,Win32,60,IwAR0fbhFbPWBJD8W8ulUltABWI7h-g-1gO5RlYgTQYTV_u_GWhCop-A_RuAE,,,,,,,,,,,
,,,,,,,,,,,,,,a,1,0.672955,space,0.57044,0,192,192,192,1,0_targ_16_dist_red/trial18.png,,,0,16,redHorizontal,a,57,23,female,2021-02-23_21h17.45.296,exp11,2020.2.6,Win32,60,IwAR0fbhFbPWBJD8W8ulUltABWI7h-g-1gO5RlYgTQYTV_u_GWhCop-A_RuAE,,,,,,,,,,,
,,,,,,,,,,,,,,a,1,0.657635,space,0.301445,0,193,193,121,1,0_targ_1_dist_red/trial22.png,,,0,1,redHorizontal,a,57,23,female,2021-02-23_21h17.45.296,exp11,2020.2.6,Win32,60,IwAR0fbhFbPWBJD8W8ulUltABWI7h-g-1gO5RlYgTQYTV_u_GWhCop-A_RuAE,,,,,,,,,,,
,,,,,,,,,,,,,,a,1,0.444595,space,0.487955,0,194,194,131,1,0_targ_4_dist_red/trial7.png,,,0,4,redHorizontal,a,57,23,female,2021-02-23_21h17.45.296,exp11,2020.2.6,Win32,60,IwAR0fbhFbPWBJD8W8ulUltABWI7h-g-1gO5RlYgTQYTV_u_GWhCop-A_RuAE,,,,,,,,,,,
,,,,,,,,,,,,,,p,1,0.49628,space,0.300275,0,195,195,58,1,9_dist_red/trial9.png,,,1,9,redHorizontal,p,57,23,female,2021-02-23_21h17.45.296,exp11,2020.2.6,Win32,60,IwAR0fbhFbPWBJD8W8ulUltABWI7h-g-1gO5RlYgTQYTV_u_GWhCop-A_RuAE,,,,,,,,,,,
,,,,,,,,,,,,,,a,1,1.20797,space,0.342,0,196,196,189,1,0_targ_16_dist_red/trial15.png,,,0,16,redHorizontal,a,57,23,female,2021-02-23_21h17.45.296,exp11,2020.2.6,Win32,60,IwAR0fbhFbPWBJD8W8ulUltABWI7h-g-1gO5RlYgTQYTV_u_GWhCop-A_RuAE,,,,,,,,,,,
,,,,,,,,,,,,,,a,1,0.80443,space,0.333735,0,197,197,196,1,0_targ_16_dist_red/trial22.png,,,0,16,redHorizontal,a,57,23,female,2021-02-23_21h17.45.296,exp11,2020.2.6,Win32,60,IwAR0fbhFbPWBJD8W8ulUltABWI7h-g-1gO5RlYgTQYTV_u_GWhCop-A_RuAE,,,,,,,,,,,
,,,,,,,,,,,,,,p,1,0.585845,space,0.234205,0,198,198,73,1,9_dist_red/trial24.png,,,1,9,redHorizontal,p,57,23,female,2021-02-23_21h17.45.296,exp11,2020.2.6,Win32,60,IwAR0fbhFbPWBJD8W8ulUltABWI7h-g-1gO5RlYgTQYTV_u_GWhCop-A_RuAE,,,,,,,,,,,
,,,,,,,,,,,,,,a,1,0.676585,space,0.23618,0,199,199,111,1,0_targ_1_dist_red/trial12.png,,,0,1,redHorizontal,a,57,23,female,2021-02-23_21h17.45.296,exp11,2020.2.6,Win32,60,IwAR0fbhFbPWBJD8W8ulUltABWI7h-g-1gO5RlYgTQYTV_u_GWhCop-A_RuAE,,,,,,,,,,,
,,,,,,,,,,,,,,,,,,,,,,,,,,,,,,,57,23,female,2021-02-23_21h17.45.296,exp11,2020.2.6,Win32,60,IwAR0fbhFbPWBJD8W8ulUltABWI7h-g-1gO5RlYgTQYTV_u_GWhCop-A_RuAE,0,1,1,1,1,conRed.xlsx,red horizontal,Look for red horizontal bar (target) and indicate if it is present or absent in the array. If red horizontal target is present press 'p' and if absent press 'a'. Press SPACE to start.,,,
