key_resp_6.keys,key_resp_6.rt,key_resp_7.keys,key_resp_7.rt,key_resp_8.keys,key_resp_8.rt,key_resp_10.keys,key_resp_10.rt,key_resp_9.keys,key_resp_9.rt,key_resp_3.keys,key_resp_3.rt,key_resp_5.keys,key_resp_5.rt,key_resp.keys,key_resp.corr,key_resp.rt,key_resp_4.keys,key_resp_4.rt,trials.thisRepN,trials.thisTrialN,trials.thisN,trials.thisIndex,trials.ran,ImageFile,tarPos,tarSize,targPres,numDist,targetName,correctAns,participant,age,sex,date,expName,psychopyVersion,OS,frameRate,fbclid,trials_2.thisRepN,trials_2.thisTrialN,trials_2.thisN,trials_2.thisIndex,trials_2.ran,condsFile,targName,instructionText,colTarget,sizeTarg,posit
space,7.24,space,8.015,space,2.451,space,1.619,space,1.793,space,29.075,space,15.924,a,1,2.669,space,3.426,0,0,0,130,1,0_targ_4_dist_green/trial6.png,,,0,4,greenverival,a,59,52,female,2021-02-22_15h22.11.487,exp11,2020.2.6,Win32,60,IwAR0V_vrpRGxMeSnFFgdNgc3tRRN1v4D-QWrpjllhsVkaG5aFI1DEgYL9hHQ,,,,,,,,,,,
,,,,,,,,,,,,,,p,1,2.282,space,2.121,0,1,1,12,1,0_dist_green/trial13.png,,,1,0,greenverival,p,59,52,female,2021-02-22_15h22.11.487,exp11,2020.2.6,Win32,60,IwAR0V_vrpRGxMeSnFFgdNgc3tRRN1v4D-QWrpjllhsVkaG5aFI1DEgYL9hHQ,,,,,,,,,,,
,,,,,,,,,,,,,,a,0,6.591,space,12.053,0,2,2,25,1,3_dist_green/trial1.png,,,1,3,greenverival,p,59,52,female,2021-02-22_15h22.11.487,exp11,2020.2.6,Win32,60,IwAR0V_vrpRGxMeSnFFgdNgc3tRRN1v4D-QWrpjllhsVkaG5aFI1DEgYL9hHQ,,,,,,,,,,,
,,,,,,,,,,,,,,a,1,3.631,space,1.782,0,3,3,196,1,0_targ_16_dist_green/trial22.png,,,0,16,greenverival,a,59,52,female,2021-02-22_15h22.11.487,exp11,2020.2.6,Win32,60,IwAR0V_vrpRGxMeSnFFgdNgc3tRRN1v4D-QWrpjllhsVkaG5aFI1DEgYL9hHQ,,,,,,,,,,,
,,,,,,,,,,,,,,a,0,3.425,space,18.719,0,4,4,81,1,15_dist_green/trial7.png,,,1,15,greenverival,p,59,52,female,2021-02-22_15h22.11.487,exp11,2020.2.6,Win32,60,IwAR0V_vrpRGxMeSnFFgdNgc3tRRN1v4D-QWrpjllhsVkaG5aFI1DEgYL9hHQ,,,,,,,,,,,
,,,,,,,,,,,,,,a,1,1.431,space,1.647,0,5,5,143,1,0_targ_4_dist_green/trial19.png,,,0,4,greenverival,a,59,52,female,2021-02-22_15h22.11.487,exp11,2020.2.6,Win32,60,IwAR0V_vrpRGxMeSnFFgdNgc3tRRN1v4D-QWrpjllhsVkaG5aFI1DEgYL9hHQ,,,,,,,,,,,
,,,,,,,,,,,,,,a,1,0.85,space,1.109,0,6,6,109,1,0_targ_1_dist_green/trial10.png,,,0,1,greenverival,a,59,52,female,2021-02-22_15h22.11.487,exp11,2020.2.6,Win32,60,IwAR0V_vrpRGxMeSnFFgdNgc3tRRN1v4D-QWrpjllhsVkaG5aFI1DEgYL9hHQ,,,,,,,,,,,
,,,,,,,,,,,,,,p,1,3.699,space,3.201,0,7,7,59,1,9_dist_green/trial10.png,,,1,9,greenverival,p,59,52,female,2021-02-22_15h22.11.487,exp11,2020.2.6,Win32,60,IwAR0V_vrpRGxMeSnFFgdNgc3tRRN1v4D-QWrpjllhsVkaG5aFI1DEgYL9hHQ,,,,,,,,,,,
,,,,,,,,,,,,,,a,0,2.628,space,0.418,0,8,8,79,1,15_dist_green/trial5.png,,,1,15,greenverival,p,59,52,female,2021-02-22_15h22.11.487,exp11,2020.2.6,Win32,60,IwAR0V_vrpRGxMeSnFFgdNgc3tRRN1v4D-QWrpjllhsVkaG5aFI1DEgYL9hHQ,,,,,,,,,,,
,,,,,,,,,,,,,,p,1,2.541,space,0.912,0,9,9,75,1,15_dist_green/trial1.png,,,1,15,greenverival,p,59,52,female,2021-02-22_15h22.11.487,exp11,2020.2.6,Win32,60,IwAR0V_vrpRGxMeSnFFgdNgc3tRRN1v4D-QWrpjllhsVkaG5aFI1DEgYL9hHQ,,,,,,,,,,,
,,,,,,,,,,,,,,p,1,1.04,space,0.487,0,10,10,32,1,3_dist_green/trial8.png,,,1,3,greenverival,p,59,52,female,2021-02-22_15h22.11.487,exp11,2020.2.6,Win32,60,IwAR0V_vrpRGxMeSnFFgdNgc3tRRN1v4D-QWrpjllhsVkaG5aFI1DEgYL9hHQ,,,,,,,,,,,
,,,,,,,,,,,,,,a,1,1.326,space,1.137,0,11,11,147,1,0_targ_4_dist_green/trial23.png,,,0,4,greenverival,a,59,52,female,2021-02-22_15h22.11.487,exp11,2020.2.6,Win32,60,IwAR0V_vrpRGxMeSnFFgdNgc3tRRN1v4D-QWrpjllhsVkaG5aFI1DEgYL9hHQ,,,,,,,,,,,
,,,,,,,,,,,,,,p,1,1.533,space,0.321,0,12,12,53,1,9_dist_green/trial4.png,,,1,9,greenverival,p,59,52,female,2021-02-22_15h22.11.487,exp11,2020.2.6,Win32,60,IwAR0V_vrpRGxMeSnFFgdNgc3tRRN1v4D-QWrpjllhsVkaG5aFI1DEgYL9hHQ,,,,,,,,,,,
,,,,,,,,,,,,,,a,0,9.136,space,26.504,0,13,13,16,1,0_dist_green/trial17.png,,,1,0,greenverival,p,59,52,female,2021-02-22_15h22.11.487,exp11,2020.2.6,Win32,60,IwAR0V_vrpRGxMeSnFFgdNgc3tRRN1v4D-QWrpjllhsVkaG5aFI1DEgYL9hHQ,,,,,,,,,,,
,,,,,,,,,,,,,,a,1,3.312,space,1.114,0,14,14,114,1,0_targ_1_dist_green/trial15.png,,,0,1,greenverival,a,59,52,female,2021-02-22_15h22.11.487,exp11,2020.2.6,Win32,60,IwAR0V_vrpRGxMeSnFFgdNgc3tRRN1v4D-QWrpjllhsVkaG5aFI1DEgYL9hHQ,,,,,,,,,,,
,,,,,,,,,,,,,,p,0,2.53,space,0.104,0,15,15,119,1,0_targ_1_dist_green/trial20.png,,,0,1,greenverival,a,59,52,female,2021-02-22_15h22.11.487,exp11,2020.2.6,Win32,60,IwAR0V_vrpRGxMeSnFFgdNgc3tRRN1v4D-QWrpjllhsVkaG5aFI1DEgYL9hHQ,,,,,,,,,,,
,,,,,,,,,,,,,,a,1,2.138,space,0.843,0,16,16,174,1,0_targ_10_dist_green/trial25.png,,,0,10,greenverival,a,59,52,female,2021-02-22_15h22.11.487,exp11,2020.2.6,Win32,60,IwAR0V_vrpRGxMeSnFFgdNgc3tRRN1v4D-QWrpjllhsVkaG5aFI1DEgYL9hHQ,,,,,,,,,,,
,,,,,,,,,,,,,,a,1,0.625,space,0.619,0,17,17,127,1,0_targ_4_dist_green/trial3.png,,,0,4,greenverival,a,59,52,female,2021-02-22_15h22.11.487,exp11,2020.2.6,Win32,60,IwAR0V_vrpRGxMeSnFFgdNgc3tRRN1v4D-QWrpjllhsVkaG5aFI1DEgYL9hHQ,,,,,,,,,,,
,,,,,,,,,,,,,,a,1,0.958,space,0.554,0,18,18,168,1,0_targ_10_dist_green/trial19.png,,,0,10,greenverival,a,59,52,female,2021-02-22_15h22.11.487,exp11,2020.2.6,Win32,60,IwAR0V_vrpRGxMeSnFFgdNgc3tRRN1v4D-QWrpjllhsVkaG5aFI1DEgYL9hHQ,,,,,,,,,,,
,,,,,,,,,,,,,,p,1,2.15,space,0.603,0,19,19,9,1,0_dist_green/trial10.png,,,1,0,greenverival,p,59,52,female,2021-02-22_15h22.11.487,exp11,2020.2.6,Win32,60,IwAR0V_vrpRGxMeSnFFgdNgc3tRRN1v4D-QWrpjllhsVkaG5aFI1DEgYL9hHQ,,,,,,,,,,,
,,,,,,,,,,,,,,p,1,1.408,space,0.516,0,20,20,44,1,3_dist_green/trial20.png,,,1,3,greenverival,p,59,52,female,2021-02-22_15h22.11.487,exp11,2020.2.6,Win32,60,IwAR0V_vrpRGxMeSnFFgdNgc3tRRN1v4D-QWrpjllhsVkaG5aFI1DEgYL9hHQ,,,,,,,,,,,
,,,,,,,,,,,,,,a,1,1.335,space,1.121,0,21,21,178,1,0_targ_16_dist_green/trial4.png,,,0,16,greenverival,a,59,52,female,2021-02-22_15h22.11.487,exp11,2020.2.6,Win32,60,IwAR0V_vrpRGxMeSnFFgdNgc3tRRN1v4D-QWrpjllhsVkaG5aFI1DEgYL9hHQ,,,,,,,,,,,
,,,,,,,,,,,,,,a,0,0.656,space,1.203,0,22,22,52,1,9_dist_green/trial3.png,,,1,9,greenverival,p,59,52,female,2021-02-22_15h22.11.487,exp11,2020.2.6,Win32,60,IwAR0V_vrpRGxMeSnFFgdNgc3tRRN1v4D-QWrpjllhsVkaG5aFI1DEgYL9hHQ,,,,,,,,,,,
,,,,,,,,,,,,,,p,1,2.139,space,0.515,0,23,23,10,1,0_dist_green/trial11.png,,,1,0,greenverival,p,59,52,female,2021-02-22_15h22.11.487,exp11,2020.2.6,Win32,60,IwAR0V_vrpRGxMeSnFFgdNgc3tRRN1v4D-QWrpjllhsVkaG5aFI1DEgYL9hHQ,,,,,,,,,,,
,,,,,,,,,,,,,,a,1,1.546,space,0.535,0,24,24,167,1,0_targ_10_dist_green/trial18.png,,,0,10,greenverival,a,59,52,female,2021-02-22_15h22.11.487,exp11,2020.2.6,Win32,60,IwAR0V_vrpRGxMeSnFFgdNgc3tRRN1v4D-QWrpjllhsVkaG5aFI1DEgYL9hHQ,,,,,,,,,,,
,,,,,,,,,,,,,,p,1,1.151,space,0.421,0,25,25,5,1,0_dist_green/trial6.png,,,1,0,greenverival,p,59,52,female,2021-02-22_15h22.11.487,exp11,2020.2.6,Win32,60,IwAR0V_vrpRGxMeSnFFgdNgc3tRRN1v4D-QWrpjllhsVkaG5aFI1DEgYL9hHQ,,,,,,,,,,,
,,,,,,,,,,,,,,p,1,1.348,space,0.458,0,26,26,41,1,3_dist_green/trial17.png,,,1,3,greenverival,p,59,52,female,2021-02-22_15h22.11.487,exp11,2020.2.6,Win32,60,IwAR0V_vrpRGxMeSnFFgdNgc3tRRN1v4D-QWrpjllhsVkaG5aFI1DEgYL9hHQ,,,,,,,,,,,
,,,,,,,,,,,,,,a,0,1.315,space,2.203,0,27,27,93,1,15_dist_green/trial19.png,,,1,15,greenverival,p,59,52,female,2021-02-22_15h22.11.487,exp11,2020.2.6,Win32,60,IwAR0V_vrpRGxMeSnFFgdNgc3tRRN1v4D-QWrpjllhsVkaG5aFI1DEgYL9hHQ,,,,,,,,,,,
,,,,,,,,,,,,,,p,1,1.048,space,0.565,0,28,28,43,1,3_dist_green/trial19.png,,,1,3,greenverival,p,59,52,female,2021-02-22_15h22.11.487,exp11,2020.2.6,Win32,60,IwAR0V_vrpRGxMeSnFFgdNgc3tRRN1v4D-QWrpjllhsVkaG5aFI1DEgYL9hHQ,,,,,,,,,,,
,,,,,,,,,,,,,,p,1,0.664,space,0.624,0,29,29,1,1,0_dist_green/trial2.png,,,1,0,greenverival,p,59,52,female,2021-02-22_15h22.11.487,exp11,2020.2.6,Win32,60,IwAR0V_vrpRGxMeSnFFgdNgc3tRRN1v4D-QWrpjllhsVkaG5aFI1DEgYL9hHQ,,,,,,,,,,,
,,,,,,,,,,,,,,a,1,1.848,space,1.769,0,30,30,199,1,0_targ_16_dist_green/trial25.png,,,0,16,greenverival,a,59,52,female,2021-02-22_15h22.11.487,exp11,2020.2.6,Win32,60,IwAR0V_vrpRGxMeSnFFgdNgc3tRRN1v4D-QWrpjllhsVkaG5aFI1DEgYL9hHQ,,,,,,,,,,,
,,,,,,,,,,,,,,p,1,0.853,space,0.54,0,31,31,4,1,0_dist_green/trial5.png,,,1,0,greenverival,p,59,52,female,2021-02-22_15h22.11.487,exp11,2020.2.6,Win32,60,IwAR0V_vrpRGxMeSnFFgdNgc3tRRN1v4D-QWrpjllhsVkaG5aFI1DEgYL9hHQ,,,,,,,,,,,
,,,,,,,,,,,,,,a,1,1.194,space,0.786,0,32,32,163,1,0_targ_10_dist_green/trial14.png,,,0,10,greenverival,a,59,52,female,2021-02-22_15h22.11.487,exp11,2020.2.6,Win32,60,IwAR0V_vrpRGxMeSnFFgdNgc3tRRN1v4D-QWrpjllhsVkaG5aFI1DEgYL9hHQ,,,,,,,,,,,
,,,,,,,,,,,,,,a,1,1.499,space,0.705,0,33,33,195,1,0_targ_16_dist_green/trial21.png,,,0,16,greenverival,a,59,52,female,2021-02-22_15h22.11.487,exp11,2020.2.6,Win32,60,IwAR0V_vrpRGxMeSnFFgdNgc3tRRN1v4D-QWrpjllhsVkaG5aFI1DEgYL9hHQ,,,,,,,,,,,
,,,,,,,,,,,,,,p,1,1.486,space,0.855,0,34,34,96,1,15_dist_green/trial22.png,,,1,15,greenverival,p,59,52,female,2021-02-22_15h22.11.487,exp11,2020.2.6,Win32,60,IwAR0V_vrpRGxMeSnFFgdNgc3tRRN1v4D-QWrpjllhsVkaG5aFI1DEgYL9hHQ,,,,,,,,,,,
,,,,,,,,,,,,,,a,1,1.152,space,0.657,0,35,35,132,1,0_targ_4_dist_green/trial8.png,,,0,4,greenverival,a,59,52,female,2021-02-22_15h22.11.487,exp11,2020.2.6,Win32,60,IwAR0V_vrpRGxMeSnFFgdNgc3tRRN1v4D-QWrpjllhsVkaG5aFI1DEgYL9hHQ,,,,,,,,,,,
,,,,,,,,,,,,,,a,1,1.023,space,0.591,0,36,36,126,1,0_targ_4_dist_green/trial2.png,,,0,4,greenverival,a,59,52,female,2021-02-22_15h22.11.487,exp11,2020.2.6,Win32,60,IwAR0V_vrpRGxMeSnFFgdNgc3tRRN1v4D-QWrpjllhsVkaG5aFI1DEgYL9hHQ,,,,,,,,,,,
,,,,,,,,,,,,,,p,1,0.799,space,0.57,0,37,37,8,1,0_dist_green/trial9.png,,,1,0,greenverival,p,59,52,female,2021-02-22_15h22.11.487,exp11,2020.2.6,Win32,60,IwAR0V_vrpRGxMeSnFFgdNgc3tRRN1v4D-QWrpjllhsVkaG5aFI1DEgYL9hHQ,,,,,,,,,,,
,,,,,,,,,,,,,,a,1,1.055,space,0.733,0,38,38,100,1,0_targ_1_dist_green/trial1.png,,,0,1,greenverival,a,59,52,female,2021-02-22_15h22.11.487,exp11,2020.2.6,Win32,60,IwAR0V_vrpRGxMeSnFFgdNgc3tRRN1v4D-QWrpjllhsVkaG5aFI1DEgYL9hHQ,,,,,,,,,,,
,,,,,,,,,,,,,,p,1,0.848,space,0.552,0,39,39,49,1,3_dist_green/trial25.png,,,1,3,greenverival,p,59,52,female,2021-02-22_15h22.11.487,exp11,2020.2.6,Win32,60,IwAR0V_vrpRGxMeSnFFgdNgc3tRRN1v4D-QWrpjllhsVkaG5aFI1DEgYL9hHQ,,,,,,,,,,,
,,,,,,,,,,,,,,a,1,1.027,space,0.533,0,40,40,133,1,0_targ_4_dist_green/trial9.png,,,0,4,greenverival,a,59,52,female,2021-02-22_15h22.11.487,exp11,2020.2.6,Win32,60,IwAR0V_vrpRGxMeSnFFgdNgc3tRRN1v4D-QWrpjllhsVkaG5aFI1DEgYL9hHQ,,,,,,,,,,,
,,,,,,,,,,,,,,a,1,1.002,space,0.553,0,41,41,105,1,0_targ_1_dist_green/trial6.png,,,0,1,greenverival,a,59,52,female,2021-02-22_15h22.11.487,exp11,2020.2.6,Win32,60,IwAR0V_vrpRGxMeSnFFgdNgc3tRRN1v4D-QWrpjllhsVkaG5aFI1DEgYL9hHQ,,,,,,,,,,,
,,,,,,,,,,,,,,a,1,1.103,space,0.633,0,42,42,155,1,0_targ_10_dist_green/trial6.png,,,0,10,greenverival,a,59,52,female,2021-02-22_15h22.11.487,exp11,2020.2.6,Win32,60,IwAR0V_vrpRGxMeSnFFgdNgc3tRRN1v4D-QWrpjllhsVkaG5aFI1DEgYL9hHQ,,,,,,,,,,,
,,,,,,,,,,,,,,p,1,0.999,space,0.58,0,43,43,46,1,3_dist_green/trial22.png,,,1,3,greenverival,p,59,52,female,2021-02-22_15h22.11.487,exp11,2020.2.6,Win32,60,IwAR0V_vrpRGxMeSnFFgdNgc3tRRN1v4D-QWrpjllhsVkaG5aFI1DEgYL9hHQ,,,,,,,,,,,
,,,,,,,,,,,,,,a,1,1.196,space,0.736,0,44,44,128,1,0_targ_4_dist_green/trial4.png,,,0,4,greenverival,a,59,52,female,2021-02-22_15h22.11.487,exp11,2020.2.6,Win32,60,IwAR0V_vrpRGxMeSnFFgdNgc3tRRN1v4D-QWrpjllhsVkaG5aFI1DEgYL9hHQ,,,,,,,,,,,
,,,,,,,,,,,,,,p,1,1.156,space,0.718,0,45,45,33,1,3_dist_green/trial9.png,,,1,3,greenverival,p,59,52,female,2021-02-22_15h22.11.487,exp11,2020.2.6,Win32,60,IwAR0V_vrpRGxMeSnFFgdNgc3tRRN1v4D-QWrpjllhsVkaG5aFI1DEgYL9hHQ,,,,,,,,,,,
,,,,,,,,,,,,,,p,1,0.88,space,0.469,0,46,46,27,1,3_dist_green/trial3.png,,,1,3,greenverival,p,59,52,female,2021-02-22_15h22.11.487,exp11,2020.2.6,Win32,60,IwAR0V_vrpRGxMeSnFFgdNgc3tRRN1v4D-QWrpjllhsVkaG5aFI1DEgYL9hHQ,,,,,,,,,,,
,,,,,,,,,,,,,,a,0,1.228,space,0.772,0,47,47,62,1,9_dist_green/trial13.png,,,1,9,greenverival,p,59,52,female,2021-02-22_15h22.11.487,exp11,2020.2.6,Win32,60,IwAR0V_vrpRGxMeSnFFgdNgc3tRRN1v4D-QWrpjllhsVkaG5aFI1DEgYL9hHQ,,,,,,,,,,,
,,,,,,,,,,,,,,p,1,2.355,space,0.627,0,48,48,65,1,9_dist_green/trial16.png,,,1,9,greenverival,p,59,52,female,2021-02-22_15h22.11.487,exp11,2020.2.6,Win32,60,IwAR0V_vrpRGxMeSnFFgdNgc3tRRN1v4D-QWrpjllhsVkaG5aFI1DEgYL9hHQ,,,,,,,,,,,
,,,,,,,,,,,,,,p,1,1.247,space,0.506,0,49,49,36,1,3_dist_green/trial12.png,,,1,3,greenverival,p,59,52,female,2021-02-22_15h22.11.487,exp11,2020.2.6,Win32,60,IwAR0V_vrpRGxMeSnFFgdNgc3tRRN1v4D-QWrpjllhsVkaG5aFI1DEgYL9hHQ,,,,,,,,,,,
,,,,,,,,,,,,,,p,1,1.186,space,0.553,0,50,50,85,1,15_dist_green/trial11.png,,,1,15,greenverival,p,59,52,female,2021-02-22_15h22.11.487,exp11,2020.2.6,Win32,60,IwAR0V_vrpRGxMeSnFFgdNgc3tRRN1v4D-QWrpjllhsVkaG5aFI1DEgYL9hHQ,,,,,,,,,,,
,,,,,,,,,,,,,,a,1,2.011,space,0.987,0,51,51,124,1,0_targ_1_dist_green/trial25.png,,,0,1,greenverival,a,59,52,female,2021-02-22_15h22.11.487,exp11,2020.2.6,Win32,60,IwAR0V_vrpRGxMeSnFFgdNgc3tRRN1v4D-QWrpjllhsVkaG5aFI1DEgYL9hHQ,,,,,,,,,,,
,,,,,,,,,,,,,,p,1,1.266,space,1.02,0,52,52,78,1,15_dist_green/trial4.png,,,1,15,greenverival,p,59,52,female,2021-02-22_15h22.11.487,exp11,2020.2.6,Win32,60,IwAR0V_vrpRGxMeSnFFgdNgc3tRRN1v4D-QWrpjllhsVkaG5aFI1DEgYL9hHQ,,,,,,,,,,,
,,,,,,,,,,,,,,p,1,0.668,space,0.536,0,53,53,13,1,0_dist_green/trial14.png,,,1,0,greenverival,p,59,52,female,2021-02-22_15h22.11.487,exp11,2020.2.6,Win32,60,IwAR0V_vrpRGxMeSnFFgdNgc3tRRN1v4D-QWrpjllhsVkaG5aFI1DEgYL9hHQ,,,,,,,,,,,
,,,,,,,,,,,,,,p,1,0.626,space,0.434,0,54,54,11,1,0_dist_green/trial12.png,,,1,0,greenverival,p,59,52,female,2021-02-22_15h22.11.487,exp11,2020.2.6,Win32,60,IwAR0V_vrpRGxMeSnFFgdNgc3tRRN1v4D-QWrpjllhsVkaG5aFI1DEgYL9hHQ,,,,,,,,,,,
,,,,,,,,,,,,,,p,1,7.199,space,1.336,0,55,55,91,1,15_dist_green/trial17.png,,,1,15,greenverival,p,59,52,female,2021-02-22_15h22.11.487,exp11,2020.2.6,Win32,60,IwAR0V_vrpRGxMeSnFFgdNgc3tRRN1v4D-QWrpjllhsVkaG5aFI1DEgYL9hHQ,,,,,,,,,,,
,,,,,,,,,,,,,,a,1,10.109,space,1.45,0,56,56,101,1,0_targ_1_dist_green/trial2.png,,,0,1,greenverival,a,59,52,female,2021-02-22_15h22.11.487,exp11,2020.2.6,Win32,60,IwAR0V_vrpRGxMeSnFFgdNgc3tRRN1v4D-QWrpjllhsVkaG5aFI1DEgYL9hHQ,,,,,,,,,,,
,,,,,,,,,,,,,,a,1,2.975,space,1.301,0,57,57,189,1,0_targ_16_dist_green/trial15.png,,,0,16,greenverival,a,59,52,female,2021-02-22_15h22.11.487,exp11,2020.2.6,Win32,60,IwAR0V_vrpRGxMeSnFFgdNgc3tRRN1v4D-QWrpjllhsVkaG5aFI1DEgYL9hHQ,,,,,,,,,,,
,,,,,,,,,,,,,,a,1,1.23,space,1.037,0,58,58,146,1,0_targ_4_dist_green/trial22.png,,,0,4,greenverival,a,59,52,female,2021-02-22_15h22.11.487,exp11,2020.2.6,Win32,60,IwAR0V_vrpRGxMeSnFFgdNgc3tRRN1v4D-QWrpjllhsVkaG5aFI1DEgYL9hHQ,,,,,,,,,,,
,,,,,,,,,,,,,,a,1,1.023,space,1.205,0,59,59,110,1,0_targ_1_dist_green/trial11.png,,,0,1,greenverival,a,59,52,female,2021-02-22_15h22.11.487,exp11,2020.2.6,Win32,60,IwAR0V_vrpRGxMeSnFFgdNgc3tRRN1v4D-QWrpjllhsVkaG5aFI1DEgYL9hHQ,,,,,,,,,,,
,,,,,,,,,,,,,,a,1,2.62,space,1.319,0,60,60,177,1,0_targ_16_dist_green/trial3.png,,,0,16,greenverival,a,59,52,female,2021-02-22_15h22.11.487,exp11,2020.2.6,Win32,60,IwAR0V_vrpRGxMeSnFFgdNgc3tRRN1v4D-QWrpjllhsVkaG5aFI1DEgYL9hHQ,,,,,,,,,,,
,,,,,,,,,,,,,,a,1,5.922,space,66.574,0,61,61,112,1,0_targ_1_dist_green/trial13.png,,,0,1,greenverival,a,59,52,female,2021-02-22_15h22.11.487,exp11,2020.2.6,Win32,60,IwAR0V_vrpRGxMeSnFFgdNgc3tRRN1v4D-QWrpjllhsVkaG5aFI1DEgYL9hHQ,,,,,,,,,,,
,,,,,,,,,,,,,,a,1,2.332,space,0.901,0,62,62,106,1,0_targ_1_dist_green/trial7.png,,,0,1,greenverival,a,59,52,female,2021-02-22_15h22.11.487,exp11,2020.2.6,Win32,60,IwAR0V_vrpRGxMeSnFFgdNgc3tRRN1v4D-QWrpjllhsVkaG5aFI1DEgYL9hHQ,,,,,,,,,,,
,,,,,,,,,,,,,,a,1,0.531,space,0.37,0,63,63,108,1,0_targ_1_dist_green/trial9.png,,,0,1,greenverival,a,59,52,female,2021-02-22_15h22.11.487,exp11,2020.2.6,Win32,60,IwAR0V_vrpRGxMeSnFFgdNgc3tRRN1v4D-QWrpjllhsVkaG5aFI1DEgYL9hHQ,,,,,,,,,,,
,,,,,,,,,,,,,,p,1,1.534,space,0.534,0,64,64,88,1,15_dist_green/trial14.png,,,1,15,greenverival,p,59,52,female,2021-02-22_15h22.11.487,exp11,2020.2.6,Win32,60,IwAR0V_vrpRGxMeSnFFgdNgc3tRRN1v4D-QWrpjllhsVkaG5aFI1DEgYL9hHQ,,,,,,,,,,,
,,,,,,,,,,,,,,a,1,1.478,space,0.838,0,65,65,161,1,0_targ_10_dist_green/trial12.png,,,0,10,greenverival,a,59,52,female,2021-02-22_15h22.11.487,exp11,2020.2.6,Win32,60,IwAR0V_vrpRGxMeSnFFgdNgc3tRRN1v4D-QWrpjllhsVkaG5aFI1DEgYL9hHQ,,,,,,,,,,,
,,,,,,,,,,,,,,a,1,1.209,space,0.535,0,66,66,160,1,0_targ_10_dist_green/trial11.png,,,0,10,greenverival,a,59,52,female,2021-02-22_15h22.11.487,exp11,2020.2.6,Win32,60,IwAR0V_vrpRGxMeSnFFgdNgc3tRRN1v4D-QWrpjllhsVkaG5aFI1DEgYL9hHQ,,,,,,,,,,,
,,,,,,,,,,,,,,p,1,1.143,space,0.322,0,67,67,67,1,9_dist_green/trial18.png,,,1,9,greenverival,p,59,52,female,2021-02-22_15h22.11.487,exp11,2020.2.6,Win32,60,IwAR0V_vrpRGxMeSnFFgdNgc3tRRN1v4D-QWrpjllhsVkaG5aFI1DEgYL9hHQ,,,,,,,,,,,
,,,,,,,,,,,,,,p,1,0.91,space,0.302,0,68,68,40,1,3_dist_green/trial16.png,,,1,3,greenverival,p,59,52,female,2021-02-22_15h22.11.487,exp11,2020.2.6,Win32,60,IwAR0V_vrpRGxMeSnFFgdNgc3tRRN1v4D-QWrpjllhsVkaG5aFI1DEgYL9hHQ,,,,,,,,,,,
,,,,,,,,,,,,,,p,1,0.934,space,0.302,0,69,69,84,1,15_dist_green/trial10.png,,,1,15,greenverival,p,59,52,female,2021-02-22_15h22.11.487,exp11,2020.2.6,Win32,60,IwAR0V_vrpRGxMeSnFFgdNgc3tRRN1v4D-QWrpjllhsVkaG5aFI1DEgYL9hHQ,,,,,,,,,,,
,,,,,,,,,,,,,,p,1,0.747,space,0.218,0,70,70,45,1,3_dist_green/trial21.png,,,1,3,greenverival,p,59,52,female,2021-02-22_15h22.11.487,exp11,2020.2.6,Win32,60,IwAR0V_vrpRGxMeSnFFgdNgc3tRRN1v4D-QWrpjllhsVkaG5aFI1DEgYL9hHQ,,,,,,,,,,,
,,,,,,,,,,,,,,a,1,1.615,space,0.551,0,71,71,116,1,0_targ_1_dist_green/trial17.png,,,0,1,greenverival,a,59,52,female,2021-02-22_15h22.11.487,exp11,2020.2.6,Win32,60,IwAR0V_vrpRGxMeSnFFgdNgc3tRRN1v4D-QWrpjllhsVkaG5aFI1DEgYL9hHQ,,,,,,,,,,,
,,,,,,,,,,,,,,a,1,1.172,space,0.437,0,72,72,137,1,0_targ_4_dist_green/trial13.png,,,0,4,greenverival,a,59,52,female,2021-02-22_15h22.11.487,exp11,2020.2.6,Win32,60,IwAR0V_vrpRGxMeSnFFgdNgc3tRRN1v4D-QWrpjllhsVkaG5aFI1DEgYL9hHQ,,,,,,,,,,,
,,,,,,,,,,,,,,p,1,1.191,space,0.237,0,73,73,48,1,3_dist_green/trial24.png,,,1,3,greenverival,p,59,52,female,2021-02-22_15h22.11.487,exp11,2020.2.6,Win32,60,IwAR0V_vrpRGxMeSnFFgdNgc3tRRN1v4D-QWrpjllhsVkaG5aFI1DEgYL9hHQ,,,,,,,,,,,
,,,,,,,,,,,,,,a,1,1.529,space,0.885,0,74,74,122,1,0_targ_1_dist_green/trial23.png,,,0,1,greenverival,a,59,52,female,2021-02-22_15h22.11.487,exp11,2020.2.6,Win32,60,IwAR0V_vrpRGxMeSnFFgdNgc3tRRN1v4D-QWrpjllhsVkaG5aFI1DEgYL9hHQ,,,,,,,,,,,
,,,,,,,,,,,,,,p,1,1.121,space,0.386,0,75,75,99,1,15_dist_green/trial25.png,,,1,15,greenverival,p,59,52,female,2021-02-22_15h22.11.487,exp11,2020.2.6,Win32,60,IwAR0V_vrpRGxMeSnFFgdNgc3tRRN1v4D-QWrpjllhsVkaG5aFI1DEgYL9hHQ,,,,,,,,,,,
,,,,,,,,,,,,,,a,1,1.056,space,0.553,0,76,76,111,1,0_targ_1_dist_green/trial12.png,,,0,1,greenverival,a,59,52,female,2021-02-22_15h22.11.487,exp11,2020.2.6,Win32,60,IwAR0V_vrpRGxMeSnFFgdNgc3tRRN1v4D-QWrpjllhsVkaG5aFI1DEgYL9hHQ,,,,,,,,,,,
,,,,,,,,,,,,,,a,1,1.482,space,0.536,0,77,77,185,1,0_targ_16_dist_green/trial11.png,,,0,16,greenverival,a,59,52,female,2021-02-22_15h22.11.487,exp11,2020.2.6,Win32,60,IwAR0V_vrpRGxMeSnFFgdNgc3tRRN1v4D-QWrpjllhsVkaG5aFI1DEgYL9hHQ,,,,,,,,,,,
,,,,,,,,,,,,,,a,1,1.312,space,0.519,0,78,78,169,1,0_targ_10_dist_green/trial20.png,,,0,10,greenverival,a,59,52,female,2021-02-22_15h22.11.487,exp11,2020.2.6,Win32,60,IwAR0V_vrpRGxMeSnFFgdNgc3tRRN1v4D-QWrpjllhsVkaG5aFI1DEgYL9hHQ,,,,,,,,,,,
,,,,,,,,,,,,,,a,1,0.806,space,0.517,0,79,79,104,1,0_targ_1_dist_green/trial5.png,,,0,1,greenverival,a,59,52,female,2021-02-22_15h22.11.487,exp11,2020.2.6,Win32,60,IwAR0V_vrpRGxMeSnFFgdNgc3tRRN1v4D-QWrpjllhsVkaG5aFI1DEgYL9hHQ,,,,,,,,,,,
,,,,,,,,,,,,,,a,1,1.124,space,0.534,0,80,80,186,1,0_targ_16_dist_green/trial12.png,,,0,16,greenverival,a,59,52,female,2021-02-22_15h22.11.487,exp11,2020.2.6,Win32,60,IwAR0V_vrpRGxMeSnFFgdNgc3tRRN1v4D-QWrpjllhsVkaG5aFI1DEgYL9hHQ,,,,,,,,,,,
,,,,,,,,,,,,,,a,1,1.067,space,0.452,0,81,81,154,1,0_targ_10_dist_green/trial5.png,,,0,10,greenverival,a,59,52,female,2021-02-22_15h22.11.487,exp11,2020.2.6,Win32,60,IwAR0V_vrpRGxMeSnFFgdNgc3tRRN1v4D-QWrpjllhsVkaG5aFI1DEgYL9hHQ,,,,,,,,,,,
,,,,,,,,,,,,,,a,1,0.877,space,0.469,0,82,82,115,1,0_targ_1_dist_green/trial6.png,,,0,1,greenverival,a,59,52,female,2021-02-22_15h22.11.487,exp11,2020.2.6,Win32,60,IwAR0V_vrpRGxMeSnFFgdNgc3tRRN1v4D-QWrpjllhsVkaG5aFI1DEgYL9hHQ,,,,,,,,,,,
,,,,,,,,,,,,,,a,1,1.011,space,0.426,0,83,83,149,1,0_targ_4_dist_green/trial25.png,,,0,4,greenverival,a,59,52,female,2021-02-22_15h22.11.487,exp11,2020.2.6,Win32,60,IwAR0V_vrpRGxMeSnFFgdNgc3tRRN1v4D-QWrpjllhsVkaG5aFI1DEgYL9hHQ,,,,,,,,,,,
,,,,,,,,,,,,,,p,1,1.433,space,0.288,0,84,84,35,1,3_dist_green/trial11.png,,,1,3,greenverival,p,59,52,female,2021-02-22_15h22.11.487,exp11,2020.2.6,Win32,60,IwAR0V_vrpRGxMeSnFFgdNgc3tRRN1v4D-QWrpjllhsVkaG5aFI1DEgYL9hHQ,,,,,,,,,,,
,,,,,,,,,,,,,,p,1,1.139,space,0.408,0,85,85,90,1,15_dist_green/trial16.png,,,1,15,greenverival,p,59,52,female,2021-02-22_15h22.11.487,exp11,2020.2.6,Win32,60,IwAR0V_vrpRGxMeSnFFgdNgc3tRRN1v4D-QWrpjllhsVkaG5aFI1DEgYL9hHQ,,,,,,,,,,,
,,,,,,,,,,,,,,p,1,1.049,space,0.199,0,86,86,37,1,3_dist_green/trial13.png,,,1,3,greenverival,p,59,52,female,2021-02-22_15h22.11.487,exp11,2020.2.6,Win32,60,IwAR0V_vrpRGxMeSnFFgdNgc3tRRN1v4D-QWrpjllhsVkaG5aFI1DEgYL9hHQ,,,,,,,,,,,
,,,,,,,,,,,,,,a,1,2.3,space,0.471,0,87,87,182,1,0_targ_16_dist_green/trial8.png,,,0,16,greenverival,a,59,52,female,2021-02-22_15h22.11.487,exp11,2020.2.6,Win32,60,IwAR0V_vrpRGxMeSnFFgdNgc3tRRN1v4D-QWrpjllhsVkaG5aFI1DEgYL9hHQ,,,,,,,,,,,
,,,,,,,,,,,,,,a,1,1.037,space,0.438,0,88,88,181,1,0_targ_16_dist_green/trial7.png,,,0,16,greenverival,a,59,52,female,2021-02-22_15h22.11.487,exp11,2020.2.6,Win32,60,IwAR0V_vrpRGxMeSnFFgdNgc3tRRN1v4D-QWrpjllhsVkaG5aFI1DEgYL9hHQ,,,,,,,,,,,
,,,,,,,,,,,,,,p,1,0.994,space,0.19,0,89,89,69,1,9_dist_green/trial20.png,,,1,9,greenverival,p,59,52,female,2021-02-22_15h22.11.487,exp11,2020.2.6,Win32,60,IwAR0V_vrpRGxMeSnFFgdNgc3tRRN1v4D-QWrpjllhsVkaG5aFI1DEgYL9hHQ,,,,,,,,,,,
,,,,,,,,,,,,,,p,1,0.772,space,0.169,0,90,90,92,1,15_dist_green/trial18.png,,,1,15,greenverival,p,59,52,female,2021-02-22_15h22.11.487,exp11,2020.2.6,Win32,60,IwAR0V_vrpRGxMeSnFFgdNgc3tRRN1v4D-QWrpjllhsVkaG5aFI1DEgYL9hHQ,,,,,,,,,,,
,,,,,,,,,,,,,,p,1,1.085,space,0.151,0,91,91,64,1,9_dist_green/trial15.png,,,1,9,greenverival,p,59,52,female,2021-02-22_15h22.11.487,exp11,2020.2.6,Win32,60,IwAR0V_vrpRGxMeSnFFgdNgc3tRRN1v4D-QWrpjllhsVkaG5aFI1DEgYL9hHQ,,,,,,,,,,,
,,,,,,,,,,,,,,a,1,1.166,space,0.42,0,92,92,134,1,0_targ_4_dist_green/trial10.png,,,0,4,greenverival,a,59,52,female,2021-02-22_15h22.11.487,exp11,2020.2.6,Win32,60,IwAR0V_vrpRGxMeSnFFgdNgc3tRRN1v4D-QWrpjllhsVkaG5aFI1DEgYL9hHQ,,,,,,,,,,,
,,,,,,,,,,,,,,a,1,1.347,space,0.536,0,93,93,170,1,0_targ_10_dist_green/trial21.png,,,0,10,greenverival,a,59,52,female,2021-02-22_15h22.11.487,exp11,2020.2.6,Win32,60,IwAR0V_vrpRGxMeSnFFgdNgc3tRRN1v4D-QWrpjllhsVkaG5aFI1DEgYL9hHQ,,,,,,,,,,,
,,,,,,,,,,,,,,p,1,1.132,space,0.389,0,94,94,72,1,9_dist_green/trial23.png,,,1,9,greenverival,p,59,52,female,2021-02-22_15h22.11.487,exp11,2020.2.6,Win32,60,IwAR0V_vrpRGxMeSnFFgdNgc3tRRN1v4D-QWrpjllhsVkaG5aFI1DEgYL9hHQ,,,,,,,,,,,
,,,,,,,,,,,,,,a,1,1.117,space,0.402,0,95,95,151,1,0_targ_10_dist_green/trial2.png,,,0,10,greenverival,a,59,52,female,2021-02-22_15h22.11.487,exp11,2020.2.6,Win32,60,IwAR0V_vrpRGxMeSnFFgdNgc3tRRN1v4D-QWrpjllhsVkaG5aFI1DEgYL9hHQ,,,,,,,,,,,
,,,,,,,,,,,,,,p,1,1.132,space,0.386,0,96,96,89,1,15_dist_green/trial15.png,,,1,15,greenverival,p,59,52,female,2021-02-22_15h22.11.487,exp11,2020.2.6,Win32,60,IwAR0V_vrpRGxMeSnFFgdNgc3tRRN1v4D-QWrpjllhsVkaG5aFI1DEgYL9hHQ,,,,,,,,,,,
,,,,,,,,,,,,,,p,1,1.128,space,0.369,0,97,97,31,1,3_dist_green/trial7.png,,,1,3,greenverival,p,59,52,female,2021-02-22_15h22.11.487,exp11,2020.2.6,Win32,60,IwAR0V_vrpRGxMeSnFFgdNgc3tRRN1v4D-QWrpjllhsVkaG5aFI1DEgYL9hHQ,,,,,,,,,,,
,,,,,,,,,,,,,,a,1,0.982,space,0.405,0,98,98,102,1,0_targ_1_dist_green/trial3.png,,,0,1,greenverival,a,59,52,female,2021-02-22_15h22.11.487,exp11,2020.2.6,Win32,60,IwAR0V_vrpRGxMeSnFFgdNgc3tRRN1v4D-QWrpjllhsVkaG5aFI1DEgYL9hHQ,,,,,,,,,,,
,,,,,,,,,,,,,,p,1,1.457,space,0.468,0,99,99,50,1,9_dist_green/trial1.png,,,1,9,greenverival,p,59,52,female,2021-02-22_15h22.11.487,exp11,2020.2.6,Win32,60,IwAR0V_vrpRGxMeSnFFgdNgc3tRRN1v4D-QWrpjllhsVkaG5aFI1DEgYL9hHQ,,,,,,,,,,,
,,,,,,,,,,,,,,a,0,1.583,space,1.418,0,100,100,87,1,15_dist_green/trial13.png,,,1,15,greenverival,p,59,52,female,2021-02-22_15h22.11.487,exp11,2020.2.6,Win32,60,IwAR0V_vrpRGxMeSnFFgdNgc3tRRN1v4D-QWrpjllhsVkaG5aFI1DEgYL9hHQ,,,,,,,,,,,
,,,,,,,,,,,,,,p,1,1.983,space,0.268,0,101,101,97,1,15_dist_green/trial23.png,,,1,15,greenverival,p,59,52,female,2021-02-22_15h22.11.487,exp11,2020.2.6,Win32,60,IwAR0V_vrpRGxMeSnFFgdNgc3tRRN1v4D-QWrpjllhsVkaG5aFI1DEgYL9hHQ,,,,,,,,,,,
,,,,,,,,,,,,,,p,1,3.379,space,0.354,0,102,102,61,1,9_dist_green/trial12.png,,,1,9,greenverival,p,59,52,female,2021-02-22_15h22.11.487,exp11,2020.2.6,Win32,60,IwAR0V_vrpRGxMeSnFFgdNgc3tRRN1v4D-QWrpjllhsVkaG5aFI1DEgYL9hHQ,,,,,,,,,,,
,,,,,,,,,,,,,,a,1,1.932,space,1.002,0,103,103,153,1,0_targ_10_dist_green/trial4.png,,,0,10,greenverival,a,59,52,female,2021-02-22_15h22.11.487,exp11,2020.2.6,Win32,60,IwAR0V_vrpRGxMeSnFFgdNgc3tRRN1v4D-QWrpjllhsVkaG5aFI1DEgYL9hHQ,,,,,,,,,,,
,,,,,,,,,,,,,,a,1,1.572,space,0.501,0,104,104,157,1,0_targ_10_dist_green/trial8.png,,,0,10,greenverival,a,59,52,female,2021-02-22_15h22.11.487,exp11,2020.2.6,Win32,60,IwAR0V_vrpRGxMeSnFFgdNgc3tRRN1v4D-QWrpjllhsVkaG5aFI1DEgYL9hHQ,,,,,,,,,,,
,,,,,,,,,,,,,,a,1,0.966,space,0.442,0,105,105,131,1,0_targ_4_dist_green/trial7.png,,,0,4,greenverival,a,59,52,female,2021-02-22_15h22.11.487,exp11,2020.2.6,Win32,60,IwAR0V_vrpRGxMeSnFFgdNgc3tRRN1v4D-QWrpjllhsVkaG5aFI1DEgYL9hHQ,,,,,,,,,,,
,,,,,,,,,,,,,,p,1,0.8,space,0.504,0,106,106,15,1,0_dist_green/trial16.png,,,1,0,greenverival,p,59,52,female,2021-02-22_15h22.11.487,exp11,2020.2.6,Win32,60,IwAR0V_vrpRGxMeSnFFgdNgc3tRRN1v4D-QWrpjllhsVkaG5aFI1DEgYL9hHQ,,,,,,,,,,,
,,,,,,,,,,,,,,p,1,1.04,space,0.534,0,107,107,95,1,15_dist_green/trial21.png,,,1,15,greenverival,p,59,52,female,2021-02-22_15h22.11.487,exp11,2020.2.6,Win32,60,IwAR0V_vrpRGxMeSnFFgdNgc3tRRN1v4D-QWrpjllhsVkaG5aFI1DEgYL9hHQ,,,,,,,,,,,
,,,,,,,,,,,,,,p,1,0.784,space,0.267,0,108,108,74,1,9_dist_green/trial25.png,,,1,9,greenverival,p,59,52,female,2021-02-22_15h22.11.487,exp11,2020.2.6,Win32,60,IwAR0V_vrpRGxMeSnFFgdNgc3tRRN1v4D-QWrpjllhsVkaG5aFI1DEgYL9hHQ,,,,,,,,,,,
,,,,,,,,,,,,,,p,1,0.699,space,0.251,0,109,109,6,1,0_dist_green/trial7.png,,,1,0,greenverival,p,59,52,female,2021-02-22_15h22.11.487,exp11,2020.2.6,Win32,60,IwAR0V_vrpRGxMeSnFFgdNgc3tRRN1v4D-QWrpjllhsVkaG5aFI1DEgYL9hHQ,,,,,,,,,,,
,,,,,,,,,,,,,,a,1,1.635,space,0.535,0,110,110,191,1,0_targ_16_dist_green/trial17.png,,,0,16,greenverival,a,59,52,female,2021-02-22_15h22.11.487,exp11,2020.2.6,Win32,60,IwAR0V_vrpRGxMeSnFFgdNgc3tRRN1v4D-QWrpjllhsVkaG5aFI1DEgYL9hHQ,,,,,,,,,,,
,,,,,,,,,,,,,,p,1,0.72,space,0.319,0,111,111,66,1,9_dist_green/trial17.png,,,1,9,greenverival,p,59,52,female,2021-02-22_15h22.11.487,exp11,2020.2.6,Win32,60,IwAR0V_vrpRGxMeSnFFgdNgc3tRRN1v4D-QWrpjllhsVkaG5aFI1DEgYL9hHQ,,,,,,,,,,,
,,,,,,,,,,,,,,p,1,0.861,space,0.302,0,112,112,57,1,9_dist_green/trial8.png,,,1,9,greenverival,p,59,52,female,2021-02-22_15h22.11.487,exp11,2020.2.6,Win32,60,IwAR0V_vrpRGxMeSnFFgdNgc3tRRN1v4D-QWrpjllhsVkaG5aFI1DEgYL9hHQ,,,,,,,,,,,
,,,,,,,,,,,,,,p,1,0.603,space,0.235,0,113,113,63,1,9_dist_green/trial14.png,,,1,9,greenverival,p,59,52,female,2021-02-22_15h22.11.487,exp11,2020.2.6,Win32,60,IwAR0V_vrpRGxMeSnFFgdNgc3tRRN1v4D-QWrpjllhsVkaG5aFI1DEgYL9hHQ,,,,,,,,,,,
,,,,,,,,,,,,,,p,1,0.665,space,0.253,0,114,114,42,1,3_dist_green/trial18.png,,,1,3,greenverival,p,59,52,female,2021-02-22_15h22.11.487,exp11,2020.2.6,Win32,60,IwAR0V_vrpRGxMeSnFFgdNgc3tRRN1v4D-QWrpjllhsVkaG5aFI1DEgYL9hHQ,,,,,,,,,,,
,,,,,,,,,,,,,,a,1,1.155,space,0.323,0,115,115,136,1,0_targ_4_dist_green/trial12.png,,,0,4,greenverival,a,59,52,female,2021-02-22_15h22.11.487,exp11,2020.2.6,Win32,60,IwAR0V_vrpRGxMeSnFFgdNgc3tRRN1v4D-QWrpjllhsVkaG5aFI1DEgYL9hHQ,,,,,,,,,,,
,,,,,,,,,,,,,,a,1,1.74,space,0.384,0,116,116,123,1,0_targ_1_dist_green/trial24.png,,,0,1,greenverival,a,59,52,female,2021-02-22_15h22.11.487,exp11,2020.2.6,Win32,60,IwAR0V_vrpRGxMeSnFFgdNgc3tRRN1v4D-QWrpjllhsVkaG5aFI1DEgYL9hHQ,,,,,,,,,,,
,,,,,,,,,,,,,,a,1,1.269,space,0.454,0,117,117,103,1,0_targ_1_dist_green/trial4.png,,,0,1,greenverival,a,59,52,female,2021-02-22_15h22.11.487,exp11,2020.2.6,Win32,60,IwAR0V_vrpRGxMeSnFFgdNgc3tRRN1v4D-QWrpjllhsVkaG5aFI1DEgYL9hHQ,,,,,,,,,,,
,,,,,,,,,,,,,,a,1,1.753,space,0.385,0,118,118,142,1,0_targ_4_dist_green/trial18.png,,,0,4,greenverival,a,59,52,female,2021-02-22_15h22.11.487,exp11,2020.2.6,Win32,60,IwAR0V_vrpRGxMeSnFFgdNgc3tRRN1v4D-QWrpjllhsVkaG5aFI1DEgYL9hHQ,,,,,,,,,,,
,,,,,,,,,,,,,,p,1,1.233,space,0.218,0,119,119,94,1,15_dist_green/trial20.png,,,1,15,greenverival,p,59,52,female,2021-02-22_15h22.11.487,exp11,2020.2.6,Win32,60,IwAR0V_vrpRGxMeSnFFgdNgc3tRRN1v4D-QWrpjllhsVkaG5aFI1DEgYL9hHQ,,,,,,,,,,,
,,,,,,,,,,,,,,a,1,1.345,space,0.354,0,120,120,192,1,0_targ_16_dist_green/trial18.png,,,0,16,greenverival,a,59,52,female,2021-02-22_15h22.11.487,exp11,2020.2.6,Win32,60,IwAR0V_vrpRGxMeSnFFgdNgc3tRRN1v4D-QWrpjllhsVkaG5aFI1DEgYL9hHQ,,,,,,,,,,,
,,,,,,,,,,,,,,a,1,1.554,space,0.436,0,121,121,159,1,0_targ_10_dist_green/trial10.png,,,0,10,greenverival,a,59,52,female,2021-02-22_15h22.11.487,exp11,2020.2.6,Win32,60,IwAR0V_vrpRGxMeSnFFgdNgc3tRRN1v4D-QWrpjllhsVkaG5aFI1DEgYL9hHQ,,,,,,,,,,,
,,,,,,,,,,,,,,a,1,0.927,space,0.404,0,122,122,125,1,0_targ_4_dist_green/trial1.png,,,0,4,greenverival,a,59,52,female,2021-02-22_15h22.11.487,exp11,2020.2.6,Win32,60,IwAR0V_vrpRGxMeSnFFgdNgc3tRRN1v4D-QWrpjllhsVkaG5aFI1DEgYL9hHQ,,,,,,,,,,,
,,,,,,,,,,,,,,a,1,1.125,space,0.437,0,123,123,184,1,0_targ_16_dist_green/trial10.png,,,0,16,greenverival,a,59,52,female,2021-02-22_15h22.11.487,exp11,2020.2.6,Win32,60,IwAR0V_vrpRGxMeSnFFgdNgc3tRRN1v4D-QWrpjllhsVkaG5aFI1DEgYL9hHQ,,,,,,,,,,,
,,,,,,,,,,,,,,p,1,1.053,space,0.235,0,124,124,14,1,0_dist_green/trial15.png,,,1,0,greenverival,p,59,52,female,2021-02-22_15h22.11.487,exp11,2020.2.6,Win32,60,IwAR0V_vrpRGxMeSnFFgdNgc3tRRN1v4D-QWrpjllhsVkaG5aFI1DEgYL9hHQ,,,,,,,,,,,
,,,,,,,,,,,,,,a,1,1.508,space,0.387,0,125,125,180,1,0_targ_16_dist_green/trial6.png,,,0,16,greenverival,a,59,52,female,2021-02-22_15h22.11.487,exp11,2020.2.6,Win32,60,IwAR0V_vrpRGxMeSnFFgdNgc3tRRN1v4D-QWrpjllhsVkaG5aFI1DEgYL9hHQ,,,,,,,,,,,
,,,,,,,,,,,,,,a,1,1.204,space,0.385,0,126,126,162,1,0_targ_10_dist_green/trial13.png,,,0,10,greenverival,a,59,52,female,2021-02-22_15h22.11.487,exp11,2020.2.6,Win32,60,IwAR0V_vrpRGxMeSnFFgdNgc3tRRN1v4D-QWrpjllhsVkaG5aFI1DEgYL9hHQ,,,,,,,,,,,
,,,,,,,,,,,,,,p,1,1.121,space,0.336,0,127,127,83,1,15_dist_green/trial9.png,,,1,15,greenverival,p,59,52,female,2021-02-22_15h22.11.487,exp11,2020.2.6,Win32,60,IwAR0V_vrpRGxMeSnFFgdNgc3tRRN1v4D-QWrpjllhsVkaG5aFI1DEgYL9hHQ,,,,,,,,,,,
,,,,,,,,,,,,,,a,1,1.14,space,0.537,0,128,128,156,1,0_targ_10_dist_green/trial7.png,,,0,10,greenverival,a,59,52,female,2021-02-22_15h22.11.487,exp11,2020.2.6,Win32,60,IwAR0V_vrpRGxMeSnFFgdNgc3tRRN1v4D-QWrpjllhsVkaG5aFI1DEgYL9hHQ,,,,,,,,,,,
,,,,,,,,,,,,,,a,1,1.01,space,0.458,0,129,129,135,1,0_targ_4_dist_green/trial11.png,,,0,4,greenverival,a,59,52,female,2021-02-22_15h22.11.487,exp11,2020.2.6,Win32,60,IwAR0V_vrpRGxMeSnFFgdNgc3tRRN1v4D-QWrpjllhsVkaG5aFI1DEgYL9hHQ,,,,,,,,,,,
,,,,,,,,,,,,,,a,1,0.783,space,0.402,0,130,130,140,1,0_targ_4_dist_green/trial6.png,,,0,4,greenverival,a,59,52,female,2021-02-22_15h22.11.487,exp11,2020.2.6,Win32,60,IwAR0V_vrpRGxMeSnFFgdNgc3tRRN1v4D-QWrpjllhsVkaG5aFI1DEgYL9hHQ,,,,,,,,,,,
,,,,,,,,,,,,,,a,1,1.332,space,0.435,0,131,131,150,1,0_targ_10_dist_green/trial1.png,,,0,10,greenverival,a,59,52,female,2021-02-22_15h22.11.487,exp11,2020.2.6,Win32,60,IwAR0V_vrpRGxMeSnFFgdNgc3tRRN1v4D-QWrpjllhsVkaG5aFI1DEgYL9hHQ,,,,,,,,,,,
,,,,,,,,,,,,,,p,1,1.485,space,0.316,0,132,132,76,1,15_dist_green/trial2.png,,,1,15,greenverival,p,59,52,female,2021-02-22_15h22.11.487,exp11,2020.2.6,Win32,60,IwAR0V_vrpRGxMeSnFFgdNgc3tRRN1v4D-QWrpjllhsVkaG5aFI1DEgYL9hHQ,,,,,,,,,,,
,,,,,,,,,,,,,,a,1,1.013,space,0.368,0,133,133,138,1,0_targ_4_dist_green/trial14.png,,,0,4,greenverival,a,59,52,female,2021-02-22_15h22.11.487,exp11,2020.2.6,Win32,60,IwAR0V_vrpRGxMeSnFFgdNgc3tRRN1v4D-QWrpjllhsVkaG5aFI1DEgYL9hHQ,,,,,,,,,,,
,,,,,,,,,,,,,,a,1,1.207,space,0.358,0,134,134,158,1,0_targ_10_dist_green/trial9.png,,,0,10,greenverival,a,59,52,female,2021-02-22_15h22.11.487,exp11,2020.2.6,Win32,60,IwAR0V_vrpRGxMeSnFFgdNgc3tRRN1v4D-QWrpjllhsVkaG5aFI1DEgYL9hHQ,,,,,,,,,,,
,,,,,,,,,,,,,,p,1,1.163,space,0.168,0,135,135,29,1,3_dist_green/trial5.png,,,1,3,greenverival,p,59,52,female,2021-02-22_15h22.11.487,exp11,2020.2.6,Win32,60,IwAR0V_vrpRGxMeSnFFgdNgc3tRRN1v4D-QWrpjllhsVkaG5aFI1DEgYL9hHQ,,,,,,,,,,,
,,,,,,,,,,,,,,p,1,0.82,space,0.186,0,136,136,39,1,3_dist_green/trial15.png,,,1,3,greenverival,p,59,52,female,2021-02-22_15h22.11.487,exp11,2020.2.6,Win32,60,IwAR0V_vrpRGxMeSnFFgdNgc3tRRN1v4D-QWrpjllhsVkaG5aFI1DEgYL9hHQ,,,,,,,,,,,
,,,,,,,,,,,,,,p,1,1.078,space,0.172,0,137,137,0,1,0_dist_green/trial1.png,,,1,0,greenverival,p,59,52,female,2021-02-22_15h22.11.487,exp11,2020.2.6,Win32,60,IwAR0V_vrpRGxMeSnFFgdNgc3tRRN1v4D-QWrpjllhsVkaG5aFI1DEgYL9hHQ,,,,,,,,,,,
,,,,,,,,,,,,,,p,1,1.067,space,0.22,0,138,138,22,1,0_dist_green/trial23.png,,,1,0,greenverival,p,59,52,female,2021-02-22_15h22.11.487,exp11,2020.2.6,Win32,60,IwAR0V_vrpRGxMeSnFFgdNgc3tRRN1v4D-QWrpjllhsVkaG5aFI1DEgYL9hHQ,,,,,,,,,,,
,,,,,,,,,,,,,,p,1,2.43,space,0.29,0,139,139,51,1,9_dist_green/trial2.png,,,1,9,greenverival,p,59,52,female,2021-02-22_15h22.11.487,exp11,2020.2.6,Win32,60,IwAR0V_vrpRGxMeSnFFgdNgc3tRRN1v4D-QWrpjllhsVkaG5aFI1DEgYL9hHQ,,,,,,,,,,,
,,,,,,,,,,,,,,p,1,1.611,space,0.223,0,140,140,20,1,0_dist_green/trial21.png,,,1,0,greenverival,p,59,52,female,2021-02-22_15h22.11.487,exp11,2020.2.6,Win32,60,IwAR0V_vrpRGxMeSnFFgdNgc3tRRN1v4D-QWrpjllhsVkaG5aFI1DEgYL9hHQ,,,,,,,,,,,
,,,,,,,,,,,,,,a,1,1.713,space,0.358,0,141,141,183,1,0_targ_16_dist_green/trial9.png,,,0,16,greenverival,a,59,52,female,2021-02-22_15h22.11.487,exp11,2020.2.6,Win32,60,IwAR0V_vrpRGxMeSnFFgdNgc3tRRN1v4D-QWrpjllhsVkaG5aFI1DEgYL9hHQ,,,,,,,,,,,
,,,,,,,,,,,,,,p,1,1.069,space,0.207,0,142,142,98,1,15_dist_green/trial24.png,,,1,15,greenverival,p,59,52,female,2021-02-22_15h22.11.487,exp11,2020.2.6,Win32,60,IwAR0V_vrpRGxMeSnFFgdNgc3tRRN1v4D-QWrpjllhsVkaG5aFI1DEgYL9hHQ,,,,,,,,,,,
,,,,,,,,,,,,,,a,1,1.248,space,0.356,0,143,143,176,1,0_targ_16_dist_green/trial2.png,,,0,16,greenverival,a,59,52,female,2021-02-22_15h22.11.487,exp11,2020.2.6,Win32,60,IwAR0V_vrpRGxMeSnFFgdNgc3tRRN1v4D-QWrpjllhsVkaG5aFI1DEgYL9hHQ,,,,,,,,,,,
,,,,,,,,,,,,,,a,1,1.338,space,0.368,0,144,144,164,1,0_targ_10_dist_green/trial15.png,,,0,10,greenverival,a,59,52,female,2021-02-22_15h22.11.487,exp11,2020.2.6,Win32,60,IwAR0V_vrpRGxMeSnFFgdNgc3tRRN1v4D-QWrpjllhsVkaG5aFI1DEgYL9hHQ,,,,,,,,,,,
,,,,,,,,,,,,,,p,1,1.007,space,0.169,0,145,145,47,1,3_dist_green/trial23.png,,,1,3,greenverival,p,59,52,female,2021-02-22_15h22.11.487,exp11,2020.2.6,Win32,60,IwAR0V_vrpRGxMeSnFFgdNgc3tRRN1v4D-QWrpjllhsVkaG5aFI1DEgYL9hHQ,,,,,,,,,,,
,,,,,,,,,,,,,,p,1,1.237,space,0.154,0,146,146,71,1,9_dist_green/trial22.png,,,1,9,greenverival,p,59,52,female,2021-02-22_15h22.11.487,exp11,2020.2.6,Win32,60,IwAR0V_vrpRGxMeSnFFgdNgc3tRRN1v4D-QWrpjllhsVkaG5aFI1DEgYL9hHQ,,,,,,,,,,,
,,,,,,,,,,,,,,a,1,1.282,space,0.451,0,147,147,171,1,0_targ_10_dist_green/trial22.png,,,0,10,greenverival,a,59,52,female,2021-02-22_15h22.11.487,exp11,2020.2.6,Win32,60,IwAR0V_vrpRGxMeSnFFgdNgc3tRRN1v4D-QWrpjllhsVkaG5aFI1DEgYL9hHQ,,,,,,,,,,,
,,,,,,,,,,,,,,a,1,1.128,space,0.434,0,148,148,165,1,0_targ_10_dist_green/trial16.png,,,0,10,greenverival,a,59,52,female,2021-02-22_15h22.11.487,exp11,2020.2.6,Win32,60,IwAR0V_vrpRGxMeSnFFgdNgc3tRRN1v4D-QWrpjllhsVkaG5aFI1DEgYL9hHQ,,,,,,,,,,,
,,,,,,,,,,,,,,p,1,1.379,space,0.402,0,149,149,73,1,9_dist_green/trial24.png,,,1,9,greenverival,p,59,52,female,2021-02-22_15h22.11.487,exp11,2020.2.6,Win32,60,IwAR0V_vrpRGxMeSnFFgdNgc3tRRN1v4D-QWrpjllhsVkaG5aFI1DEgYL9hHQ,,,,,,,,,,,
,,,,,,,,,,,,,,a,1,1.019,space,0.417,0,150,150,148,1,0_targ_4_dist_green/trial24.png,,,0,4,greenverival,a,59,52,female,2021-02-22_15h22.11.487,exp11,2020.2.6,Win32,60,IwAR0V_vrpRGxMeSnFFgdNgc3tRRN1v4D-QWrpjllhsVkaG5aFI1DEgYL9hHQ,,,,,,,,,,,
,,,,,,,,,,,,,,p,1,1.006,space,0.303,0,151,151,23,1,0_dist_green/trial24.png,,,1,0,greenverival,p,59,52,female,2021-02-22_15h22.11.487,exp11,2020.2.6,Win32,60,IwAR0V_vrpRGxMeSnFFgdNgc3tRRN1v4D-QWrpjllhsVkaG5aFI1DEgYL9hHQ,,,,,,,,,,,
,,,,,,,,,,,,,,p,1,1.055,space,0.323,0,152,152,56,1,9_dist_green/trial7.png,,,1,9,greenverival,p,59,52,female,2021-02-22_15h22.11.487,exp11,2020.2.6,Win32,60,IwAR0V_vrpRGxMeSnFFgdNgc3tRRN1v4D-QWrpjllhsVkaG5aFI1DEgYL9hHQ,,,,,,,,,,,
,,,,,,,,,,,,,,p,1,0.729,space,0.185,0,153,153,21,1,0_dist_green/trial22.png,,,1,0,greenverival,p,59,52,female,2021-02-22_15h22.11.487,exp11,2020.2.6,Win32,60,IwAR0V_vrpRGxMeSnFFgdNgc3tRRN1v4D-QWrpjllhsVkaG5aFI1DEgYL9hHQ,,,,,,,,,,,
,,,,,,,,,,,,,,a,1,1.474,space,0.387,0,154,154,141,1,0_targ_4_dist_green/trial17.png,,,0,4,greenverival,a,59,52,female,2021-02-22_15h22.11.487,exp11,2020.2.6,Win32,60,IwAR0V_vrpRGxMeSnFFgdNgc3tRRN1v4D-QWrpjllhsVkaG5aFI1DEgYL9hHQ,,,,,,,,,,,
,,,,,,,,,,,,,,a,1,1.193,space,0.318,0,155,155,107,1,0_targ_1_dist_green/trial8.png,,,0,1,greenverival,a,59,52,female,2021-02-22_15h22.11.487,exp11,2020.2.6,Win32,60,IwAR0V_vrpRGxMeSnFFgdNgc3tRRN1v4D-QWrpjllhsVkaG5aFI1DEgYL9hHQ,,,,,,,,,,,
,,,,,,,,,,,,,,p,1,1.178,space,0.272,0,156,156,80,1,15_dist_green/trial6.png,,,1,15,greenverival,p,59,52,female,2021-02-22_15h22.11.487,exp11,2020.2.6,Win32,60,IwAR0V_vrpRGxMeSnFFgdNgc3tRRN1v4D-QWrpjllhsVkaG5aFI1DEgYL9hHQ,,,,,,,,,,,
,,,,,,,,,,,,,,p,1,0.942,space,0.183,0,157,157,19,1,0_dist_green/trial20.png,,,1,0,greenverival,p,59,52,female,2021-02-22_15h22.11.487,exp11,2020.2.6,Win32,60,IwAR0V_vrpRGxMeSnFFgdNgc3tRRN1v4D-QWrpjllhsVkaG5aFI1DEgYL9hHQ,,,,,,,,,,,
,,,,,,,,,,,,,,a,1,1.034,space,0.319,0,158,158,118,1,0_targ_1_dist_green/trial19.png,,,0,1,greenverival,a,59,52,female,2021-02-22_15h22.11.487,exp11,2020.2.6,Win32,60,IwAR0V_vrpRGxMeSnFFgdNgc3tRRN1v4D-QWrpjllhsVkaG5aFI1DEgYL9hHQ,,,,,,,,,,,
,,,,,,,,,,,,,,p,1,0.981,space,0.169,0,159,159,18,1,0_dist_green/trial19.png,,,1,0,greenverival,p,59,52,female,2021-02-22_15h22.11.487,exp11,2020.2.6,Win32,60,IwAR0V_vrpRGxMeSnFFgdNgc3tRRN1v4D-QWrpjllhsVkaG5aFI1DEgYL9hHQ,,,,,,,,,,,
,,,,,,,,,,,,,,a,1,1.265,space,0.405,0,160,160,139,1,0_targ_4_dist_green/trial15.png,,,0,4,greenverival,a,59,52,female,2021-02-22_15h22.11.487,exp11,2020.2.6,Win32,60,IwAR0V_vrpRGxMeSnFFgdNgc3tRRN1v4D-QWrpjllhsVkaG5aFI1DEgYL9hHQ,,,,,,,,,,,
,,,,,,,,,,,,,,p,1,0.984,space,0.152,0,161,161,68,1,9_dist_green/trial19.png,,,1,9,greenverival,p,59,52,female,2021-02-22_15h22.11.487,exp11,2020.2.6,Win32,60,IwAR0V_vrpRGxMeSnFFgdNgc3tRRN1v4D-QWrpjllhsVkaG5aFI1DEgYL9hHQ,,,,,,,,,,,
,,,,,,,,,,,,,,p,1,0.651,space,0.165,0,162,162,24,1,0_dist_green/trial25.png,,,1,0,greenverival,p,59,52,female,2021-02-22_15h22.11.487,exp11,2020.2.6,Win32,60,IwAR0V_vrpRGxMeSnFFgdNgc3tRRN1v4D-QWrpjllhsVkaG5aFI1DEgYL9hHQ,,,,,,,,,,,
,,,,,,,,,,,,,,a,1,0.985,space,0.402,0,163,163,152,1,0_targ_10_dist_green/trial3.png,,,0,10,greenverival,a,59,52,female,2021-02-22_15h22.11.487,exp11,2020.2.6,Win32,60,IwAR0V_vrpRGxMeSnFFgdNgc3tRRN1v4D-QWrpjllhsVkaG5aFI1DEgYL9hHQ,,,,,,,,,,,
,,,,,,,,,,,,,,p,1,1.144,space,0.174,0,164,164,70,1,9_dist_green/trial21.png,,,1,9,greenverival,p,59,52,female,2021-02-22_15h22.11.487,exp11,2020.2.6,Win32,60,IwAR0V_vrpRGxMeSnFFgdNgc3tRRN1v4D-QWrpjllhsVkaG5aFI1DEgYL9hHQ,,,,,,,,,,,
,,,,,,,,,,,,,,p,1,1.543,space,0.455,0,165,165,82,1,15_dist_green/trial8.png,,,1,15,greenverival,p,59,52,female,2021-02-22_15h22.11.487,exp11,2020.2.6,Win32,60,IwAR0V_vrpRGxMeSnFFgdNgc3tRRN1v4D-QWrpjllhsVkaG5aFI1DEgYL9hHQ,,,,,,,,,,,
,,,,,,,,,,,,,,a,1,1.298,space,0.288,0,166,166,197,1,0_targ_16_dist_green/trial23.png,,,0,16,greenverival,a,59,52,female,2021-02-22_15h22.11.487,exp11,2020.2.6,Win32,60,IwAR0V_vrpRGxMeSnFFgdNgc3tRRN1v4D-QWrpjllhsVkaG5aFI1DEgYL9hHQ,,,,,,,,,,,
,,,,,,,,,,,,,,p,1,1.345,space,0.454,0,167,167,26,1,3_dist_green/trial2.png,,,1,3,greenverival,p,59,52,female,2021-02-22_15h22.11.487,exp11,2020.2.6,Win32,60,IwAR0V_vrpRGxMeSnFFgdNgc3tRRN1v4D-QWrpjllhsVkaG5aFI1DEgYL9hHQ,,,,,,,,,,,
,,,,,,,,,,,,,,a,1,1.759,space,0.568,0,168,168,193,1,0_targ_16_dist_green/trial19.png,,,0,16,greenverival,a,59,52,female,2021-02-22_15h22.11.487,exp11,2020.2.6,Win32,60,IwAR0V_vrpRGxMeSnFFgdNgc3tRRN1v4D-QWrpjllhsVkaG5aFI1DEgYL9hHQ,,,,,,,,,,,
,,,,,,,,,,,,,,a,1,0.975,space,0.42,0,169,169,166,1,0_targ_10_dist_green/trial17.png,,,0,10,greenverival,a,59,52,female,2021-02-22_15h22.11.487,exp11,2020.2.6,Win32,60,IwAR0V_vrpRGxMeSnFFgdNgc3tRRN1v4D-QWrpjllhsVkaG5aFI1DEgYL9hHQ,,,,,,,,,,,
,,,,,,,,,,,,,,p,1,1.016,space,0.371,0,170,170,34,1,3_dist_green/trial10.png,,,1,3,greenverival,p,59,52,female,2021-02-22_15h22.11.487,exp11,2020.2.6,Win32,60,IwAR0V_vrpRGxMeSnFFgdNgc3tRRN1v4D-QWrpjllhsVkaG5aFI1DEgYL9hHQ,,,,,,,,,,,
,,,,,,,,,,,,,,a,1,1.087,space,0.385,0,171,171,173,1,0_targ_10_dist_green/trial24.png,,,0,10,greenverival,a,59,52,female,2021-02-22_15h22.11.487,exp11,2020.2.6,Win32,60,IwAR0V_vrpRGxMeSnFFgdNgc3tRRN1v4D-QWrpjllhsVkaG5aFI1DEgYL9hHQ,,,,,,,,,,,
,,,,,,,,,,,,,,p,1,1.703,space,0.369,0,172,172,86,1,15_dist_green/trial12.png,,,1,15,greenverival,p,59,52,female,2021-02-22_15h22.11.487,exp11,2020.2.6,Win32,60,IwAR0V_vrpRGxMeSnFFgdNgc3tRRN1v4D-QWrpjllhsVkaG5aFI1DEgYL9hHQ,,,,,,,,,,,
,,,,,,,,,,,,,,a,1,1.624,space,0.653,0,173,173,194,1,0_targ_16_dist_green/trial20.png,,,0,16,greenverival,a,59,52,female,2021-02-22_15h22.11.487,exp11,2020.2.6,Win32,60,IwAR0V_vrpRGxMeSnFFgdNgc3tRRN1v4D-QWrpjllhsVkaG5aFI1DEgYL9hHQ,,,,,,,,,,,
,,,,,,,,,,,,,,a,1,1.007,space,0.358,0,174,174,129,1,0_targ_4_dist_green/trial5.png,,,0,4,greenverival,a,59,52,female,2021-02-22_15h22.11.487,exp11,2020.2.6,Win32,60,IwAR0V_vrpRGxMeSnFFgdNgc3tRRN1v4D-QWrpjllhsVkaG5aFI1DEgYL9hHQ,,,,,,,,,,,
,,,,,,,,,,,,,,p,1,1.047,space,0.303,0,175,175,28,1,3_dist_green/trial4.png,,,1,3,greenverival,p,59,52,female,2021-02-22_15h22.11.487,exp11,2020.2.6,Win32,60,IwAR0V_vrpRGxMeSnFFgdNgc3tRRN1v4D-QWrpjllhsVkaG5aFI1DEgYL9hHQ,,,,,,,,,,,
,,,,,,,,,,,,,,a,1,1.318,space,0.357,0,176,176,187,1,0_targ_16_dist_green/trial13.png,,,0,16,greenverival,a,59,52,female,2021-02-22_15h22.11.487,exp11,2020.2.6,Win32,60,IwAR0V_vrpRGxMeSnFFgdNgc3tRRN1v4D-QWrpjllhsVkaG5aFI1DEgYL9hHQ,,,,,,,,,,,
,,,,,,,,,,,,,,a,1,1.208,space,0.42,0,177,177,198,1,0_targ_16_dist_green/trial24.png,,,0,16,greenverival,a,59,52,female,2021-02-22_15h22.11.487,exp11,2020.2.6,Win32,60,IwAR0V_vrpRGxMeSnFFgdNgc3tRRN1v4D-QWrpjllhsVkaG5aFI1DEgYL9hHQ,,,,,,,,,,,
,,,,,,,,,,,,,,a,1,1.064,space,0.409,0,178,178,175,1,0_targ_16_dist_green/trial1.png,,,0,16,greenverival,a,59,52,female,2021-02-22_15h22.11.487,exp11,2020.2.6,Win32,60,IwAR0V_vrpRGxMeSnFFgdNgc3tRRN1v4D-QWrpjllhsVkaG5aFI1DEgYL9hHQ,,,,,,,,,,,
,,,,,,,,,,,,,,p,1,1.196,space,0.269,0,179,179,55,1,9_dist_green/trial6.png,,,1,9,greenverival,p,59,52,female,2021-02-22_15h22.11.487,exp11,2020.2.6,Win32,60,IwAR0V_vrpRGxMeSnFFgdNgc3tRRN1v4D-QWrpjllhsVkaG5aFI1DEgYL9hHQ,,,,,,,,,,,
,,,,,,,,,,,,,,a,1,1.18,space,0.385,0,180,180,190,1,0_targ_16_dist_green/trial16.png,,,0,16,greenverival,a,59,52,female,2021-02-22_15h22.11.487,exp11,2020.2.6,Win32,60,IwAR0V_vrpRGxMeSnFFgdNgc3tRRN1v4D-QWrpjllhsVkaG5aFI1DEgYL9hHQ,,,,,,,,,,,
,,,,,,,,,,,,,,p,1,0.876,space,0.267,0,181,181,2,1,0_dist_green/trial3.png,,,1,0,greenverival,p,59,52,female,2021-02-22_15h22.11.487,exp11,2020.2.6,Win32,60,IwAR0V_vrpRGxMeSnFFgdNgc3tRRN1v4D-QWrpjllhsVkaG5aFI1DEgYL9hHQ,,,,,,,,,,,
,,,,,,,,,,,,,,a,1,1.427,space,0.49,0,182,182,121,1,0_targ_1_dist_green/trial22.png,,,0,1,greenverival,a,59,52,female,2021-02-22_15h22.11.487,exp11,2020.2.6,Win32,60,IwAR0V_vrpRGxMeSnFFgdNgc3tRRN1v4D-QWrpjllhsVkaG5aFI1DEgYL9hHQ,,,,,,,,,,,
,,,,,,,,,,,,,,a,1,1.04,space,0.456,0,183,183,145,1,0_targ_4_dist_green/trial21.png,,,0,4,greenverival,a,59,52,female,2021-02-22_15h22.11.487,exp11,2020.2.6,Win32,60,IwAR0V_vrpRGxMeSnFFgdNgc3tRRN1v4D-QWrpjllhsVkaG5aFI1DEgYL9hHQ,,,,,,,,,,,
,,,,,,,,,,,,,,p,1,1.014,space,0.285,0,184,184,30,1,3_dist_green/trial6.png,,,1,3,greenverival,p,59,52,female,2021-02-22_15h22.11.487,exp11,2020.2.6,Win32,60,IwAR0V_vrpRGxMeSnFFgdNgc3tRRN1v4D-QWrpjllhsVkaG5aFI1DEgYL9hHQ,,,,,,,,,,,
,,,,,,,,,,,,,,p,1,0.656,space,0.193,0,185,185,7,1,0_dist_green/trial8.png,,,1,0,greenverival,p,59,52,female,2021-02-22_15h22.11.487,exp11,2020.2.6,Win32,60,IwAR0V_vrpRGxMeSnFFgdNgc3tRRN1v4D-QWrpjllhsVkaG5aFI1DEgYL9hHQ,,,,,,,,,,,
,,,,,,,,,,,,,,a,1,0.938,space,0.37,0,186,186,120,1,0_targ_1_dist_green/trial21.png,,,0,1,greenverival,a,59,52,female,2021-02-22_15h22.11.487,exp11,2020.2.6,Win32,60,IwAR0V_vrpRGxMeSnFFgdNgc3tRRN1v4D-QWrpjllhsVkaG5aFI1DEgYL9hHQ,,,,,,,,,,,
,,,,,,,,,,,,,,a,1,1.082,space,0.371,0,187,187,144,1,0_targ_4_dist_green/trial20.png,,,0,4,greenverival,a,59,52,female,2021-02-22_15h22.11.487,exp11,2020.2.6,Win32,60,IwAR0V_vrpRGxMeSnFFgdNgc3tRRN1v4D-QWrpjllhsVkaG5aFI1DEgYL9hHQ,,,,,,,,,,,
,,,,,,,,,,,,,,a,1,1.257,space,0.337,0,188,188,113,1,0_targ_1_dist_green/trial14.png,,,0,1,greenverival,a,59,52,female,2021-02-22_15h22.11.487,exp11,2020.2.6,Win32,60,IwAR0V_vrpRGxMeSnFFgdNgc3tRRN1v4D-QWrpjllhsVkaG5aFI1DEgYL9hHQ,,,,,,,,,,,
,,,,,,,,,,,,,,p,1,1.269,space,0.218,0,189,189,60,1,9_dist_green/trial11.png,,,1,9,greenverival,p,59,52,female,2021-02-22_15h22.11.487,exp11,2020.2.6,Win32,60,IwAR0V_vrpRGxMeSnFFgdNgc3tRRN1v4D-QWrpjllhsVkaG5aFI1DEgYL9hHQ,,,,,,,,,,,
,,,,,,,,,,,,,,p,1,1.826,space,0.293,0,190,190,77,1,15_dist_green/trial3.png,,,1,15,greenverival,p,59,52,female,2021-02-22_15h22.11.487,exp11,2020.2.6,Win32,60,IwAR0V_vrpRGxMeSnFFgdNgc3tRRN1v4D-QWrpjllhsVkaG5aFI1DEgYL9hHQ,,,,,,,,,,,
,,,,,,,,,,,,,,a,1,1.433,space,0.305,0,191,191,117,1,0_targ_1_dist_green/trial18.png,,,0,1,greenverival,a,59,52,female,2021-02-22_15h22.11.487,exp11,2020.2.6,Win32,60,IwAR0V_vrpRGxMeSnFFgdNgc3tRRN1v4D-QWrpjllhsVkaG5aFI1DEgYL9hHQ,,,,,,,,,,,
,,,,,,,,,,,,,,a,1,1.591,space,0.404,0,192,192,188,1,0_targ_16_dist_green/trial14.png,,,0,16,greenverival,a,59,52,female,2021-02-22_15h22.11.487,exp11,2020.2.6,Win32,60,IwAR0V_vrpRGxMeSnFFgdNgc3tRRN1v4D-QWrpjllhsVkaG5aFI1DEgYL9hHQ,,,,,,,,,,,
,,,,,,,,,,,,,,a,1,1.07,space,0.838,0,193,193,179,1,0_targ_16_dist_green/trial5.png,,,0,16,greenverival,a,59,52,female,2021-02-22_15h22.11.487,exp11,2020.2.6,Win32,60,IwAR0V_vrpRGxMeSnFFgdNgc3tRRN1v4D-QWrpjllhsVkaG5aFI1DEgYL9hHQ,,,,,,,,,,,
,,,,,,,,,,,,,,p,1,1.134,space,0.27,0,194,194,54,1,9_dist_green/trial5.png,,,1,9,greenverival,p,59,52,female,2021-02-22_15h22.11.487,exp11,2020.2.6,Win32,60,IwAR0V_vrpRGxMeSnFFgdNgc3tRRN1v4D-QWrpjllhsVkaG5aFI1DEgYL9hHQ,,,,,,,,,,,
,,,,,,,,,,,,,,p,1,0.733,space,0.169,0,195,195,38,1,3_dist_green/trial14.png,,,1,3,greenverival,p,59,52,female,2021-02-22_15h22.11.487,exp11,2020.2.6,Win32,60,IwAR0V_vrpRGxMeSnFFgdNgc3tRRN1v4D-QWrpjllhsVkaG5aFI1DEgYL9hHQ,,,,,,,,,,,
,,,,,,,,,,,,,,a,1,1.198,space,0.288,0,196,196,172,1,0_targ_10_dist_green/trial23.png,,,0,10,greenverival,a,59,52,female,2021-02-22_15h22.11.487,exp11,2020.2.6,Win32,60,IwAR0V_vrpRGxMeSnFFgdNgc3tRRN1v4D-QWrpjllhsVkaG5aFI1DEgYL9hHQ,,,,,,,,,,,
,,,,,,,,,,,,,,p,1,1.063,space,0.224,0,197,197,58,1,9_dist_green/trial9.png,,,1,9,greenverival,p,59,52,female,2021-02-22_15h22.11.487,exp11,2020.2.6,Win32,60,IwAR0V_vrpRGxMeSnFFgdNgc3tRRN1v4D-QWrpjllhsVkaG5aFI1DEgYL9hHQ,,,,,,,,,,,
,,,,,,,,,,,,,,p,1,1.038,space,0.254,0,198,198,3,1,0_dist_green/trial4.png,,,1,0,greenverival,p,59,52,female,2021-02-22_15h22.11.487,exp11,2020.2.6,Win32,60,IwAR0V_vrpRGxMeSnFFgdNgc3tRRN1v4D-QWrpjllhsVkaG5aFI1DEgYL9hHQ,,,,,,,,,,,
,,,,,,,,,,,,,,p,1,0.733,space,0.235,0,199,199,17,1,0_dist_green/trial18.png,,,1,0,greenverival,p,59,52,female,2021-02-22_15h22.11.487,exp11,2020.2.6,Win32,60,IwAR0V_vrpRGxMeSnFFgdNgc3tRRN1v4D-QWrpjllhsVkaG5aFI1DEgYL9hHQ,,,,,,,,,,,
,,,,,,,,,,,,,,,,,,,,,,,,,,,,,,,59,52,female,2021-02-22_15h22.11.487,exp11,2020.2.6,Win32,60,IwAR0V_vrpRGxMeSnFFgdNgc3tRRN1v4D-QWrpjllhsVkaG5aFI1DEgYL9hHQ,0,0,0,0,1,conGreen.xlsx,green vertical,Look for green vertical bar (target) and indicate if it is present or absent in the array. If green vertical target is present press 'p' and if absent press 'a'. Press SPACE to start.,,,
,,,,,,,,,,space,16.948,space,3.545,p,0,1.979,space,10.757,0,0,0,176,1,0_targ_16_dist_red/trial2.png,,,0,16,redHorizontal,a,59,52,female,2021-02-22_15h22.11.487,exp11,2020.2.6,Win32,60,IwAR0V_vrpRGxMeSnFFgdNgc3tRRN1v4D-QWrpjllhsVkaG5aFI1DEgYL9hHQ,,,,,,,,,,,
,,,,,,,,,,,,,,a,1,2.596,space,0.725,0,1,1,152,1,0_targ_10_dist_red/trial3.png,,,0,10,redHorizontal,a,59,52,female,2021-02-22_15h22.11.487,exp11,2020.2.6,Win32,60,IwAR0V_vrpRGxMeSnFFgdNgc3tRRN1v4D-QWrpjllhsVkaG5aFI1DEgYL9hHQ,,,,,,,,,,,
,,,,,,,,,,,,,,a,1,0.813,space,0.354,0,2,2,151,1,0_targ_10_dist_red/trial2.png,,,0,10,redHorizontal,a,59,52,female,2021-02-22_15h22.11.487,exp11,2020.2.6,Win32,60,IwAR0V_vrpRGxMeSnFFgdNgc3tRRN1v4D-QWrpjllhsVkaG5aFI1DEgYL9hHQ,,,,,,,,,,,
,,,,,,,,,,,,,,a,1,0.916,space,0.302,0,3,3,194,1,0_targ_16_dist_red/trial20.png,,,0,16,redHorizontal,a,59,52,female,2021-02-22_15h22.11.487,exp11,2020.2.6,Win32,60,IwAR0V_vrpRGxMeSnFFgdNgc3tRRN1v4D-QWrpjllhsVkaG5aFI1DEgYL9hHQ,,,,,,,,,,,
,,,,,,,,,,,,,,a,1,0.608,space,0.308,0,4,4,107,1,0_targ_1_dist_red/trial8.png,,,0,1,redHorizontal,a,59,52,female,2021-02-22_15h22.11.487,exp11,2020.2.6,Win32,60,IwAR0V_vrpRGxMeSnFFgdNgc3tRRN1v4D-QWrpjllhsVkaG5aFI1DEgYL9hHQ,,,,,,,,,,,
,,,,,,,,,,,,,,a,1,0.497,space,0.271,0,5,5,137,1,0_targ_4_dist_red/trial13.png,,,0,4,redHorizontal,a,59,52,female,2021-02-22_15h22.11.487,exp11,2020.2.6,Win32,60,IwAR0V_vrpRGxMeSnFFgdNgc3tRRN1v4D-QWrpjllhsVkaG5aFI1DEgYL9hHQ,,,,,,,,,,,
,,,,,,,,,,,,,,p,1,1.705,space,0.336,0,6,6,33,1,3_dist_red/trial9.png,,,1,3,redHorizontal,p,59,52,female,2021-02-22_15h22.11.487,exp11,2020.2.6,Win32,60,IwAR0V_vrpRGxMeSnFFgdNgc3tRRN1v4D-QWrpjllhsVkaG5aFI1DEgYL9hHQ,,,,,,,,,,,
,,,,,,,,,,,,,,p,1,0.666,space,0.184,0,7,7,26,1,3_dist_red/trial2.png,,,1,3,redHorizontal,p,59,52,female,2021-02-22_15h22.11.487,exp11,2020.2.6,Win32,60,IwAR0V_vrpRGxMeSnFFgdNgc3tRRN1v4D-QWrpjllhsVkaG5aFI1DEgYL9hHQ,,,,,,,,,,,
,,,,,,,,,,,,,,a,1,1.049,space,0.31,0,8,8,125,1,0_targ_4_dist_red/trial1.png,,,0,4,redHorizontal,a,59,52,female,2021-02-22_15h22.11.487,exp11,2020.2.6,Win32,60,IwAR0V_vrpRGxMeSnFFgdNgc3tRRN1v4D-QWrpjllhsVkaG5aFI1DEgYL9hHQ,,,,,,,,,,,
,,,,,,,,,,,,,,p,1,1.302,space,0.134,0,9,9,78,1,15_dist_red/trial4.png,,,1,15,redHorizontal,p,59,52,female,2021-02-22_15h22.11.487,exp11,2020.2.6,Win32,60,IwAR0V_vrpRGxMeSnFFgdNgc3tRRN1v4D-QWrpjllhsVkaG5aFI1DEgYL9hHQ,,,,,,,,,,,
,,,,,,,,,,,,,,p,1,0.645,space,0.171,0,10,10,50,1,9_dist_red/trial1.png,,,1,9,redHorizontal,p,59,52,female,2021-02-22_15h22.11.487,exp11,2020.2.6,Win32,60,IwAR0V_vrpRGxMeSnFFgdNgc3tRRN1v4D-QWrpjllhsVkaG5aFI1DEgYL9hHQ,,,,,,,,,,,
,,,,,,,,,,,,,,a,1,1.653,space,0.335,0,11,11,118,1,0_targ_1_dist_red/trial19.png,,,0,1,redHorizontal,a,59,52,female,2021-02-22_15h22.11.487,exp11,2020.2.6,Win32,60,IwAR0V_vrpRGxMeSnFFgdNgc3tRRN1v4D-QWrpjllhsVkaG5aFI1DEgYL9hHQ,,,,,,,,,,,
,,,,,,,,,,,,,,p,1,0.985,space,0.17,0,12,12,32,1,3_dist_red/trial8.png,,,1,3,redHorizontal,p,59,52,female,2021-02-22_15h22.11.487,exp11,2020.2.6,Win32,60,IwAR0V_vrpRGxMeSnFFgdNgc3tRRN1v4D-QWrpjllhsVkaG5aFI1DEgYL9hHQ,,,,,,,,,,,
,,,,,,,,,,,,,,p,1,0.782,space,0.142,0,13,13,61,1,9_dist_red/trial12.png,,,1,9,redHorizontal,p,59,52,female,2021-02-22_15h22.11.487,exp11,2020.2.6,Win32,60,IwAR0V_vrpRGxMeSnFFgdNgc3tRRN1v4D-QWrpjllhsVkaG5aFI1DEgYL9hHQ,,,,,,,,,,,
,,,,,,,,,,,,,,a,1,1.158,space,0.269,0,14,14,177,1,0_targ_16_dist_red/trial3.png,,,0,16,redHorizontal,a,59,52,female,2021-02-22_15h22.11.487,exp11,2020.2.6,Win32,60,IwAR0V_vrpRGxMeSnFFgdNgc3tRRN1v4D-QWrpjllhsVkaG5aFI1DEgYL9hHQ,,,,,,,,,,,
,,,,,,,,,,,,,,a,1,0.957,space,0.255,0,15,15,131,1,0_targ_4_dist_red/trial7.png,,,0,4,redHorizontal,a,59,52,female,2021-02-22_15h22.11.487,exp11,2020.2.6,Win32,60,IwAR0V_vrpRGxMeSnFFgdNgc3tRRN1v4D-QWrpjllhsVkaG5aFI1DEgYL9hHQ,,,,,,,,,,,
,,,,,,,,,,,,,,a,0,1.279,space,0.35,0,16,16,80,1,15_dist_red/trial6.png,,,1,15,redHorizontal,p,59,52,female,2021-02-22_15h22.11.487,exp11,2020.2.6,Win32,60,IwAR0V_vrpRGxMeSnFFgdNgc3tRRN1v4D-QWrpjllhsVkaG5aFI1DEgYL9hHQ,,,,,,,,,,,
,,,,,,,,,,,,,,a,1,3.322,space,0.344,0,17,17,139,1,0_targ_4_dist_red/trial15.png,,,0,4,redHorizontal,a,59,52,female,2021-02-22_15h22.11.487,exp11,2020.2.6,Win32,60,IwAR0V_vrpRGxMeSnFFgdNgc3tRRN1v4D-QWrpjllhsVkaG5aFI1DEgYL9hHQ,,,,,,,,,,,
,,,,,,,,,,,,,,p,1,1.268,space,0.278,0,18,18,67,1,9_dist_red/trial18.png,,,1,9,redHorizontal,p,59,52,female,2021-02-22_15h22.11.487,exp11,2020.2.6,Win32,60,IwAR0V_vrpRGxMeSnFFgdNgc3tRRN1v4D-QWrpjllhsVkaG5aFI1DEgYL9hHQ,,,,,,,,,,,
,,,,,,,,,,,,,,a,1,1.084,space,0.369,0,19,19,170,1,0_targ_10_dist_red/trial21.png,,,0,10,redHorizontal,a,59,52,female,2021-02-22_15h22.11.487,exp11,2020.2.6,Win32,60,IwAR0V_vrpRGxMeSnFFgdNgc3tRRN1v4D-QWrpjllhsVkaG5aFI1DEgYL9hHQ,,,,,,,,,,,
,,,,,,,,,,,,,,a,1,1.237,space,0.301,0,20,20,175,1,0_targ_16_dist_red/trial1.png,,,0,16,redHorizontal,a,59,52,female,2021-02-22_15h22.11.487,exp11,2020.2.6,Win32,60,IwAR0V_vrpRGxMeSnFFgdNgc3tRRN1v4D-QWrpjllhsVkaG5aFI1DEgYL9hHQ,,,,,,,,,,,
,,,,,,,,,,,,,,p,1,0.931,space,0.218,0,21,21,13,1,0_dist_red/trial14.png,,,1,0,redHorizontal,p,59,52,female,2021-02-22_15h22.11.487,exp11,2020.2.6,Win32,60,IwAR0V_vrpRGxMeSnFFgdNgc3tRRN1v4D-QWrpjllhsVkaG5aFI1DEgYL9hHQ,,,,,,,,,,,
,,,,,,,,,,,,,,p,1,0.681,space,0.141,0,22,22,51,1,9_dist_red/trial2.png,,,1,9,redHorizontal,p,59,52,female,2021-02-22_15h22.11.487,exp11,2020.2.6,Win32,60,IwAR0V_vrpRGxMeSnFFgdNgc3tRRN1v4D-QWrpjllhsVkaG5aFI1DEgYL9hHQ,,,,,,,,,,,
,,,,,,,,,,,,,,a,1,1.048,space,0.285,0,23,23,111,1,0_targ_1_dist_red/trial12.png,,,0,1,redHorizontal,a,59,52,female,2021-02-22_15h22.11.487,exp11,2020.2.6,Win32,60,IwAR0V_vrpRGxMeSnFFgdNgc3tRRN1v4D-QWrpjllhsVkaG5aFI1DEgYL9hHQ,,,,,,,,,,,
,,,,,,,,,,,,,,a,0,1.007,space,1.593,0,24,24,89,1,15_dist_red/trial15.png,,,1,15,redHorizontal,p,59,52,female,2021-02-22_15h22.11.487,exp11,2020.2.6,Win32,60,IwAR0V_vrpRGxMeSnFFgdNgc3tRRN1v4D-QWrpjllhsVkaG5aFI1DEgYL9hHQ,,,,,,,,,,,
,,,,,,,,,,,,,,p,1,0.918,space,0.277,0,25,25,77,1,15_dist_red/trial3.png,,,1,15,redHorizontal,p,59,52,female,2021-02-22_15h22.11.487,exp11,2020.2.6,Win32,60,IwAR0V_vrpRGxMeSnFFgdNgc3tRRN1v4D-QWrpjllhsVkaG5aFI1DEgYL9hHQ,,,,,,,,,,,
,,,,,,,,,,,,,,p,1,0.933,space,0.337,0,26,26,19,1,0_dist_red/trial20.png,,,1,0,redHorizontal,p,59,52,female,2021-02-22_15h22.11.487,exp11,2020.2.6,Win32,60,IwAR0V_vrpRGxMeSnFFgdNgc3tRRN1v4D-QWrpjllhsVkaG5aFI1DEgYL9hHQ,,,,,,,,,,,
,,,,,,,,,,,,,,a,1,1.921,space,0.422,0,27,27,182,1,0_targ_16_dist_red/trial8.png,,,0,16,redHorizontal,a,59,52,female,2021-02-22_15h22.11.487,exp11,2020.2.6,Win32,60,IwAR0V_vrpRGxMeSnFFgdNgc3tRRN1v4D-QWrpjllhsVkaG5aFI1DEgYL9hHQ,,,,,,,,,,,
,,,,,,,,,,,,,,p,1,1.43,space,0.224,0,28,28,25,1,3_dist_red/trial1.png,,,1,3,redHorizontal,p,59,52,female,2021-02-22_15h22.11.487,exp11,2020.2.6,Win32,60,IwAR0V_vrpRGxMeSnFFgdNgc3tRRN1v4D-QWrpjllhsVkaG5aFI1DEgYL9hHQ,,,,,,,,,,,
,,,,,,,,,,,,,,a,1,1.348,space,0.335,0,29,29,199,1,0_targ_16_dist_red/trial25.png,,,0,16,redHorizontal,a,59,52,female,2021-02-22_15h22.11.487,exp11,2020.2.6,Win32,60,IwAR0V_vrpRGxMeSnFFgdNgc3tRRN1v4D-QWrpjllhsVkaG5aFI1DEgYL9hHQ,,,,,,,,,,,
,,,,,,,,,,,,,,p,1,1.283,space,0.188,0,30,30,85,1,15_dist_red/trial11.png,,,1,15,redHorizontal,p,59,52,female,2021-02-22_15h22.11.487,exp11,2020.2.6,Win32,60,IwAR0V_vrpRGxMeSnFFgdNgc3tRRN1v4D-QWrpjllhsVkaG5aFI1DEgYL9hHQ,,,,,,,,,,,
,,,,,,,,,,,,,,p,1,0.646,space,0.12,0,31,31,96,1,15_dist_red/trial22.png,,,1,15,redHorizontal,p,59,52,female,2021-02-22_15h22.11.487,exp11,2020.2.6,Win32,60,IwAR0V_vrpRGxMeSnFFgdNgc3tRRN1v4D-QWrpjllhsVkaG5aFI1DEgYL9hHQ,,,,,,,,,,,
,,,,,,,,,,,,,,a,1,1.141,space,0.318,0,32,32,127,1,0_targ_4_dist_red/trial3.png,,,0,4,redHorizontal,a,59,52,female,2021-02-22_15h22.11.487,exp11,2020.2.6,Win32,60,IwAR0V_vrpRGxMeSnFFgdNgc3tRRN1v4D-QWrpjllhsVkaG5aFI1DEgYL9hHQ,,,,,,,,,,,
,,,,,,,,,,,,,,a,1,0.974,space,0.258,0,33,33,133,1,0_targ_4_dist_red/trial9.png,,,0,4,redHorizontal,a,59,52,female,2021-02-22_15h22.11.487,exp11,2020.2.6,Win32,60,IwAR0V_vrpRGxMeSnFFgdNgc3tRRN1v4D-QWrpjllhsVkaG5aFI1DEgYL9hHQ,,,,,,,,,,,
,,,,,,,,,,,,,,p,1,1.696,space,0.158,0,34,34,94,1,15_dist_red/trial20.png,,,1,15,redHorizontal,p,59,52,female,2021-02-22_15h22.11.487,exp11,2020.2.6,Win32,60,IwAR0V_vrpRGxMeSnFFgdNgc3tRRN1v4D-QWrpjllhsVkaG5aFI1DEgYL9hHQ,,,,,,,,,,,
,,,,,,,,,,,,,,p,1,1.083,space,0.12,0,35,35,86,1,15_dist_red/trial12.png,,,1,15,redHorizontal,p,59,52,female,2021-02-22_15h22.11.487,exp11,2020.2.6,Win32,60,IwAR0V_vrpRGxMeSnFFgdNgc3tRRN1v4D-QWrpjllhsVkaG5aFI1DEgYL9hHQ,,,,,,,,,,,
,,,,,,,,,,,,,,a,1,1.16,space,0.254,0,36,36,114,1,0_targ_1_dist_red/trial15.png,,,0,1,redHorizontal,a,59,52,female,2021-02-22_15h22.11.487,exp11,2020.2.6,Win32,60,IwAR0V_vrpRGxMeSnFFgdNgc3tRRN1v4D-QWrpjllhsVkaG5aFI1DEgYL9hHQ,,,,,,,,,,,
,,,,,,,,,,,,,,a,1,0.998,space,0.25,0,37,37,108,1,0_targ_1_dist_red/trial9.png,,,0,1,redHorizontal,a,59,52,female,2021-02-22_15h22.11.487,exp11,2020.2.6,Win32,60,IwAR0V_vrpRGxMeSnFFgdNgc3tRRN1v4D-QWrpjllhsVkaG5aFI1DEgYL9hHQ,,,,,,,,,,,
,,,,,,,,,,,,,,p,1,1.155,space,0.085,0,38,38,53,1,9_dist_red/trial4.png,,,1,9,redHorizontal,p,59,52,female,2021-02-22_15h22.11.487,exp11,2020.2.6,Win32,60,IwAR0V_vrpRGxMeSnFFgdNgc3tRRN1v4D-QWrpjllhsVkaG5aFI1DEgYL9hHQ,,,,,,,,,,,
,,,,,,,,,,,,,,p,1,1.231,space,0.352,0,39,39,69,1,9_dist_red/trial20.png,,,1,9,redHorizontal,p,59,52,female,2021-02-22_15h22.11.487,exp11,2020.2.6,Win32,60,IwAR0V_vrpRGxMeSnFFgdNgc3tRRN1v4D-QWrpjllhsVkaG5aFI1DEgYL9hHQ,,,,,,,,,,,
,,,,,,,,,,,,,,p,1,0.967,space,0.183,0,40,40,28,1,3_dist_red/trial4.png,,,1,3,redHorizontal,p,59,52,female,2021-02-22_15h22.11.487,exp11,2020.2.6,Win32,60,IwAR0V_vrpRGxMeSnFFgdNgc3tRRN1v4D-QWrpjllhsVkaG5aFI1DEgYL9hHQ,,,,,,,,,,,
,,,,,,,,,,,,,,a,1,1.156,space,0.223,0,41,41,132,1,0_targ_4_dist_red/trial8.png,,,0,4,redHorizontal,a,59,52,female,2021-02-22_15h22.11.487,exp11,2020.2.6,Win32,60,IwAR0V_vrpRGxMeSnFFgdNgc3tRRN1v4D-QWrpjllhsVkaG5aFI1DEgYL9hHQ,,,,,,,,,,,
,,,,,,,,,,,,,,p,1,0.954,space,0.124,0,42,42,37,1,3_dist_red/trial13.png,,,1,3,redHorizontal,p,59,52,female,2021-02-22_15h22.11.487,exp11,2020.2.6,Win32,60,IwAR0V_vrpRGxMeSnFFgdNgc3tRRN1v4D-QWrpjllhsVkaG5aFI1DEgYL9hHQ,,,,,,,,,,,
,,,,,,,,,,,,,,p,1,0.726,space,0.119,0,43,43,42,1,3_dist_red/trial18.png,,,1,3,redHorizontal,p,59,52,female,2021-02-22_15h22.11.487,exp11,2020.2.6,Win32,60,IwAR0V_vrpRGxMeSnFFgdNgc3tRRN1v4D-QWrpjllhsVkaG5aFI1DEgYL9hHQ,,,,,,,,,,,
,,,,,,,,,,,,,,p,1,0.781,space,0.153,0,44,44,10,1,0_dist_red/trial11.png,,,1,0,redHorizontal,p,59,52,female,2021-02-22_15h22.11.487,exp11,2020.2.6,Win32,60,IwAR0V_vrpRGxMeSnFFgdNgc3tRRN1v4D-QWrpjllhsVkaG5aFI1DEgYL9hHQ,,,,,,,,,,,
,,,,,,,,,,,,,,p,1,0.664,space,0.117,0,45,45,35,1,3_dist_red/trial11.png,,,1,3,redHorizontal,p,59,52,female,2021-02-22_15h22.11.487,exp11,2020.2.6,Win32,60,IwAR0V_vrpRGxMeSnFFgdNgc3tRRN1v4D-QWrpjllhsVkaG5aFI1DEgYL9hHQ,,,,,,,,,,,
,,,,,,,,,,,,,,a,1,1.132,space,0.285,0,46,46,123,1,0_targ_1_dist_red/trial24.png,,,0,1,redHorizontal,a,59,52,female,2021-02-22_15h22.11.487,exp11,2020.2.6,Win32,60,IwAR0V_vrpRGxMeSnFFgdNgc3tRRN1v4D-QWrpjllhsVkaG5aFI1DEgYL9hHQ,,,,,,,,,,,
,,,,,,,,,,,,,,a,1,1.25,space,0.318,0,47,47,144,1,0_targ_4_dist_red/trial20.png,,,0,4,redHorizontal,a,59,52,female,2021-02-22_15h22.11.487,exp11,2020.2.6,Win32,60,IwAR0V_vrpRGxMeSnFFgdNgc3tRRN1v4D-QWrpjllhsVkaG5aFI1DEgYL9hHQ,,,,,,,,,,,
,,,,,,,,,,,,,,a,1,0.953,space,0.305,0,48,48,116,1,0_targ_1_dist_red/trial17.png,,,0,1,redHorizontal,a,59,52,female,2021-02-22_15h22.11.487,exp11,2020.2.6,Win32,60,IwAR0V_vrpRGxMeSnFFgdNgc3tRRN1v4D-QWrpjllhsVkaG5aFI1DEgYL9hHQ,,,,,,,,,,,
,,,,,,,,,,,,,,a,1,1.586,space,0.322,0,49,49,147,1,0_targ_4_dist_red/trial23.png,,,0,4,redHorizontal,a,59,52,female,2021-02-22_15h22.11.487,exp11,2020.2.6,Win32,60,IwAR0V_vrpRGxMeSnFFgdNgc3tRRN1v4D-QWrpjllhsVkaG5aFI1DEgYL9hHQ,,,,,,,,,,,
,,,,,,,,,,,,,,a,1,0.907,space,0.302,0,50,50,124,1,0_targ_1_dist_red/trial25.png,,,0,1,redHorizontal,a,59,52,female,2021-02-22_15h22.11.487,exp11,2020.2.6,Win32,60,IwAR0V_vrpRGxMeSnFFgdNgc3tRRN1v4D-QWrpjllhsVkaG5aFI1DEgYL9hHQ,,,,,,,,,,,
,,,,,,,,,,,,,,a,1,1.562,space,0.418,0,51,51,174,1,0_targ_10_dist_red/trial25.png,,,0,10,redHorizontal,a,59,52,female,2021-02-22_15h22.11.487,exp11,2020.2.6,Win32,60,IwAR0V_vrpRGxMeSnFFgdNgc3tRRN1v4D-QWrpjllhsVkaG5aFI1DEgYL9hHQ,,,,,,,,,,,
,,,,,,,,,,,,,,p,1,1.093,space,0.138,0,52,52,97,1,15_dist_red/trial23.png,,,1,15,redHorizontal,p,59,52,female,2021-02-22_15h22.11.487,exp11,2020.2.6,Win32,60,IwAR0V_vrpRGxMeSnFFgdNgc3tRRN1v4D-QWrpjllhsVkaG5aFI1DEgYL9hHQ,,,,,,,,,,,
,,,,,,,,,,,,,,a,1,1.052,space,0.272,0,53,53,110,1,0_targ_1_dist_red/trial11.png,,,0,1,redHorizontal,a,59,52,female,2021-02-22_15h22.11.487,exp11,2020.2.6,Win32,60,IwAR0V_vrpRGxMeSnFFgdNgc3tRRN1v4D-QWrpjllhsVkaG5aFI1DEgYL9hHQ,,,,,,,,,,,
,,,,,,,,,,,,,,a,1,1.456,space,0.353,0,54,54,179,1,0_targ_16_dist_red/trial5.png,,,0,16,redHorizontal,a,59,52,female,2021-02-22_15h22.11.487,exp11,2020.2.6,Win32,60,IwAR0V_vrpRGxMeSnFFgdNgc3tRRN1v4D-QWrpjllhsVkaG5aFI1DEgYL9hHQ,,,,,,,,,,,
,,,,,,,,,,,,,,a,1,0.991,space,0.304,0,55,55,121,1,0_targ_1_dist_red/trial22.png,,,0,1,redHorizontal,a,59,52,female,2021-02-22_15h22.11.487,exp11,2020.2.6,Win32,60,IwAR0V_vrpRGxMeSnFFgdNgc3tRRN1v4D-QWrpjllhsVkaG5aFI1DEgYL9hHQ,,,,,,,,,,,
,,,,,,,,,,,,,,p,1,1.049,space,0.153,0,56,56,36,1,3_dist_red/trial12.png,,,1,3,redHorizontal,p,59,52,female,2021-02-22_15h22.11.487,exp11,2020.2.6,Win32,60,IwAR0V_vrpRGxMeSnFFgdNgc3tRRN1v4D-QWrpjllhsVkaG5aFI1DEgYL9hHQ,,,,,,,,,,,
,,,,,,,,,,,,,,a,0,1.214,space,0.039,0,57,57,34,1,3_dist_red/trial10.png,,,1,3,redHorizontal,p,59,52,female,2021-02-22_15h22.11.487,exp11,2020.2.6,Win32,60,IwAR0V_vrpRGxMeSnFFgdNgc3tRRN1v4D-QWrpjllhsVkaG5aFI1DEgYL9hHQ,,,,,,,,,,,
,,,,,,,,,,,,,,p,1,0.766,space,0.285,0,58,58,68,1,9_dist_red/trial19.png,,,1,9,redHorizontal,p,59,52,female,2021-02-22_15h22.11.487,exp11,2020.2.6,Win32,60,IwAR0V_vrpRGxMeSnFFgdNgc3tRRN1v4D-QWrpjllhsVkaG5aFI1DEgYL9hHQ,,,,,,,,,,,
,,,,,,,,,,,,,,a,1,1.358,space,0.322,0,59,59,129,1,0_targ_4_dist_red/trial5.png,,,0,4,redHorizontal,a,59,52,female,2021-02-22_15h22.11.487,exp11,2020.2.6,Win32,60,IwAR0V_vrpRGxMeSnFFgdNgc3tRRN1v4D-QWrpjllhsVkaG5aFI1DEgYL9hHQ,,,,,,,,,,,
,,,,,,,,,,,,,,p,1,1.071,space,0.253,0,60,60,48,1,3_dist_red/trial24.png,,,1,3,redHorizontal,p,59,52,female,2021-02-22_15h22.11.487,exp11,2020.2.6,Win32,60,IwAR0V_vrpRGxMeSnFFgdNgc3tRRN1v4D-QWrpjllhsVkaG5aFI1DEgYL9hHQ,,,,,,,,,,,
,,,,,,,,,,,,,,a,1,1.154,space,0.321,0,61,61,178,1,0_targ_16_dist_red/trial4.png,,,0,16,redHorizontal,a,59,52,female,2021-02-22_15h22.11.487,exp11,2020.2.6,Win32,60,IwAR0V_vrpRGxMeSnFFgdNgc3tRRN1v4D-QWrpjllhsVkaG5aFI1DEgYL9hHQ,,,,,,,,,,,
,,,,,,,,,,,,,,a,0,0.888,space,1.168,0,62,62,9,1,0_dist_red/trial10.png,,,1,0,redHorizontal,p,59,52,female,2021-02-22_15h22.11.487,exp11,2020.2.6,Win32,60,IwAR0V_vrpRGxMeSnFFgdNgc3tRRN1v4D-QWrpjllhsVkaG5aFI1DEgYL9hHQ,,,,,,,,,,,
,,,,,,,,,,,,,,p,1,1.641,space,0.211,0,63,63,49,1,3_dist_red/trial25.png,,,1,3,redHorizontal,p,59,52,female,2021-02-22_15h22.11.487,exp11,2020.2.6,Win32,60,IwAR0V_vrpRGxMeSnFFgdNgc3tRRN1v4D-QWrpjllhsVkaG5aFI1DEgYL9hHQ,,,,,,,,,,,
,,,,,,,,,,,,,,p,1,0.799,space,0.185,0,64,64,46,1,3_dist_red/trial22.png,,,1,3,redHorizontal,p,59,52,female,2021-02-22_15h22.11.487,exp11,2020.2.6,Win32,60,IwAR0V_vrpRGxMeSnFFgdNgc3tRRN1v4D-QWrpjllhsVkaG5aFI1DEgYL9hHQ,,,,,,,,,,,
,,,,,,,,,,,,,,p,1,0.948,space,0.134,0,65,65,41,1,3_dist_red/trial17.png,,,1,3,redHorizontal,p,59,52,female,2021-02-22_15h22.11.487,exp11,2020.2.6,Win32,60,IwAR0V_vrpRGxMeSnFFgdNgc3tRRN1v4D-QWrpjllhsVkaG5aFI1DEgYL9hHQ,,,,,,,,,,,
,,,,,,,,,,,,,,a,1,1.669,space,0.487,0,66,66,161,1,0_targ_10_dist_red/trial12.png,,,0,10,redHorizontal,a,59,52,female,2021-02-22_15h22.11.487,exp11,2020.2.6,Win32,60,IwAR0V_vrpRGxMeSnFFgdNgc3tRRN1v4D-QWrpjllhsVkaG5aFI1DEgYL9hHQ,,,,,,,,,,,
,,,,,,,,,,,,,,p,1,0.831,space,0.185,0,67,67,88,1,15_dist_red/trial14.png,,,1,15,redHorizontal,p,59,52,female,2021-02-22_15h22.11.487,exp11,2020.2.6,Win32,60,IwAR0V_vrpRGxMeSnFFgdNgc3tRRN1v4D-QWrpjllhsVkaG5aFI1DEgYL9hHQ,,,,,,,,,,,
,,,,,,,,,,,,,,p,1,1.412,space,0.471,0,68,68,79,1,15_dist_red/trial5.png,,,1,15,redHorizontal,p,59,52,female,2021-02-22_15h22.11.487,exp11,2020.2.6,Win32,60,IwAR0V_vrpRGxMeSnFFgdNgc3tRRN1v4D-QWrpjllhsVkaG5aFI1DEgYL9hHQ,,,,,,,,,,,
,,,,,,,,,,,,,,p,1,0.66,space,0.184,0,69,69,54,1,9_dist_red/trial5.png,,,1,9,redHorizontal,p,59,52,female,2021-02-22_15h22.11.487,exp11,2020.2.6,Win32,60,IwAR0V_vrpRGxMeSnFFgdNgc3tRRN1v4D-QWrpjllhsVkaG5aFI1DEgYL9hHQ,,,,,,,,,,,
,,,,,,,,,,,,,,a,1,1.448,space,0.341,0,70,70,145,1,0_targ_4_dist_red/trial21.png,,,0,4,redHorizontal,a,59,52,female,2021-02-22_15h22.11.487,exp11,2020.2.6,Win32,60,IwAR0V_vrpRGxMeSnFFgdNgc3tRRN1v4D-QWrpjllhsVkaG5aFI1DEgYL9hHQ,,,,,,,,,,,
,,,,,,,,,,,,,,a,1,0.888,space,0.286,0,71,71,101,1,0_targ_1_dist_red/trial2.png,,,0,1,redHorizontal,a,59,52,female,2021-02-22_15h22.11.487,exp11,2020.2.6,Win32,60,IwAR0V_vrpRGxMeSnFFgdNgc3tRRN1v4D-QWrpjllhsVkaG5aFI1DEgYL9hHQ,,,,,,,,,,,
,,,,,,,,,,,,,,p,1,1.021,space,0.135,0,72,72,8,1,0_dist_red/trial9.png,,,1,0,redHorizontal,p,59,52,female,2021-02-22_15h22.11.487,exp11,2020.2.6,Win32,60,IwAR0V_vrpRGxMeSnFFgdNgc3tRRN1v4D-QWrpjllhsVkaG5aFI1DEgYL9hHQ,,,,,,,,,,,
,,,,,,,,,,,,,,a,1,1.138,space,0.288,0,73,73,134,1,0_targ_4_dist_red/trial10.png,,,0,4,redHorizontal,a,59,52,female,2021-02-22_15h22.11.487,exp11,2020.2.6,Win32,60,IwAR0V_vrpRGxMeSnFFgdNgc3tRRN1v4D-QWrpjllhsVkaG5aFI1DEgYL9hHQ,,,,,,,,,,,
,,,,,,,,,,,,,,p,1,0.854,space,0.152,0,74,74,91,1,15_dist_red/trial17.png,,,1,15,redHorizontal,p,59,52,female,2021-02-22_15h22.11.487,exp11,2020.2.6,Win32,60,IwAR0V_vrpRGxMeSnFFgdNgc3tRRN1v4D-QWrpjllhsVkaG5aFI1DEgYL9hHQ,,,,,,,,,,,
,,,,,,,,,,,,,,p,1,0.703,space,0.107,0,75,75,76,1,15_dist_red/trial2.png,,,1,15,redHorizontal,p,59,52,female,2021-02-22_15h22.11.487,exp11,2020.2.6,Win32,60,IwAR0V_vrpRGxMeSnFFgdNgc3tRRN1v4D-QWrpjllhsVkaG5aFI1DEgYL9hHQ,,,,,,,,,,,
,,,,,,,,,,,,,,a,1,1.224,space,0.285,0,76,76,167,1,0_targ_10_dist_red/trial18.png,,,0,10,redHorizontal,a,59,52,female,2021-02-22_15h22.11.487,exp11,2020.2.6,Win32,60,IwAR0V_vrpRGxMeSnFFgdNgc3tRRN1v4D-QWrpjllhsVkaG5aFI1DEgYL9hHQ,,,,,,,,,,,
,,,,,,,,,,,,,,a,1,1.023,space,0.32,0,77,77,119,1,0_targ_1_dist_red/trial20.png,,,0,1,redHorizontal,a,59,52,female,2021-02-22_15h22.11.487,exp11,2020.2.6,Win32,60,IwAR0V_vrpRGxMeSnFFgdNgc3tRRN1v4D-QWrpjllhsVkaG5aFI1DEgYL9hHQ,,,,,,,,,,,
,,,,,,,,,,,,,,a,1,0.602,space,0.287,0,78,78,146,1,0_targ_4_dist_red/trial22.png,,,0,4,redHorizontal,a,59,52,female,2021-02-22_15h22.11.487,exp11,2020.2.6,Win32,60,IwAR0V_vrpRGxMeSnFFgdNgc3tRRN1v4D-QWrpjllhsVkaG5aFI1DEgYL9hHQ,,,,,,,,,,,
,,,,,,,,,,,,,,p,1,0.979,space,0.136,0,79,79,70,1,9_dist_red/trial21.png,,,1,9,redHorizontal,p,59,52,female,2021-02-22_15h22.11.487,exp11,2020.2.6,Win32,60,IwAR0V_vrpRGxMeSnFFgdNgc3tRRN1v4D-QWrpjllhsVkaG5aFI1DEgYL9hHQ,,,,,,,,,,,
,,,,,,,,,,,,,,a,1,1.2,space,0.318,0,80,80,165,1,0_targ_10_dist_red/trial16.png,,,0,10,redHorizontal,a,59,52,female,2021-02-22_15h22.11.487,exp11,2020.2.6,Win32,60,IwAR0V_vrpRGxMeSnFFgdNgc3tRRN1v4D-QWrpjllhsVkaG5aFI1DEgYL9hHQ,,,,,,,,,,,
,,,,,,,,,,,,,,a,1,0.867,space,0.384,0,81,81,164,1,0_targ_10_dist_red/trial15.png,,,0,10,redHorizontal,a,59,52,female,2021-02-22_15h22.11.487,exp11,2020.2.6,Win32,60,IwAR0V_vrpRGxMeSnFFgdNgc3tRRN1v4D-QWrpjllhsVkaG5aFI1DEgYL9hHQ,,,,,,,,,,,
,,,,,,,,,,,,,,p,1,1.526,space,0.204,0,82,82,75,1,15_dist_red/trial1.png,,,1,15,redHorizontal,p,59,52,female,2021-02-22_15h22.11.487,exp11,2020.2.6,Win32,60,IwAR0V_vrpRGxMeSnFFgdNgc3tRRN1v4D-QWrpjllhsVkaG5aFI1DEgYL9hHQ,,,,,,,,,,,
,,,,,,,,,,,,,,p,1,0.671,space,0.137,0,83,83,38,1,3_dist_red/trial14.png,,,1,3,redHorizontal,p,59,52,female,2021-02-22_15h22.11.487,exp11,2020.2.6,Win32,60,IwAR0V_vrpRGxMeSnFFgdNgc3tRRN1v4D-QWrpjllhsVkaG5aFI1DEgYL9hHQ,,,,,,,,,,,
,,,,,,,,,,,,,,p,1,0.698,space,0.118,0,84,84,73,1,9_dist_red/trial24.png,,,1,9,redHorizontal,p,59,52,female,2021-02-22_15h22.11.487,exp11,2020.2.6,Win32,60,IwAR0V_vrpRGxMeSnFFgdNgc3tRRN1v4D-QWrpjllhsVkaG5aFI1DEgYL9hHQ,,,,,,,,,,,
,,,,,,,,,,,,,,p,1,1.054,space,0.437,0,85,85,63,1,9_dist_red/trial14.png,,,1,9,redHorizontal,p,59,52,female,2021-02-22_15h22.11.487,exp11,2020.2.6,Win32,60,IwAR0V_vrpRGxMeSnFFgdNgc3tRRN1v4D-QWrpjllhsVkaG5aFI1DEgYL9hHQ,,,,,,,,,,,
,,,,,,,,,,,,,,p,1,0.634,space,0.152,0,86,86,40,1,3_dist_red/trial16.png,,,1,3,redHorizontal,p,59,52,female,2021-02-22_15h22.11.487,exp11,2020.2.6,Win32,60,IwAR0V_vrpRGxMeSnFFgdNgc3tRRN1v4D-QWrpjllhsVkaG5aFI1DEgYL9hHQ,,,,,,,,,,,
,,,,,,,,,,,,,,a,1,1.097,space,0.286,0,87,87,149,1,0_targ_4_dist_red/trial25.png,,,0,4,redHorizontal,a,59,52,female,2021-02-22_15h22.11.487,exp11,2020.2.6,Win32,60,IwAR0V_vrpRGxMeSnFFgdNgc3tRRN1v4D-QWrpjllhsVkaG5aFI1DEgYL9hHQ,,,,,,,,,,,
,,,,,,,,,,,,,,p,1,0.914,space,0.185,0,88,88,22,1,0_dist_red/trial23.png,,,1,0,redHorizontal,p,59,52,female,2021-02-22_15h22.11.487,exp11,2020.2.6,Win32,60,IwAR0V_vrpRGxMeSnFFgdNgc3tRRN1v4D-QWrpjllhsVkaG5aFI1DEgYL9hHQ,,,,,,,,,,,
,,,,,,,,,,,,,,a,1,2.557,space,0.936,0,89,89,196,1,0_targ_16_dist_red/trial22.png,,,0,16,redHorizontal,a,59,52,female,2021-02-22_15h22.11.487,exp11,2020.2.6,Win32,60,IwAR0V_vrpRGxMeSnFFgdNgc3tRRN1v4D-QWrpjllhsVkaG5aFI1DEgYL9hHQ,,,,,,,,,,,
,,,,,,,,,,,,,,p,1,1.312,space,0.169,0,90,90,52,1,9_dist_red/trial3.png,,,1,9,redHorizontal,p,59,52,female,2021-02-22_15h22.11.487,exp11,2020.2.6,Win32,60,IwAR0V_vrpRGxMeSnFFgdNgc3tRRN1v4D-QWrpjllhsVkaG5aFI1DEgYL9hHQ,,,,,,,,,,,
,,,,,,,,,,,,,,a,1,1.12,space,0.288,0,91,91,156,1,0_targ_10_dist_red/trial7.png,,,0,10,redHorizontal,a,59,52,female,2021-02-22_15h22.11.487,exp11,2020.2.6,Win32,60,IwAR0V_vrpRGxMeSnFFgdNgc3tRRN1v4D-QWrpjllhsVkaG5aFI1DEgYL9hHQ,,,,,,,,,,,
,,,,,,,,,,,,,,a,1,1.279,space,0.22,0,92,92,159,1,0_targ_10_dist_red/trial10.png,,,0,10,redHorizontal,a,59,52,female,2021-02-22_15h22.11.487,exp11,2020.2.6,Win32,60,IwAR0V_vrpRGxMeSnFFgdNgc3tRRN1v4D-QWrpjllhsVkaG5aFI1DEgYL9hHQ,,,,,,,,,,,
,,,,,,,,,,,,,,a,1,0.925,space,0.244,0,93,93,126,1,0_targ_4_dist_red/trial2.png,,,0,4,redHorizontal,a,59,52,female,2021-02-22_15h22.11.487,exp11,2020.2.6,Win32,60,IwAR0V_vrpRGxMeSnFFgdNgc3tRRN1v4D-QWrpjllhsVkaG5aFI1DEgYL9hHQ,,,,,,,,,,,
,,,,,,,,,,,,,,p,1,1.008,space,0.137,0,94,94,82,1,15_dist_red/trial8.png,,,1,15,redHorizontal,p,59,52,female,2021-02-22_15h22.11.487,exp11,2020.2.6,Win32,60,IwAR0V_vrpRGxMeSnFFgdNgc3tRRN1v4D-QWrpjllhsVkaG5aFI1DEgYL9hHQ,,,,,,,,,,,
,,,,,,,,,,,,,,p,1,0.658,space,0.093,0,95,95,14,1,0_dist_red/trial15.png,,,1,0,redHorizontal,p,59,52,female,2021-02-22_15h22.11.487,exp11,2020.2.6,Win32,60,IwAR0V_vrpRGxMeSnFFgdNgc3tRRN1v4D-QWrpjllhsVkaG5aFI1DEgYL9hHQ,,,,,,,,,,,
,,,,,,,,,,,,,,a,1,1.339,space,0.551,0,96,96,158,1,0_targ_10_dist_red/trial9.png,,,0,10,redHorizontal,a,59,52,female,2021-02-22_15h22.11.487,exp11,2020.2.6,Win32,60,IwAR0V_vrpRGxMeSnFFgdNgc3tRRN1v4D-QWrpjllhsVkaG5aFI1DEgYL9hHQ,,,,,,,,,,,
,,,,,,,,,,,,,,p,0,1.608,space,0.753,0,97,97,102,1,0_targ_1_dist_red/trial3.png,,,0,1,redHorizontal,a,59,52,female,2021-02-22_15h22.11.487,exp11,2020.2.6,Win32,60,IwAR0V_vrpRGxMeSnFFgdNgc3tRRN1v4D-QWrpjllhsVkaG5aFI1DEgYL9hHQ,,,,,,,,,,,
,,,,,,,,,,,,,,a,1,1.536,space,0.277,0,98,98,157,1,0_targ_10_dist_red/trial8.png,,,0,10,redHorizontal,a,59,52,female,2021-02-22_15h22.11.487,exp11,2020.2.6,Win32,60,IwAR0V_vrpRGxMeSnFFgdNgc3tRRN1v4D-QWrpjllhsVkaG5aFI1DEgYL9hHQ,,,,,,,,,,,
,,,,,,,,,,,,,,p,1,1.244,space,0.103,0,99,99,98,1,15_dist_red/trial24.png,,,1,15,redHorizontal,p,59,52,female,2021-02-22_15h22.11.487,exp11,2020.2.6,Win32,60,IwAR0V_vrpRGxMeSnFFgdNgc3tRRN1v4D-QWrpjllhsVkaG5aFI1DEgYL9hHQ,,,,,,,,,,,
,,,,,,,,,,,,,,a,1,1.042,space,0.341,0,100,100,109,1,0_targ_1_dist_red/trial10.png,,,0,1,redHorizontal,a,59,52,female,2021-02-22_15h22.11.487,exp11,2020.2.6,Win32,60,IwAR0V_vrpRGxMeSnFFgdNgc3tRRN1v4D-QWrpjllhsVkaG5aFI1DEgYL9hHQ,,,,,,,,,,,
,,,,,,,,,,,,,,a,1,2.158,space,0.436,0,101,101,198,1,0_targ_16_dist_red/trial24.png,,,0,16,redHorizontal,a,59,52,female,2021-02-22_15h22.11.487,exp11,2020.2.6,Win32,60,IwAR0V_vrpRGxMeSnFFgdNgc3tRRN1v4D-QWrpjllhsVkaG5aFI1DEgYL9hHQ,,,,,,,,,,,
,,,,,,,,,,,,,,p,1,1.162,space,0.172,0,102,102,21,1,0_dist_red/trial22.png,,,1,0,redHorizontal,p,59,52,female,2021-02-22_15h22.11.487,exp11,2020.2.6,Win32,60,IwAR0V_vrpRGxMeSnFFgdNgc3tRRN1v4D-QWrpjllhsVkaG5aFI1DEgYL9hHQ,,,,,,,,,,,
,,,,,,,,,,,,,,p,1,0.613,space,0.135,0,103,103,17,1,0_dist_red/trial18.png,,,1,0,redHorizontal,p,59,52,female,2021-02-22_15h22.11.487,exp11,2020.2.6,Win32,60,IwAR0V_vrpRGxMeSnFFgdNgc3tRRN1v4D-QWrpjllhsVkaG5aFI1DEgYL9hHQ,,,,,,,,,,,
,,,,,,,,,,,,,,a,1,2.24,space,0.453,0,104,104,192,1,0_targ_16_dist_red/trial18.png,,,0,16,redHorizontal,a,59,52,female,2021-02-22_15h22.11.487,exp11,2020.2.6,Win32,60,IwAR0V_vrpRGxMeSnFFgdNgc3tRRN1v4D-QWrpjllhsVkaG5aFI1DEgYL9hHQ,,,,,,,,,,,
,,,,,,,,,,,,,,a,1,1.082,space,0.335,0,105,105,171,1,0_targ_10_dist_red/trial22.png,,,0,10,redHorizontal,a,59,52,female,2021-02-22_15h22.11.487,exp11,2020.2.6,Win32,60,IwAR0V_vrpRGxMeSnFFgdNgc3tRRN1v4D-QWrpjllhsVkaG5aFI1DEgYL9hHQ,,,,,,,,,,,
,,,,,,,,,,,,,,a,1,1.002,space,0.351,0,106,106,162,1,0_targ_10_dist_red/trial13.png,,,0,10,redHorizontal,a,59,52,female,2021-02-22_15h22.11.487,exp11,2020.2.6,Win32,60,IwAR0V_vrpRGxMeSnFFgdNgc3tRRN1v4D-QWrpjllhsVkaG5aFI1DEgYL9hHQ,,,,,,,,,,,
,,,,,,,,,,,,,,p,1,0.95,space,0.153,0,107,107,56,1,9_dist_red/trial7.png,,,1,9,redHorizontal,p,59,52,female,2021-02-22_15h22.11.487,exp11,2020.2.6,Win32,60,IwAR0V_vrpRGxMeSnFFgdNgc3tRRN1v4D-QWrpjllhsVkaG5aFI1DEgYL9hHQ,,,,,,,,,,,
,,,,,,,,,,,,,,a,1,1.157,space,0.276,0,108,108,153,1,0_targ_10_dist_red/trial4.png,,,0,10,redHorizontal,a,59,52,female,2021-02-22_15h22.11.487,exp11,2020.2.6,Win32,60,IwAR0V_vrpRGxMeSnFFgdNgc3tRRN1v4D-QWrpjllhsVkaG5aFI1DEgYL9hHQ,,,,,,,,,,,
,,,,,,,,,,,,,,a,1,1.022,space,0.308,0,109,109,122,1,0_targ_1_dist_red/trial23.png,,,0,1,redHorizontal,a,59,52,female,2021-02-22_15h22.11.487,exp11,2020.2.6,Win32,60,IwAR0V_vrpRGxMeSnFFgdNgc3tRRN1v4D-QWrpjllhsVkaG5aFI1DEgYL9hHQ,,,,,,,,,,,
,,,,,,,,,,,,,,p,1,1.051,space,0.153,0,110,110,87,1,15_dist_red/trial13.png,,,1,15,redHorizontal,p,59,52,female,2021-02-22_15h22.11.487,exp11,2020.2.6,Win32,60,IwAR0V_vrpRGxMeSnFFgdNgc3tRRN1v4D-QWrpjllhsVkaG5aFI1DEgYL9hHQ,,,,,,,,,,,
,,,,,,,,,,,,,,p,1,0.692,space,0.168,0,111,111,92,1,15_dist_red/trial18.png,,,1,15,redHorizontal,p,59,52,female,2021-02-22_15h22.11.487,exp11,2020.2.6,Win32,60,IwAR0V_vrpRGxMeSnFFgdNgc3tRRN1v4D-QWrpjllhsVkaG5aFI1DEgYL9hHQ,,,,,,,,,,,
,,,,,,,,,,,,,,a,1,1.335,space,0.25,0,112,112,100,1,0_targ_1_dist_red/trial1.png,,,0,1,redHorizontal,a,59,52,female,2021-02-22_15h22.11.487,exp11,2020.2.6,Win32,60,IwAR0V_vrpRGxMeSnFFgdNgc3tRRN1v4D-QWrpjllhsVkaG5aFI1DEgYL9hHQ,,,,,,,,,,,
,,,,,,,,,,,,,,a,1,1.428,space,0.318,0,113,113,184,1,0_targ_16_dist_red/trial10.png,,,0,16,redHorizontal,a,59,52,female,2021-02-22_15h22.11.487,exp11,2020.2.6,Win32,60,IwAR0V_vrpRGxMeSnFFgdNgc3tRRN1v4D-QWrpjllhsVkaG5aFI1DEgYL9hHQ,,,,,,,,,,,
,,,,,,,,,,,,,,p,1,0.802,space,0.121,0,114,114,5,1,0_dist_red/trial6.png,,,1,0,redHorizontal,p,59,52,female,2021-02-22_15h22.11.487,exp11,2020.2.6,Win32,60,IwAR0V_vrpRGxMeSnFFgdNgc3tRRN1v4D-QWrpjllhsVkaG5aFI1DEgYL9hHQ,,,,,,,,,,,
,,,,,,,,,,,,,,p,1,0.502,space,0.103,0,115,115,11,1,0_dist_red/trial12.png,,,1,0,redHorizontal,p,59,52,female,2021-02-22_15h22.11.487,exp11,2020.2.6,Win32,60,IwAR0V_vrpRGxMeSnFFgdNgc3tRRN1v4D-QWrpjllhsVkaG5aFI1DEgYL9hHQ,,,,,,,,,,,
,,,,,,,,,,,,,,a,1,1.107,space,0.34,0,116,116,136,1,0_targ_4_dist_red/trial12.png,,,0,4,redHorizontal,a,59,52,female,2021-02-22_15h22.11.487,exp11,2020.2.6,Win32,60,IwAR0V_vrpRGxMeSnFFgdNgc3tRRN1v4D-QWrpjllhsVkaG5aFI1DEgYL9hHQ,,,,,,,,,,,
,,,,,,,,,,,,,,p,1,0.816,space,0.106,0,117,117,7,1,0_dist_red/trial8.png,,,1,0,redHorizontal,p,59,52,female,2021-02-22_15h22.11.487,exp11,2020.2.6,Win32,60,IwAR0V_vrpRGxMeSnFFgdNgc3tRRN1v4D-QWrpjllhsVkaG5aFI1DEgYL9hHQ,,,,,,,,,,,
,,,,,,,,,,,,,,a,1,1.017,space,0.225,0,118,118,106,1,0_targ_1_dist_red/trial7.png,,,0,1,redHorizontal,a,59,52,female,2021-02-22_15h22.11.487,exp11,2020.2.6,Win32,60,IwAR0V_vrpRGxMeSnFFgdNgc3tRRN1v4D-QWrpjllhsVkaG5aFI1DEgYL9hHQ,,,,,,,,,,,
,,,,,,,,,,,,,,p,1,1.783,space,0.286,0,119,119,55,1,9_dist_red/trial6.png,,,1,9,redHorizontal,p,59,52,female,2021-02-22_15h22.11.487,exp11,2020.2.6,Win32,60,IwAR0V_vrpRGxMeSnFFgdNgc3tRRN1v4D-QWrpjllhsVkaG5aFI1DEgYL9hHQ,,,,,,,,,,,
,,,,,,,,,,,,,,p,1,0.739,space,0.202,0,120,120,66,1,9_dist_red/trial17.png,,,1,9,redHorizontal,p,59,52,female,2021-02-22_15h22.11.487,exp11,2020.2.6,Win32,60,IwAR0V_vrpRGxMeSnFFgdNgc3tRRN1v4D-QWrpjllhsVkaG5aFI1DEgYL9hHQ,,,,,,,,,,,
,,,,,,,,,,,,,,p,1,0.733,space,0.172,0,121,121,81,1,15_dist_red/trial7.png,,,1,15,redHorizontal,p,59,52,female,2021-02-22_15h22.11.487,exp11,2020.2.6,Win32,60,IwAR0V_vrpRGxMeSnFFgdNgc3tRRN1v4D-QWrpjllhsVkaG5aFI1DEgYL9hHQ,,,,,,,,,,,
,,,,,,,,,,,,,,p,1,0.807,space,0.239,0,122,122,4,1,0_dist_red/trial5.png,,,1,0,redHorizontal,p,59,52,female,2021-02-22_15h22.11.487,exp11,2020.2.6,Win32,60,IwAR0V_vrpRGxMeSnFFgdNgc3tRRN1v4D-QWrpjllhsVkaG5aFI1DEgYL9hHQ,,,,,,,,,,,
,,,,,,,,,,,,,,a,1,1.167,space,0.257,0,123,123,166,1,0_targ_10_dist_red/trial17.png,,,0,10,redHorizontal,a,59,52,female,2021-02-22_15h22.11.487,exp11,2020.2.6,Win32,60,IwAR0V_vrpRGxMeSnFFgdNgc3tRRN1v4D-QWrpjllhsVkaG5aFI1DEgYL9hHQ,,,,,,,,,,,
,,,,,,,,,,,,,,a,1,1.038,space,0.269,0,124,124,187,1,0_targ_16_dist_red/trial13.png,,,0,16,redHorizontal,a,59,52,female,2021-02-22_15h22.11.487,exp11,2020.2.6,Win32,60,IwAR0V_vrpRGxMeSnFFgdNgc3tRRN1v4D-QWrpjllhsVkaG5aFI1DEgYL9hHQ,,,,,,,,,,,
,,,,,,,,,,,,,,a,1,0.942,space,0.268,0,125,125,130,1,0_targ_4_dist_red/trial6.png,,,0,4,redHorizontal,a,59,52,female,2021-02-22_15h22.11.487,exp11,2020.2.6,Win32,60,IwAR0V_vrpRGxMeSnFFgdNgc3tRRN1v4D-QWrpjllhsVkaG5aFI1DEgYL9hHQ,,,,,,,,,,,
,,,,,,,,,,,,,,a,1,1.418,space,0.336,0,126,126,188,1,0_targ_16_dist_red/trial14.png,,,0,16,redHorizontal,a,59,52,female,2021-02-22_15h22.11.487,exp11,2020.2.6,Win32,60,IwAR0V_vrpRGxMeSnFFgdNgc3tRRN1v4D-QWrpjllhsVkaG5aFI1DEgYL9hHQ,,,,,,,,,,,
,,,,,,,,,,,,,,a,1,1.016,space,0.303,0,127,127,155,1,0_targ_10_dist_red/trial6.png,,,0,10,redHorizontal,a,59,52,female,2021-02-22_15h22.11.487,exp11,2020.2.6,Win32,60,IwAR0V_vrpRGxMeSnFFgdNgc3tRRN1v4D-QWrpjllhsVkaG5aFI1DEgYL9hHQ,,,,,,,,,,,
,,,,,,,,,,,,,,p,1,1.005,space,0.121,0,128,128,3,1,0_dist_red/trial4.png,,,1,0,redHorizontal,p,59,52,female,2021-02-22_15h22.11.487,exp11,2020.2.6,Win32,60,IwAR0V_vrpRGxMeSnFFgdNgc3tRRN1v4D-QWrpjllhsVkaG5aFI1DEgYL9hHQ,,,,,,,,,,,
,,,,,,,,,,,,,,p,1,0.704,space,0.087,0,129,129,23,1,0_dist_red/trial24.png,,,1,0,redHorizontal,p,59,52,female,2021-02-22_15h22.11.487,exp11,2020.2.6,Win32,60,IwAR0V_vrpRGxMeSnFFgdNgc3tRRN1v4D-QWrpjllhsVkaG5aFI1DEgYL9hHQ,,,,,,,,,,,
,,,,,,,,,,,,,,a,1,1.031,space,0.256,0,130,130,150,1,0_targ_10_dist_red/trial1.png,,,0,10,redHorizontal,a,59,52,female,2021-02-22_15h22.11.487,exp11,2020.2.6,Win32,60,IwAR0V_vrpRGxMeSnFFgdNgc3tRRN1v4D-QWrpjllhsVkaG5aFI1DEgYL9hHQ,,,,,,,,,,,
,,,,,,,,,,,,,,a,1,1.349,space,0.304,0,131,131,180,1,0_targ_16_dist_red/trial6.png,,,0,16,redHorizontal,a,59,52,female,2021-02-22_15h22.11.487,exp11,2020.2.6,Win32,60,IwAR0V_vrpRGxMeSnFFgdNgc3tRRN1v4D-QWrpjllhsVkaG5aFI1DEgYL9hHQ,,,,,,,,,,,
,,,,,,,,,,,,,,p,1,1.432,space,0.133,0,132,132,59,1,9_dist_red/trial10.png,,,1,9,redHorizontal,p,59,52,female,2021-02-22_15h22.11.487,exp11,2020.2.6,Win32,60,IwAR0V_vrpRGxMeSnFFgdNgc3tRRN1v4D-QWrpjllhsVkaG5aFI1DEgYL9hHQ,,,,,,,,,,,
,,,,,,,,,,,,,,a,1,0.954,space,0.286,0,133,133,128,1,0_targ_4_dist_red/trial4.png,,,0,4,redHorizontal,a,59,52,female,2021-02-22_15h22.11.487,exp11,2020.2.6,Win32,60,IwAR0V_vrpRGxMeSnFFgdNgc3tRRN1v4D-QWrpjllhsVkaG5aFI1DEgYL9hHQ,,,,,,,,,,,
,,,,,,,,,,,,,,a,1,1.1,space,0.302,0,134,134,181,1,0_targ_16_dist_red/trial7.png,,,0,16,redHorizontal,a,59,52,female,2021-02-22_15h22.11.487,exp11,2020.2.6,Win32,60,IwAR0V_vrpRGxMeSnFFgdNgc3tRRN1v4D-QWrpjllhsVkaG5aFI1DEgYL9hHQ,,,,,,,,,,,
,,,,,,,,,,,,,,a,1,0.915,space,0.336,0,135,135,135,1,0_targ_4_dist_red/trial11.png,,,0,4,redHorizontal,a,59,52,female,2021-02-22_15h22.11.487,exp11,2020.2.6,Win32,60,IwAR0V_vrpRGxMeSnFFgdNgc3tRRN1v4D-QWrpjllhsVkaG5aFI1DEgYL9hHQ,,,,,,,,,,,
,,,,,,,,,,,,,,p,1,1.239,space,0.334,0,136,136,44,1,3_dist_red/trial20.png,,,1,3,redHorizontal,p,59,52,female,2021-02-22_15h22.11.487,exp11,2020.2.6,Win32,60,IwAR0V_vrpRGxMeSnFFgdNgc3tRRN1v4D-QWrpjllhsVkaG5aFI1DEgYL9hHQ,,,,,,,,,,,
,,,,,,,,,,,,,,p,1,0.825,space,0.236,0,137,137,30,1,3_dist_red/trial6.png,,,1,3,redHorizontal,p,59,52,female,2021-02-22_15h22.11.487,exp11,2020.2.6,Win32,60,IwAR0V_vrpRGxMeSnFFgdNgc3tRRN1v4D-QWrpjllhsVkaG5aFI1DEgYL9hHQ,,,,,,,,,,,
,,,,,,,,,,,,,,p,1,0.632,space,0.169,0,138,138,20,1,0_dist_red/trial21.png,,,1,0,redHorizontal,p,59,52,female,2021-02-22_15h22.11.487,exp11,2020.2.6,Win32,60,IwAR0V_vrpRGxMeSnFFgdNgc3tRRN1v4D-QWrpjllhsVkaG5aFI1DEgYL9hHQ,,,,,,,,,,,
,,,,,,,,,,,,,,p,1,0.669,space,0.202,0,139,139,65,1,9_dist_red/trial16.png,,,1,9,redHorizontal,p,59,52,female,2021-02-22_15h22.11.487,exp11,2020.2.6,Win32,60,IwAR0V_vrpRGxMeSnFFgdNgc3tRRN1v4D-QWrpjllhsVkaG5aFI1DEgYL9hHQ,,,,,,,,,,,
,,,,,,,,,,,,,,p,1,0.585,space,0.189,0,140,140,1,1,0_dist_red/trial2.png,,,1,0,redHorizontal,p,59,52,female,2021-02-22_15h22.11.487,exp11,2020.2.6,Win32,60,IwAR0V_vrpRGxMeSnFFgdNgc3tRRN1v4D-QWrpjllhsVkaG5aFI1DEgYL9hHQ,,,,,,,,,,,
,,,,,,,,,,,,,,p,1,0.805,space,0.169,0,141,141,60,1,9_dist_red/trial11.png,,,1,9,redHorizontal,p,59,52,female,2021-02-22_15h22.11.487,exp11,2020.2.6,Win32,60,IwAR0V_vrpRGxMeSnFFgdNgc3tRRN1v4D-QWrpjllhsVkaG5aFI1DEgYL9hHQ,,,,,,,,,,,
,,,,,,,,,,,,,,p,1,0.77,space,0.186,0,142,142,47,1,3_dist_red/trial23.png,,,1,3,redHorizontal,p,59,52,female,2021-02-22_15h22.11.487,exp11,2020.2.6,Win32,60,IwAR0V_vrpRGxMeSnFFgdNgc3tRRN1v4D-QWrpjllhsVkaG5aFI1DEgYL9hHQ,,,,,,,,,,,
,,,,,,,,,,,,,,a,1,1.368,space,0.652,0,143,143,197,1,0_targ_16_dist_red/trial23.png,,,0,16,redHorizontal,a,59,52,female,2021-02-22_15h22.11.487,exp11,2020.2.6,Win32,60,IwAR0V_vrpRGxMeSnFFgdNgc3tRRN1v4D-QWrpjllhsVkaG5aFI1DEgYL9hHQ,,,,,,,,,,,
,,,,,,,,,,,,,,p,1,1.115,space,0.252,0,144,144,29,1,3_dist_red/trial5.png,,,1,3,redHorizontal,p,59,52,female,2021-02-22_15h22.11.487,exp11,2020.2.6,Win32,60,IwAR0V_vrpRGxMeSnFFgdNgc3tRRN1v4D-QWrpjllhsVkaG5aFI1DEgYL9hHQ,,,,,,,,,,,
,,,,,,,,,,,,,,p,1,0.735,space,0.168,0,145,145,72,1,9_dist_red/trial23.png,,,1,9,redHorizontal,p,59,52,female,2021-02-22_15h22.11.487,exp11,2020.2.6,Win32,60,IwAR0V_vrpRGxMeSnFFgdNgc3tRRN1v4D-QWrpjllhsVkaG5aFI1DEgYL9hHQ,,,,,,,,,,,
,,,,,,,,,,,,,,p,1,0.579,space,0.158,0,146,146,6,1,0_dist_red/trial7.png,,,1,0,redHorizontal,p,59,52,female,2021-02-22_15h22.11.487,exp11,2020.2.6,Win32,60,IwAR0V_vrpRGxMeSnFFgdNgc3tRRN1v4D-QWrpjllhsVkaG5aFI1DEgYL9hHQ,,,,,,,,,,,
,,,,,,,,,,,,,,a,1,1.07,space,0.539,0,147,147,142,1,0_targ_4_dist_red/trial18.png,,,0,4,redHorizontal,a,59,52,female,2021-02-22_15h22.11.487,exp11,2020.2.6,Win32,60,IwAR0V_vrpRGxMeSnFFgdNgc3tRRN1v4D-QWrpjllhsVkaG5aFI1DEgYL9hHQ,,,,,,,,,,,
,,,,,,,,,,,,,,p,1,1.552,space,0.152,0,148,148,64,1,9_dist_red/trial15.png,,,1,9,redHorizontal,p,59,52,female,2021-02-22_15h22.11.487,exp11,2020.2.6,Win32,60,IwAR0V_vrpRGxMeSnFFgdNgc3tRRN1v4D-QWrpjllhsVkaG5aFI1DEgYL9hHQ,,,,,,,,,,,
,,,,,,,,,,,,,,a,1,2.064,space,0.418,0,149,149,195,1,0_targ_16_dist_red/trial21.png,,,0,16,redHorizontal,a,59,52,female,2021-02-22_15h22.11.487,exp11,2020.2.6,Win32,60,IwAR0V_vrpRGxMeSnFFgdNgc3tRRN1v4D-QWrpjllhsVkaG5aFI1DEgYL9hHQ,,,,,,,,,,,
,,,,,,,,,,,,,,a,1,1.779,space,0.525,0,150,150,112,1,0_targ_1_dist_red/trial13.png,,,0,1,redHorizontal,a,59,52,female,2021-02-22_15h22.11.487,exp11,2020.2.6,Win32,60,IwAR0V_vrpRGxMeSnFFgdNgc3tRRN1v4D-QWrpjllhsVkaG5aFI1DEgYL9hHQ,,,,,,,,,,,
,,,,,,,,,,,,,,p,1,1.007,space,0.156,0,151,151,71,1,9_dist_red/trial22.png,,,1,9,redHorizontal,p,59,52,female,2021-02-22_15h22.11.487,exp11,2020.2.6,Win32,60,IwAR0V_vrpRGxMeSnFFgdNgc3tRRN1v4D-QWrpjllhsVkaG5aFI1DEgYL9hHQ,,,,,,,,,,,
,,,,,,,,,,,,,,a,1,1.246,space,0.323,0,152,152,160,1,0_targ_10_dist_red/trial11.png,,,0,10,redHorizontal,a,59,52,female,2021-02-22_15h22.11.487,exp11,2020.2.6,Win32,60,IwAR0V_vrpRGxMeSnFFgdNgc3tRRN1v4D-QWrpjllhsVkaG5aFI1DEgYL9hHQ,,,,,,,,,,,
,,,,,,,,,,,,,,a,1,1.641,space,0.336,0,153,153,191,1,0_targ_16_dist_red/trial17.png,,,0,16,redHorizontal,a,59,52,female,2021-02-22_15h22.11.487,exp11,2020.2.6,Win32,60,IwAR0V_vrpRGxMeSnFFgdNgc3tRRN1v4D-QWrpjllhsVkaG5aFI1DEgYL9hHQ,,,,,,,,,,,
,,,,,,,,,,,,,,a,1,1.274,space,0.337,0,154,154,190,1,0_targ_16_dist_red/trial16.png,,,0,16,redHorizontal,a,59,52,female,2021-02-22_15h22.11.487,exp11,2020.2.6,Win32,60,IwAR0V_vrpRGxMeSnFFgdNgc3tRRN1v4D-QWrpjllhsVkaG5aFI1DEgYL9hHQ,,,,,,,,,,,
,,,,,,,,,,,,,,p,1,1.269,space,0.143,0,155,155,74,1,9_dist_red/trial25.png,,,1,9,redHorizontal,p,59,52,female,2021-02-22_15h22.11.487,exp11,2020.2.6,Win32,60,IwAR0V_vrpRGxMeSnFFgdNgc3tRRN1v4D-QWrpjllhsVkaG5aFI1DEgYL9hHQ,,,,,,,,,,,
,,,,,,,,,,,,,,p,1,0.632,space,0.135,0,156,156,0,1,0_dist_red/trial1.png,,,1,0,redHorizontal,p,59,52,female,2021-02-22_15h22.11.487,exp11,2020.2.6,Win32,60,IwAR0V_vrpRGxMeSnFFgdNgc3tRRN1v4D-QWrpjllhsVkaG5aFI1DEgYL9hHQ,,,,,,,,,,,
,,,,,,,,,,,,,,a,1,0.929,space,0.372,0,157,157,117,1,0_targ_1_dist_red/trial18.png,,,0,1,redHorizontal,a,59,52,female,2021-02-22_15h22.11.487,exp11,2020.2.6,Win32,60,IwAR0V_vrpRGxMeSnFFgdNgc3tRRN1v4D-QWrpjllhsVkaG5aFI1DEgYL9hHQ,,,,,,,,,,,
,,,,,,,,,,,,,,a,1,0.986,space,0.318,0,158,158,141,1,0_targ_4_dist_red/trial17.png,,,0,4,redHorizontal,a,59,52,female,2021-02-22_15h22.11.487,exp11,2020.2.6,Win32,60,IwAR0V_vrpRGxMeSnFFgdNgc3tRRN1v4D-QWrpjllhsVkaG5aFI1DEgYL9hHQ,,,,,,,,,,,
,,,,,,,,,,,,,,a,1,0.979,space,0.369,0,159,159,173,1,0_targ_10_dist_red/trial24.png,,,0,10,redHorizontal,a,59,52,female,2021-02-22_15h22.11.487,exp11,2020.2.6,Win32,60,IwAR0V_vrpRGxMeSnFFgdNgc3tRRN1v4D-QWrpjllhsVkaG5aFI1DEgYL9hHQ,,,,,,,,,,,
,,,,,,,,,,,,,,p,1,0.999,space,0.185,0,160,160,27,1,3_dist_red/trial3.png,,,1,3,redHorizontal,p,59,52,female,2021-02-22_15h22.11.487,exp11,2020.2.6,Win32,60,IwAR0V_vrpRGxMeSnFFgdNgc3tRRN1v4D-QWrpjllhsVkaG5aFI1DEgYL9hHQ,,,,,,,,,,,
,,,,,,,,,,,,,,a,1,1.213,space,0.323,0,161,161,154,1,0_targ_10_dist_red/trial5.png,,,0,10,redHorizontal,a,59,52,female,2021-02-22_15h22.11.487,exp11,2020.2.6,Win32,60,IwAR0V_vrpRGxMeSnFFgdNgc3tRRN1v4D-QWrpjllhsVkaG5aFI1DEgYL9hHQ,,,,,,,,,,,
,,,,,,,,,,,,,,a,1,1.281,space,0.336,0,162,162,105,1,0_targ_1_dist_red/trial6.png,,,0,1,redHorizontal,a,59,52,female,2021-02-22_15h22.11.487,exp11,2020.2.6,Win32,60,IwAR0V_vrpRGxMeSnFFgdNgc3tRRN1v4D-QWrpjllhsVkaG5aFI1DEgYL9hHQ,,,,,,,,,,,
,,,,,,,,,,,,,,p,1,2.719,space,0.115,0,163,163,95,1,15_dist_red/trial21.png,,,1,15,redHorizontal,p,59,52,female,2021-02-22_15h22.11.487,exp11,2020.2.6,Win32,60,IwAR0V_vrpRGxMeSnFFgdNgc3tRRN1v4D-QWrpjllhsVkaG5aFI1DEgYL9hHQ,,,,,,,,,,,
,,,,,,,,,,,,,,a,1,1.282,space,0.254,0,164,164,189,1,0_targ_16_dist_red/trial15.png,,,0,16,redHorizontal,a,59,52,female,2021-02-22_15h22.11.487,exp11,2020.2.6,Win32,60,IwAR0V_vrpRGxMeSnFFgdNgc3tRRN1v4D-QWrpjllhsVkaG5aFI1DEgYL9hHQ,,,,,,,,,,,
,,,,,,,,,,,,,,a,1,1.101,space,0.284,0,165,165,168,1,0_targ_10_dist_red/trial19.png,,,0,10,redHorizontal,a,59,52,female,2021-02-22_15h22.11.487,exp11,2020.2.6,Win32,60,IwAR0V_vrpRGxMeSnFFgdNgc3tRRN1v4D-QWrpjllhsVkaG5aFI1DEgYL9hHQ,,,,,,,,,,,
,,,,,,,,,,,,,,a,1,1.122,space,0.323,0,166,166,103,1,0_targ_1_dist_red/trial4.png,,,0,1,redHorizontal,a,59,52,female,2021-02-22_15h22.11.487,exp11,2020.2.6,Win32,60,IwAR0V_vrpRGxMeSnFFgdNgc3tRRN1v4D-QWrpjllhsVkaG5aFI1DEgYL9hHQ,,,,,,,,,,,
,,,,,,,,,,,,,,a,1,1.051,space,0.338,0,167,167,138,1,0_targ_4_dist_red/trial14.png,,,0,4,redHorizontal,a,59,52,female,2021-02-22_15h22.11.487,exp11,2020.2.6,Win32,60,IwAR0V_vrpRGxMeSnFFgdNgc3tRRN1v4D-QWrpjllhsVkaG5aFI1DEgYL9hHQ,,,,,,,,,,,
,,,,,,,,,,,,,,p,1,1.357,space,0.333,0,168,168,93,1,15_dist_red/trial19.png,,,1,15,redHorizontal,p,59,52,female,2021-02-22_15h22.11.487,exp11,2020.2.6,Win32,60,IwAR0V_vrpRGxMeSnFFgdNgc3tRRN1v4D-QWrpjllhsVkaG5aFI1DEgYL9hHQ,,,,,,,,,,,
,,,,,,,,,,,,,,p,1,0.748,space,0.188,0,169,169,45,1,3_dist_red/trial21.png,,,1,3,redHorizontal,p,59,52,female,2021-02-22_15h22.11.487,exp11,2020.2.6,Win32,60,IwAR0V_vrpRGxMeSnFFgdNgc3tRRN1v4D-QWrpjllhsVkaG5aFI1DEgYL9hHQ,,,,,,,,,,,
,,,,,,,,,,,,,,p,1,0.912,space,0.184,0,170,170,57,1,9_dist_red/trial8.png,,,1,9,redHorizontal,p,59,52,female,2021-02-22_15h22.11.487,exp11,2020.2.6,Win32,60,IwAR0V_vrpRGxMeSnFFgdNgc3tRRN1v4D-QWrpjllhsVkaG5aFI1DEgYL9hHQ,,,,,,,,,,,
,,,,,,,,,,,,,,a,1,1.207,space,0.267,0,171,171,140,1,0_targ_4_dist_red/trial6.png,,,0,4,redHorizontal,a,59,52,female,2021-02-22_15h22.11.487,exp11,2020.2.6,Win32,60,IwAR0V_vrpRGxMeSnFFgdNgc3tRRN1v4D-QWrpjllhsVkaG5aFI1DEgYL9hHQ,,,,,,,,,,,
,,,,,,,,,,,,,,a,1,0.916,space,1.221,0,172,172,115,1,0_targ_1_dist_red/trial6.png,,,0,1,redHorizontal,a,59,52,female,2021-02-22_15h22.11.487,exp11,2020.2.6,Win32,60,IwAR0V_vrpRGxMeSnFFgdNgc3tRRN1v4D-QWrpjllhsVkaG5aFI1DEgYL9hHQ,,,,,,,,,,,
,,,,,,,,,,,,,,a,1,1.333,space,0.351,0,173,173,186,1,0_targ_16_dist_red/trial12.png,,,0,16,redHorizontal,a,59,52,female,2021-02-22_15h22.11.487,exp11,2020.2.6,Win32,60,IwAR0V_vrpRGxMeSnFFgdNgc3tRRN1v4D-QWrpjllhsVkaG5aFI1DEgYL9hHQ,,,,,,,,,,,
,,,,,,,,,,,,,,a,1,0.934,space,0.321,0,174,174,148,1,0_targ_4_dist_red/trial24.png,,,0,4,redHorizontal,a,59,52,female,2021-02-22_15h22.11.487,exp11,2020.2.6,Win32,60,IwAR0V_vrpRGxMeSnFFgdNgc3tRRN1v4D-QWrpjllhsVkaG5aFI1DEgYL9hHQ,,,,,,,,,,,
,,,,,,,,,,,,,,a,1,0.805,space,0.318,0,175,175,104,1,0_targ_1_dist_red/trial5.png,,,0,1,redHorizontal,a,59,52,female,2021-02-22_15h22.11.487,exp11,2020.2.6,Win32,60,IwAR0V_vrpRGxMeSnFFgdNgc3tRRN1v4D-QWrpjllhsVkaG5aFI1DEgYL9hHQ,,,,,,,,,,,
,,,,,,,,,,,,,,p,1,0.937,space,0.168,0,176,176,15,1,0_dist_red/trial16.png,,,1,0,redHorizontal,p,59,52,female,2021-02-22_15h22.11.487,exp11,2020.2.6,Win32,60,IwAR0V_vrpRGxMeSnFFgdNgc3tRRN1v4D-QWrpjllhsVkaG5aFI1DEgYL9hHQ,,,,,,,,,,,
,,,,,,,,,,,,,,p,1,0.484,space,0.122,0,177,177,2,1,0_dist_red/trial3.png,,,1,0,redHorizontal,p,59,52,female,2021-02-22_15h22.11.487,exp11,2020.2.6,Win32,60,IwAR0V_vrpRGxMeSnFFgdNgc3tRRN1v4D-QWrpjllhsVkaG5aFI1DEgYL9hHQ,,,,,,,,,,,
,,,,,,,,,,,,,,p,1,0.897,space,0.162,0,178,178,84,1,15_dist_red/trial10.png,,,1,15,redHorizontal,p,59,52,female,2021-02-22_15h22.11.487,exp11,2020.2.6,Win32,60,IwAR0V_vrpRGxMeSnFFgdNgc3tRRN1v4D-QWrpjllhsVkaG5aFI1DEgYL9hHQ,,,,,,,,,,,
,,,,,,,,,,,,,,p,1,0.633,space,0.137,0,179,179,62,1,9_dist_red/trial13.png,,,1,9,redHorizontal,p,59,52,female,2021-02-22_15h22.11.487,exp11,2020.2.6,Win32,60,IwAR0V_vrpRGxMeSnFFgdNgc3tRRN1v4D-QWrpjllhsVkaG5aFI1DEgYL9hHQ,,,,,,,,,,,
,,,,,,,,,,,,,,p,1,0.675,space,0.136,0,180,180,39,1,3_dist_red/trial15.png,,,1,3,redHorizontal,p,59,52,female,2021-02-22_15h22.11.487,exp11,2020.2.6,Win32,60,IwAR0V_vrpRGxMeSnFFgdNgc3tRRN1v4D-QWrpjllhsVkaG5aFI1DEgYL9hHQ,,,,,,,,,,,
,,,,,,,,,,,,,,a,1,1.24,space,0.368,0,181,181,193,1,0_targ_16_dist_red/trial19.png,,,0,16,redHorizontal,a,59,52,female,2021-02-22_15h22.11.487,exp11,2020.2.6,Win32,60,IwAR0V_vrpRGxMeSnFFgdNgc3tRRN1v4D-QWrpjllhsVkaG5aFI1DEgYL9hHQ,,,,,,,,,,,
,,,,,,,,,,,,,,p,1,0.699,space,0.205,0,182,182,18,1,0_dist_red/trial19.png,,,1,0,redHorizontal,p,59,52,female,2021-02-22_15h22.11.487,exp11,2020.2.6,Win32,60,IwAR0V_vrpRGxMeSnFFgdNgc3tRRN1v4D-QWrpjllhsVkaG5aFI1DEgYL9hHQ,,,,,,,,,,,
,,,,,,,,,,,,,,p,1,0.497,space,0.168,0,183,183,24,1,0_dist_red/trial25.png,,,1,0,redHorizontal,p,59,52,female,2021-02-22_15h22.11.487,exp11,2020.2.6,Win32,60,IwAR0V_vrpRGxMeSnFFgdNgc3tRRN1v4D-QWrpjllhsVkaG5aFI1DEgYL9hHQ,,,,,,,,,,,
,,,,,,,,,,,,,,a,1,0.916,space,0.335,0,184,184,172,1,0_targ_10_dist_red/trial23.png,,,0,10,redHorizontal,a,59,52,female,2021-02-22_15h22.11.487,exp11,2020.2.6,Win32,60,IwAR0V_vrpRGxMeSnFFgdNgc3tRRN1v4D-QWrpjllhsVkaG5aFI1DEgYL9hHQ,,,,,,,,,,,
,,,,,,,,,,,,,,p,1,0.533,space,0.168,0,185,185,43,1,3_dist_red/trial19.png,,,1,3,redHorizontal,p,59,52,female,2021-02-22_15h22.11.487,exp11,2020.2.6,Win32,60,IwAR0V_vrpRGxMeSnFFgdNgc3tRRN1v4D-QWrpjllhsVkaG5aFI1DEgYL9hHQ,,,,,,,,,,,
,,,,,,,,,,,,,,p,1,1.055,space,0.29,0,186,186,31,1,3_dist_red/trial7.png,,,1,3,redHorizontal,p,59,52,female,2021-02-22_15h22.11.487,exp11,2020.2.6,Win32,60,IwAR0V_vrpRGxMeSnFFgdNgc3tRRN1v4D-QWrpjllhsVkaG5aFI1DEgYL9hHQ,,,,,,,,,,,
,,,,,,,,,,,,,,a,1,1.12,space,0.337,0,187,187,163,1,0_targ_10_dist_red/trial14.png,,,0,10,redHorizontal,a,59,52,female,2021-02-22_15h22.11.487,exp11,2020.2.6,Win32,60,IwAR0V_vrpRGxMeSnFFgdNgc3tRRN1v4D-QWrpjllhsVkaG5aFI1DEgYL9hHQ,,,,,,,,,,,
,,,,,,,,,,,,,,a,1,0.996,space,0.32,0,188,188,183,1,0_targ_16_dist_red/trial9.png,,,0,16,redHorizontal,a,59,52,female,2021-02-22_15h22.11.487,exp11,2020.2.6,Win32,60,IwAR0V_vrpRGxMeSnFFgdNgc3tRRN1v4D-QWrpjllhsVkaG5aFI1DEgYL9hHQ,,,,,,,,,,,
,,,,,,,,,,,,,,a,1,1.045,space,0.319,0,189,189,143,1,0_targ_4_dist_red/trial19.png,,,0,4,redHorizontal,a,59,52,female,2021-02-22_15h22.11.487,exp11,2020.2.6,Win32,60,IwAR0V_vrpRGxMeSnFFgdNgc3tRRN1v4D-QWrpjllhsVkaG5aFI1DEgYL9hHQ,,,,,,,,,,,
,,,,,,,,,,,,,,p,1,1.095,space,0.142,0,190,190,99,1,15_dist_red/trial25.png,,,1,15,redHorizontal,p,59,52,female,2021-02-22_15h22.11.487,exp11,2020.2.6,Win32,60,IwAR0V_vrpRGxMeSnFFgdNgc3tRRN1v4D-QWrpjllhsVkaG5aFI1DEgYL9hHQ,,,,,,,,,,,
,,,,,,,,,,,,,,a,1,1.216,space,0.251,0,191,191,113,1,0_targ_1_dist_red/trial14.png,,,0,1,redHorizontal,a,59,52,female,2021-02-22_15h22.11.487,exp11,2020.2.6,Win32,60,IwAR0V_vrpRGxMeSnFFgdNgc3tRRN1v4D-QWrpjllhsVkaG5aFI1DEgYL9hHQ,,,,,,,,,,,
,,,,,,,,,,,,,,p,1,0.705,space,0.201,0,192,192,83,1,15_dist_red/trial9.png,,,1,15,redHorizontal,p,59,52,female,2021-02-22_15h22.11.487,exp11,2020.2.6,Win32,60,IwAR0V_vrpRGxMeSnFFgdNgc3tRRN1v4D-QWrpjllhsVkaG5aFI1DEgYL9hHQ,,,,,,,,,,,
,,,,,,,,,,,,,,p,1,1.392,space,0.271,0,193,193,90,1,15_dist_red/trial16.png,,,1,15,redHorizontal,p,59,52,female,2021-02-22_15h22.11.487,exp11,2020.2.6,Win32,60,IwAR0V_vrpRGxMeSnFFgdNgc3tRRN1v4D-QWrpjllhsVkaG5aFI1DEgYL9hHQ,,,,,,,,,,,
,,,,,,,,,,,,,,p,1,0.933,space,0.192,0,194,194,58,1,9_dist_red/trial9.png,,,1,9,redHorizontal,p,59,52,female,2021-02-22_15h22.11.487,exp11,2020.2.6,Win32,60,IwAR0V_vrpRGxMeSnFFgdNgc3tRRN1v4D-QWrpjllhsVkaG5aFI1DEgYL9hHQ,,,,,,,,,,,
,,,,,,,,,,,,,,p,1,0.661,space,0.12,0,195,195,12,1,0_dist_red/trial13.png,,,1,0,redHorizontal,p,59,52,female,2021-02-22_15h22.11.487,exp11,2020.2.6,Win32,60,IwAR0V_vrpRGxMeSnFFgdNgc3tRRN1v4D-QWrpjllhsVkaG5aFI1DEgYL9hHQ,,,,,,,,,,,
,,,,,,,,,,,,,,a,1,3.164,space,0.985,0,196,196,169,1,0_targ_10_dist_red/trial20.png,,,0,10,redHorizontal,a,59,52,female,2021-02-22_15h22.11.487,exp11,2020.2.6,Win32,60,IwAR0V_vrpRGxMeSnFFgdNgc3tRRN1v4D-QWrpjllhsVkaG5aFI1DEgYL9hHQ,,,,,,,,,,,
,,,,,,,,,,,,,,a,1,1.19,space,0.309,0,197,197,185,1,0_targ_16_dist_red/trial11.png,,,0,16,redHorizontal,a,59,52,female,2021-02-22_15h22.11.487,exp11,2020.2.6,Win32,60,IwAR0V_vrpRGxMeSnFFgdNgc3tRRN1v4D-QWrpjllhsVkaG5aFI1DEgYL9hHQ,,,,,,,,,,,
,,,,,,,,,,,,,,p,0,0.702,space,1.735,0,198,198,120,1,0_targ_1_dist_red/trial21.png,,,0,1,redHorizontal,a,59,52,female,2021-02-22_15h22.11.487,exp11,2020.2.6,Win32,60,IwAR0V_vrpRGxMeSnFFgdNgc3tRRN1v4D-QWrpjllhsVkaG5aFI1DEgYL9hHQ,,,,,,,,,,,
,,,,,,,,,,,,,,p,1,1.333,space,0.416,0,199,199,16,1,0_dist_red/trial17.png,,,1,0,redHorizontal,p,59,52,female,2021-02-22_15h22.11.487,exp11,2020.2.6,Win32,60,IwAR0V_vrpRGxMeSnFFgdNgc3tRRN1v4D-QWrpjllhsVkaG5aFI1DEgYL9hHQ,,,,,,,,,,,
,,,,,,,,,,,,,,,,,,,,,,,,,,,,,,,59,52,female,2021-02-22_15h22.11.487,exp11,2020.2.6,Win32,60,IwAR0V_vrpRGxMeSnFFgdNgc3tRRN1v4D-QWrpjllhsVkaG5aFI1DEgYL9hHQ,0,1,1,1,1,conRed.xlsx,red horizontal,Look for red horizontal bar (target) and indicate if it is present or absent in the array. If red horizontal target is present press 'p' and if absent press 'a'. Press SPACE to start.,,,
