key_resp_6.keys,key_resp_6.rt,key_resp_7.keys,key_resp_7.rt,key_resp_8.keys,key_resp_8.rt,key_resp_10.keys,key_resp_10.rt,key_resp_9.keys,key_resp_9.rt,key_resp_3.keys,key_resp_3.rt,key_resp_5.keys,key_resp_5.rt,key_resp.keys,key_resp.corr,key_resp.rt,key_resp_4.keys,key_resp_4.rt,trials.thisRepN,trials.thisTrialN,trials.thisN,trials.thisIndex,trials.ran,ImageFile,tarPos,tarSize,targPres,numDist,targetName,correctAns,participant,age,sex,date,expName,psychopyVersion,OS,frameRate,trials_2.thisRepN,trials_2.thisTrialN,trials_2.thisN,trials_2.thisIndex,trials_2.ran,condsFile,targName,instructionText,colTarget,sizeTarg,posit
space,1.283,space,0.37,space,0.773,space,0.339,space,0.338,space,0.422,space,17.283,a,1,7.174,space,4.77,0,0,0,118,1,0_targ_1_dist_red/trial19.png,,,0,1,redHorizontal,a,64,24,M,2021-02-20_12h19.23.511,exp11,2020.2.6,MacIntel,60,,,,,,,,,,,
,,,,,,,,,,,,,,a,1,2.407,space,0.504,0,1,1,173,1,0_targ_10_dist_red/trial24.png,,,0,10,redHorizontal,a,64,24,M,2021-02-20_12h19.23.511,exp11,2020.2.6,MacIntel,60,,,,,,,,,,,
,,,,,,,,,,,,,,a,1,1.859,space,0.156,0,2,2,175,1,0_targ_16_dist_red/trial1.png,,,0,16,redHorizontal,a,64,24,M,2021-02-20_12h19.23.511,exp11,2020.2.6,MacIntel,60,,,,,,,,,,,
,,,,,,,,,,,,,,a,1,0.666,space,0.083,0,3,3,101,1,0_targ_1_dist_red/trial2.png,,,0,1,redHorizontal,a,64,24,M,2021-02-20_12h19.23.511,exp11,2020.2.6,MacIntel,60,,,,,,,,,,,
,,,,,,,,,,,,,,a,0,0.655,space,3.989,0,4,4,70,1,9_dist_red/trial21.png,,,1,9,redHorizontal,p,64,24,M,2021-02-20_12h19.23.511,exp11,2020.2.6,MacIntel,60,,,,,,,,,,,
,,,,,,,,,,,,,,a,0,2.535,space,3.229,0,5,5,58,1,9_dist_red/trial9.png,,,1,9,redHorizontal,p,64,24,M,2021-02-20_12h19.23.511,exp11,2020.2.6,MacIntel,60,,,,,,,,,,,
,,,,,,,,,,,,,,p,1,10.765,space,2.099,0,6,6,81,1,15_dist_red/trial7.png,,,1,15,redHorizontal,p,64,24,M,2021-02-20_12h19.23.511,exp11,2020.2.6,MacIntel,60,,,,,,,,,,,
,,,,,,,,,,,,,,a,1,3.377,space,0.153,0,7,7,145,1,0_targ_4_dist_red/trial21.png,,,0,4,redHorizontal,a,64,24,M,2021-02-20_12h19.23.511,exp11,2020.2.6,MacIntel,60,,,,,,,,,,,
,,,,,,,,,,,,,,a,0,1.381,space,4.158,0,8,8,89,1,15_dist_red/trial15.png,,,1,15,redHorizontal,p,64,24,M,2021-02-20_12h19.23.511,exp11,2020.2.6,MacIntel,60,,,,,,,,,,,
,,,,,,,,,,,,,,a,1,1.909,space,0.294,0,9,9,133,1,0_targ_4_dist_red/trial9.png,,,0,4,redHorizontal,a,64,24,M,2021-02-20_12h19.23.511,exp11,2020.2.6,MacIntel,60,,,,,,,,,,,
,,,,,,,,,,,,,,a,1,1.561,space,0.106,0,10,10,197,1,0_targ_16_dist_red/trial23.png,,,0,16,redHorizontal,a,64,24,M,2021-02-20_12h19.23.511,exp11,2020.2.6,MacIntel,60,,,,,,,,,,,
,,,,,,,,,,,,,,a,1,0.908,space,0.089,0,11,11,122,1,0_targ_1_dist_red/trial23.png,,,0,1,redHorizontal,a,64,24,M,2021-02-20_12h19.23.511,exp11,2020.2.6,MacIntel,60,,,,,,,,,,,
,,,,,,,,,,,,,,a,1,0.561,space,0.077,0,12,12,142,1,0_targ_4_dist_red/trial18.png,,,0,4,redHorizontal,a,64,24,M,2021-02-20_12h19.23.511,exp11,2020.2.6,MacIntel,60,,,,,,,,,,,
,,,,,,,,,,,,,,a,1,0.63,space,0.088,0,13,13,116,1,0_targ_1_dist_red/trial17.png,,,0,1,redHorizontal,a,64,24,M,2021-02-20_12h19.23.511,exp11,2020.2.6,MacIntel,60,,,,,,,,,,,
,,,,,,,,,,,,,,p,1,0.795,space,0.207,0,14,14,13,1,0_dist_red/trial14.png,,,1,0,redHorizontal,p,64,24,M,2021-02-20_12h19.23.511,exp11,2020.2.6,MacIntel,60,,,,,,,,,,,
,,,,,,,,,,,,,,a,1,0.512,space,0.153,0,15,15,114,1,0_targ_1_dist_red/trial15.png,,,0,1,redHorizontal,a,64,24,M,2021-02-20_12h19.23.511,exp11,2020.2.6,MacIntel,60,,,,,,,,,,,
,,,,,,,,,,,,,,a,1,1.042,space,0.503,0,16,16,166,1,0_targ_10_dist_red/trial17.png,,,0,10,redHorizontal,a,64,24,M,2021-02-20_12h19.23.511,exp11,2020.2.6,MacIntel,60,,,,,,,,,,,
,,,,,,,,,,,,,,a,1,1.14,space,0.125,0,17,17,190,1,0_targ_16_dist_red/trial16.png,,,0,16,redHorizontal,a,64,24,M,2021-02-20_12h19.23.511,exp11,2020.2.6,MacIntel,60,,,,,,,,,,,
,,,,,,,,,,,,,,p,1,0.779,space,0.202,0,18,18,16,1,0_dist_red/trial17.png,,,1,0,redHorizontal,p,64,24,M,2021-02-20_12h19.23.511,exp11,2020.2.6,MacIntel,60,,,,,,,,,,,
,,,,,,,,,,,,,,p,1,0.542,space,0.272,0,19,19,14,1,0_dist_red/trial15.png,,,1,0,redHorizontal,p,64,24,M,2021-02-20_12h19.23.511,exp11,2020.2.6,MacIntel,60,,,,,,,,,,,
,,,,,,,,,,,,,,a,1,0.564,space,0.156,0,20,20,110,1,0_targ_1_dist_red/trial11.png,,,0,1,redHorizontal,a,64,24,M,2021-02-20_12h19.23.511,exp11,2020.2.6,MacIntel,60,,,,,,,,,,,
,,,,,,,,,,,,,,p,1,0.732,space,0.186,0,21,21,33,1,3_dist_red/trial9.png,,,1,3,redHorizontal,p,64,24,M,2021-02-20_12h19.23.511,exp11,2020.2.6,MacIntel,60,,,,,,,,,,,
,,,,,,,,,,,,,,a,1,0.601,space,0.139,0,22,22,141,1,0_targ_4_dist_red/trial17.png,,,0,4,redHorizontal,a,64,24,M,2021-02-20_12h19.23.511,exp11,2020.2.6,MacIntel,60,,,,,,,,,,,
,,,,,,,,,,,,,,a,1,0.631,space,0.121,0,23,23,158,1,0_targ_10_dist_red/trial9.png,,,0,10,redHorizontal,a,64,24,M,2021-02-20_12h19.23.511,exp11,2020.2.6,MacIntel,60,,,,,,,,,,,
,,,,,,,,,,,,,,p,1,0.858,space,0.215,0,24,24,21,1,0_dist_red/trial22.png,,,1,0,redHorizontal,p,64,24,M,2021-02-20_12h19.23.511,exp11,2020.2.6,MacIntel,60,,,,,,,,,,,
,,,,,,,,,,,,,,p,1,1.076,space,0.221,0,25,25,75,1,15_dist_red/trial1.png,,,1,15,redHorizontal,p,64,24,M,2021-02-20_12h19.23.511,exp11,2020.2.6,MacIntel,60,,,,,,,,,,,
,,,,,,,,,,,,,,p,1,0.738,space,0.555,0,26,26,88,1,15_dist_red/trial14.png,,,1,15,redHorizontal,p,64,24,M,2021-02-20_12h19.23.511,exp11,2020.2.6,MacIntel,60,,,,,,,,,,,
,,,,,,,,,,,,,,p,1,0.912,space,0.24,0,27,27,40,1,3_dist_red/trial16.png,,,1,3,redHorizontal,p,64,24,M,2021-02-20_12h19.23.511,exp11,2020.2.6,MacIntel,60,,,,,,,,,,,
,,,,,,,,,,,,,,p,1,0.918,space,0.223,0,28,28,34,1,3_dist_red/trial10.png,,,1,3,redHorizontal,p,64,24,M,2021-02-20_12h19.23.511,exp11,2020.2.6,MacIntel,60,,,,,,,,,,,
,,,,,,,,,,,,,,a,1,1.224,space,0.211,0,29,29,184,1,0_targ_16_dist_red/trial10.png,,,0,16,redHorizontal,a,64,24,M,2021-02-20_12h19.23.511,exp11,2020.2.6,MacIntel,60,,,,,,,,,,,
,,,,,,,,,,,,,,p,1,0.676,space,0.189,0,30,30,46,1,3_dist_red/trial22.png,,,1,3,redHorizontal,p,64,24,M,2021-02-20_12h19.23.511,exp11,2020.2.6,MacIntel,60,,,,,,,,,,,
,,,,,,,,,,,,,,p,1,0.557,space,0.211,0,31,31,23,1,0_dist_red/trial24.png,,,1,0,redHorizontal,p,64,24,M,2021-02-20_12h19.23.511,exp11,2020.2.6,MacIntel,60,,,,,,,,,,,
,,,,,,,,,,,,,,p,1,0.68,space,0.163,0,32,32,74,1,9_dist_red/trial25.png,,,1,9,redHorizontal,p,64,24,M,2021-02-20_12h19.23.511,exp11,2020.2.6,MacIntel,60,,,,,,,,,,,
,,,,,,,,,,,,,,a,1,0.548,space,0.279,0,33,33,178,1,0_targ_16_dist_red/trial4.png,,,0,16,redHorizontal,a,64,24,M,2021-02-20_12h19.23.511,exp11,2020.2.6,MacIntel,60,,,,,,,,,,,
,,,,,,,,,,,,,,p,1,0.512,space,0.222,0,34,34,57,1,9_dist_red/trial8.png,,,1,9,redHorizontal,p,64,24,M,2021-02-20_12h19.23.511,exp11,2020.2.6,MacIntel,60,,,,,,,,,,,
,,,,,,,,,,,,,,a,1,1.178,space,0.211,0,35,35,188,1,0_targ_16_dist_red/trial14.png,,,0,16,redHorizontal,a,64,24,M,2021-02-20_12h19.23.511,exp11,2020.2.6,MacIntel,60,,,,,,,,,,,
,,,,,,,,,,,,,,p,1,0.747,space,0.187,0,36,36,45,1,3_dist_red/trial21.png,,,1,3,redHorizontal,p,64,24,M,2021-02-20_12h19.23.511,exp11,2020.2.6,MacIntel,60,,,,,,,,,,,
,,,,,,,,,,,,,,a,1,0.712,space,0.176,0,37,37,109,1,0_targ_1_dist_red/trial10.png,,,0,1,redHorizontal,a,64,24,M,2021-02-20_12h19.23.511,exp11,2020.2.6,MacIntel,60,,,,,,,,,,,
,,,,,,,,,,,,,,p,1,0.72,space,0.22,0,38,38,42,1,3_dist_red/trial18.png,,,1,3,redHorizontal,p,64,24,M,2021-02-20_12h19.23.511,exp11,2020.2.6,MacIntel,60,,,,,,,,,,,
,,,,,,,,,,,,,,a,1,0.658,space,0.076,0,39,39,129,1,0_targ_4_dist_red/trial5.png,,,0,4,redHorizontal,a,64,24,M,2021-02-20_12h19.23.511,exp11,2020.2.6,MacIntel,60,,,,,,,,,,,
,,,,,,,,,,,,,,a,1,0.594,space,0.157,0,40,40,107,1,0_targ_1_dist_red/trial8.png,,,0,1,redHorizontal,a,64,24,M,2021-02-20_12h19.23.511,exp11,2020.2.6,MacIntel,60,,,,,,,,,,,
,,,,,,,,,,,,,,a,1,1.081,space,0.089,0,41,41,198,1,0_targ_16_dist_red/trial24.png,,,0,16,redHorizontal,a,64,24,M,2021-02-20_12h19.23.511,exp11,2020.2.6,MacIntel,60,,,,,,,,,,,
,,,,,,,,,,,,,,a,1,0.612,space,0.09,0,42,42,189,1,0_targ_16_dist_red/trial15.png,,,0,16,redHorizontal,a,64,24,M,2021-02-20_12h19.23.511,exp11,2020.2.6,MacIntel,60,,,,,,,,,,,
,,,,,,,,,,,,,,p,1,0.711,space,0.19,0,43,43,47,1,3_dist_red/trial23.png,,,1,3,redHorizontal,p,64,24,M,2021-02-20_12h19.23.511,exp11,2020.2.6,MacIntel,60,,,,,,,,,,,
,,,,,,,,,,,,,,a,1,1.059,space,0.09,0,44,44,183,1,0_targ_16_dist_red/trial9.png,,,0,16,redHorizontal,a,64,24,M,2021-02-20_12h19.23.511,exp11,2020.2.6,MacIntel,60,,,,,,,,,,,
,,,,,,,,,,,,,,p,1,0.498,space,0.209,0,45,45,71,1,9_dist_red/trial22.png,,,1,9,redHorizontal,p,64,24,M,2021-02-20_12h19.23.511,exp11,2020.2.6,MacIntel,60,,,,,,,,,,,
,,,,,,,,,,,,,,a,1,0.457,space,0.118,0,46,46,131,1,0_targ_4_dist_red/trial7.png,,,0,4,redHorizontal,a,64,24,M,2021-02-20_12h19.23.511,exp11,2020.2.6,MacIntel,60,,,,,,,,,,,
,,,,,,,,,,,,,,a,1,0.575,space,0.87,0,47,47,152,1,0_targ_10_dist_red/trial3.png,,,0,10,redHorizontal,a,64,24,M,2021-02-20_12h19.23.511,exp11,2020.2.6,MacIntel,60,,,,,,,,,,,
,,,,,,,,,,,,,,p,1,0.617,space,0.194,0,48,48,65,1,9_dist_red/trial16.png,,,1,9,redHorizontal,p,64,24,M,2021-02-20_12h19.23.511,exp11,2020.2.6,MacIntel,60,,,,,,,,,,,
,,,,,,,,,,,,,,a,1,0.904,space,0.237,0,49,49,117,1,0_targ_1_dist_red/trial18.png,,,0,1,redHorizontal,a,64,24,M,2021-02-20_12h19.23.511,exp11,2020.2.6,MacIntel,60,,,,,,,,,,,
,,,,,,,,,,,,,,p,1,0.629,space,0.206,0,50,50,51,1,9_dist_red/trial2.png,,,1,9,redHorizontal,p,64,24,M,2021-02-20_12h19.23.511,exp11,2020.2.6,MacIntel,60,,,,,,,,,,,
,,,,,,,,,,,,,,p,1,0.846,space,0.187,0,51,51,76,1,15_dist_red/trial2.png,,,1,15,redHorizontal,p,64,24,M,2021-02-20_12h19.23.511,exp11,2020.2.6,MacIntel,60,,,,,,,,,,,
,,,,,,,,,,,,,,a,1,0.464,space,0.107,0,52,52,103,1,0_targ_1_dist_red/trial4.png,,,0,1,redHorizontal,a,64,24,M,2021-02-20_12h19.23.511,exp11,2020.2.6,MacIntel,60,,,,,,,,,,,
,,,,,,,,,,,,,,p,0,0.414,space,0.327,0,53,53,171,1,0_targ_10_dist_red/trial22.png,,,0,10,redHorizontal,a,64,24,M,2021-02-20_12h19.23.511,exp11,2020.2.6,MacIntel,60,,,,,,,,,,,
,,,,,,,,,,,,,,p,1,1.278,space,0.723,0,54,54,62,1,9_dist_red/trial13.png,,,1,9,redHorizontal,p,64,24,M,2021-02-20_12h19.23.511,exp11,2020.2.6,MacIntel,60,,,,,,,,,,,
,,,,,,,,,,,,,,a,1,3.625,space,0.355,0,55,55,113,1,0_targ_1_dist_red/trial14.png,,,0,1,redHorizontal,a,64,24,M,2021-02-20_12h19.23.511,exp11,2020.2.6,MacIntel,60,,,,,,,,,,,
,,,,,,,,,,,,,,p,1,0.759,space,0.193,0,56,56,63,1,9_dist_red/trial14.png,,,1,9,redHorizontal,p,64,24,M,2021-02-20_12h19.23.511,exp11,2020.2.6,MacIntel,60,,,,,,,,,,,
,,,,,,,,,,,,,,a,1,1.444,space,0.459,0,57,57,127,1,0_targ_4_dist_red/trial3.png,,,0,4,redHorizontal,a,64,24,M,2021-02-20_12h19.23.511,exp11,2020.2.6,MacIntel,60,,,,,,,,,,,
,,,,,,,,,,,,,,p,1,0.828,space,0.229,0,58,58,11,1,0_dist_red/trial12.png,,,1,0,redHorizontal,p,64,24,M,2021-02-20_12h19.23.511,exp11,2020.2.6,MacIntel,60,,,,,,,,,,,
,,,,,,,,,,,,,,p,1,0.812,space,0.222,0,59,59,48,1,3_dist_red/trial24.png,,,1,3,redHorizontal,p,64,24,M,2021-02-20_12h19.23.511,exp11,2020.2.6,MacIntel,60,,,,,,,,,,,
,,,,,,,,,,,,,,a,1,0.599,space,0.12,0,60,60,146,1,0_targ_4_dist_red/trial22.png,,,0,4,redHorizontal,a,64,24,M,2021-02-20_12h19.23.511,exp11,2020.2.6,MacIntel,60,,,,,,,,,,,
,,,,,,,,,,,,,,p,1,0.675,space,0.196,0,61,61,44,1,3_dist_red/trial20.png,,,1,3,redHorizontal,p,64,24,M,2021-02-20_12h19.23.511,exp11,2020.2.6,MacIntel,60,,,,,,,,,,,
,,,,,,,,,,,,,,a,1,0.677,space,0.126,0,62,62,161,1,0_targ_10_dist_red/trial12.png,,,0,10,redHorizontal,a,64,24,M,2021-02-20_12h19.23.511,exp11,2020.2.6,MacIntel,60,,,,,,,,,,,
,,,,,,,,,,,,,,a,1,0.896,space,0.421,0,63,63,157,1,0_targ_10_dist_red/trial8.png,,,0,10,redHorizontal,a,64,24,M,2021-02-20_12h19.23.511,exp11,2020.2.6,MacIntel,60,,,,,,,,,,,
,,,,,,,,,,,,,,p,1,0.606,space,0.21,0,64,64,87,1,15_dist_red/trial13.png,,,1,15,redHorizontal,p,64,24,M,2021-02-20_12h19.23.511,exp11,2020.2.6,MacIntel,60,,,,,,,,,,,
,,,,,,,,,,,,,,a,1,0.63,space,0.289,0,65,65,140,1,0_targ_4_dist_red/trial6.png,,,0,4,redHorizontal,a,64,24,M,2021-02-20_12h19.23.511,exp11,2020.2.6,MacIntel,60,,,,,,,,,,,
,,,,,,,,,,,,,,a,1,0.462,space,0.14,0,66,66,149,1,0_targ_4_dist_red/trial25.png,,,0,4,redHorizontal,a,64,24,M,2021-02-20_12h19.23.511,exp11,2020.2.6,MacIntel,60,,,,,,,,,,,
,,,,,,,,,,,,,,p,1,0.954,space,0.204,0,67,67,91,1,15_dist_red/trial17.png,,,1,15,redHorizontal,p,64,24,M,2021-02-20_12h19.23.511,exp11,2020.2.6,MacIntel,60,,,,,,,,,,,
,,,,,,,,,,,,,,a,1,0.412,space,0.375,0,68,68,105,1,0_targ_1_dist_red/trial6.png,,,0,1,redHorizontal,a,64,24,M,2021-02-20_12h19.23.511,exp11,2020.2.6,MacIntel,60,,,,,,,,,,,
,,,,,,,,,,,,,,a,1,0.498,space,0.207,0,69,69,168,1,0_targ_10_dist_red/trial19.png,,,0,10,redHorizontal,a,64,24,M,2021-02-20_12h19.23.511,exp11,2020.2.6,MacIntel,60,,,,,,,,,,,
,,,,,,,,,,,,,,p,1,0.693,space,0.205,0,70,70,8,1,0_dist_red/trial9.png,,,1,0,redHorizontal,p,64,24,M,2021-02-20_12h19.23.511,exp11,2020.2.6,MacIntel,60,,,,,,,,,,,
,,,,,,,,,,,,,,p,1,0.661,space,0.205,0,71,71,28,1,3_dist_red/trial4.png,,,1,3,redHorizontal,p,64,24,M,2021-02-20_12h19.23.511,exp11,2020.2.6,MacIntel,60,,,,,,,,,,,
,,,,,,,,,,,,,,a,1,0.779,space,0.148,0,72,72,181,1,0_targ_16_dist_red/trial7.png,,,0,16,redHorizontal,a,64,24,M,2021-02-20_12h19.23.511,exp11,2020.2.6,MacIntel,60,,,,,,,,,,,
,,,,,,,,,,,,,,a,1,0.649,space,0.146,0,73,73,165,1,0_targ_10_dist_red/trial16.png,,,0,10,redHorizontal,a,64,24,M,2021-02-20_12h19.23.511,exp11,2020.2.6,MacIntel,60,,,,,,,,,,,
,,,,,,,,,,,,,,a,1,0.484,space,0.138,0,74,74,100,1,0_targ_1_dist_red/trial1.png,,,0,1,redHorizontal,a,64,24,M,2021-02-20_12h19.23.511,exp11,2020.2.6,MacIntel,60,,,,,,,,,,,
,,,,,,,,,,,,,,a,1,0.495,space,0.109,0,75,75,180,1,0_targ_16_dist_red/trial6.png,,,0,16,redHorizontal,a,64,24,M,2021-02-20_12h19.23.511,exp11,2020.2.6,MacIntel,60,,,,,,,,,,,
,,,,,,,,,,,,,,p,1,0.815,space,0.205,0,76,76,36,1,3_dist_red/trial12.png,,,1,3,redHorizontal,p,64,24,M,2021-02-20_12h19.23.511,exp11,2020.2.6,MacIntel,60,,,,,,,,,,,
,,,,,,,,,,,,,,p,1,0.992,space,0.204,0,77,77,77,1,15_dist_red/trial3.png,,,1,15,redHorizontal,p,64,24,M,2021-02-20_12h19.23.511,exp11,2020.2.6,MacIntel,60,,,,,,,,,,,
,,,,,,,,,,,,,,a,1,0.506,space,0.092,0,78,78,119,1,0_targ_1_dist_red/trial20.png,,,0,1,redHorizontal,a,64,24,M,2021-02-20_12h19.23.511,exp11,2020.2.6,MacIntel,60,,,,,,,,,,,
,,,,,,,,,,,,,,p,1,0.674,space,0.58,0,79,79,54,1,9_dist_red/trial5.png,,,1,9,redHorizontal,p,64,24,M,2021-02-20_12h19.23.511,exp11,2020.2.6,MacIntel,60,,,,,,,,,,,
,,,,,,,,,,,,,,p,1,0.644,space,0.239,0,80,80,73,1,9_dist_red/trial24.png,,,1,9,redHorizontal,p,64,24,M,2021-02-20_12h19.23.511,exp11,2020.2.6,MacIntel,60,,,,,,,,,,,
,,,,,,,,,,,,,,p,1,0.745,space,0.206,0,81,81,20,1,0_dist_red/trial21.png,,,1,0,redHorizontal,p,64,24,M,2021-02-20_12h19.23.511,exp11,2020.2.6,MacIntel,60,,,,,,,,,,,
,,,,,,,,,,,,,,p,1,0.264,space,0.391,0,82,82,32,1,3_dist_red/trial8.png,,,1,3,redHorizontal,p,64,24,M,2021-02-20_12h19.23.511,exp11,2020.2.6,MacIntel,60,,,,,,,,,,,
,,,,,,,,,,,,,,a,1,0.841,space,0.179,0,83,83,154,1,0_targ_10_dist_red/trial5.png,,,0,10,redHorizontal,a,64,24,M,2021-02-20_12h19.23.511,exp11,2020.2.6,MacIntel,60,,,,,,,,,,,
,,,,,,,,,,,,,,a,1,0.536,space,0.138,0,84,84,108,1,0_targ_1_dist_red/trial9.png,,,0,1,redHorizontal,a,64,24,M,2021-02-20_12h19.23.511,exp11,2020.2.6,MacIntel,60,,,,,,,,,,,
,,,,,,,,,,,,,,p,1,0.545,space,0.221,0,85,85,15,1,0_dist_red/trial16.png,,,1,0,redHorizontal,p,64,24,M,2021-02-20_12h19.23.511,exp11,2020.2.6,MacIntel,60,,,,,,,,,,,
,,,,,,,,,,,,,,a,1,0.662,space,0.087,0,86,86,186,1,0_targ_16_dist_red/trial12.png,,,0,16,redHorizontal,a,64,24,M,2021-02-20_12h19.23.511,exp11,2020.2.6,MacIntel,60,,,,,,,,,,,
,,,,,,,,,,,,,,a,1,0.474,space,0.199,0,87,87,179,1,0_targ_16_dist_red/trial5.png,,,0,16,redHorizontal,a,64,24,M,2021-02-20_12h19.23.511,exp11,2020.2.6,MacIntel,60,,,,,,,,,,,
,,,,,,,,,,,,,,a,1,0.726,space,0.078,0,88,88,121,1,0_targ_1_dist_red/trial22.png,,,0,1,redHorizontal,a,64,24,M,2021-02-20_12h19.23.511,exp11,2020.2.6,MacIntel,60,,,,,,,,,,,
,,,,,,,,,,,,,,a,1,1.035,space,0.128,0,89,89,196,1,0_targ_16_dist_red/trial22.png,,,0,16,redHorizontal,a,64,24,M,2021-02-20_12h19.23.511,exp11,2020.2.6,MacIntel,60,,,,,,,,,,,
,,,,,,,,,,,,,,p,1,0.668,space,0.209,0,90,90,67,1,9_dist_red/trial18.png,,,1,9,redHorizontal,p,64,24,M,2021-02-20_12h19.23.511,exp11,2020.2.6,MacIntel,60,,,,,,,,,,,
,,,,,,,,,,,,,,a,1,0.552,space,0.109,0,91,91,128,1,0_targ_4_dist_red/trial4.png,,,0,4,redHorizontal,a,64,24,M,2021-02-20_12h19.23.511,exp11,2020.2.6,MacIntel,60,,,,,,,,,,,
,,,,,,,,,,,,,,p,1,0.362,space,0.708,0,92,92,49,1,3_dist_red/trial25.png,,,1,3,redHorizontal,p,64,24,M,2021-02-20_12h19.23.511,exp11,2020.2.6,MacIntel,60,,,,,,,,,,,
,,,,,,,,,,,,,,p,1,0.846,space,0.205,0,93,93,38,1,3_dist_red/trial14.png,,,1,3,redHorizontal,p,64,24,M,2021-02-20_12h19.23.511,exp11,2020.2.6,MacIntel,60,,,,,,,,,,,
,,,,,,,,,,,,,,p,1,0.649,space,0.57,0,94,94,61,1,9_dist_red/trial12.png,,,1,9,redHorizontal,p,64,24,M,2021-02-20_12h19.23.511,exp11,2020.2.6,MacIntel,60,,,,,,,,,,,
,,,,,,,,,,,,,,p,1,0.857,space,0.203,0,95,95,25,1,3_dist_red/trial1.png,,,1,3,redHorizontal,p,64,24,M,2021-02-20_12h19.23.511,exp11,2020.2.6,MacIntel,60,,,,,,,,,,,
,,,,,,,,,,,,,,a,1,0.582,space,0.073,0,96,96,112,1,0_targ_1_dist_red/trial13.png,,,0,1,redHorizontal,a,64,24,M,2021-02-20_12h19.23.511,exp11,2020.2.6,MacIntel,60,,,,,,,,,,,
,,,,,,,,,,,,,,p,1,0.908,space,0.21,0,97,97,90,1,15_dist_red/trial16.png,,,1,15,redHorizontal,p,64,24,M,2021-02-20_12h19.23.511,exp11,2020.2.6,MacIntel,60,,,,,,,,,,,
,,,,,,,,,,,,,,a,1,0.575,space,0.056,0,98,98,134,1,0_targ_4_dist_red/trial10.png,,,0,4,redHorizontal,a,64,24,M,2021-02-20_12h19.23.511,exp11,2020.2.6,MacIntel,60,,,,,,,,,,,
,,,,,,,,,,,,,,p,1,0.763,space,0.261,0,99,99,29,1,3_dist_red/trial5.png,,,1,3,redHorizontal,p,64,24,M,2021-02-20_12h19.23.511,exp11,2020.2.6,MacIntel,60,,,,,,,,,,,
,,,,,,,,,,,,,,p,1,0.579,space,0.213,0,100,100,6,1,0_dist_red/trial7.png,,,1,0,redHorizontal,p,64,24,M,2021-02-20_12h19.23.511,exp11,2020.2.6,MacIntel,60,,,,,,,,,,,
,,,,,,,,,,,,,,a,1,0.616,space,0.132,0,101,101,150,1,0_targ_10_dist_red/trial1.png,,,0,10,redHorizontal,a,64,24,M,2021-02-20_12h19.23.511,exp11,2020.2.6,MacIntel,60,,,,,,,,,,,
,,,,,,,,,,,,,,p,1,0.949,space,0.219,0,102,102,83,1,15_dist_red/trial9.png,,,1,15,redHorizontal,p,64,24,M,2021-02-20_12h19.23.511,exp11,2020.2.6,MacIntel,60,,,,,,,,,,,
,,,,,,,,,,,,,,a,1,1.371,space,0.178,0,103,103,176,1,0_targ_16_dist_red/trial2.png,,,0,16,redHorizontal,a,64,24,M,2021-02-20_12h19.23.511,exp11,2020.2.6,MacIntel,60,,,,,,,,,,,
,,,,,,,,,,,,,,p,1,0.691,space,0.211,0,104,104,5,1,0_dist_red/trial6.png,,,1,0,redHorizontal,p,64,24,M,2021-02-20_12h19.23.511,exp11,2020.2.6,MacIntel,60,,,,,,,,,,,
,,,,,,,,,,,,,,p,1,0.461,space,0.205,0,105,105,18,1,0_dist_red/trial19.png,,,1,0,redHorizontal,p,64,24,M,2021-02-20_12h19.23.511,exp11,2020.2.6,MacIntel,60,,,,,,,,,,,
,,,,,,,,,,,,,,a,1,0.544,space,0.188,0,106,106,144,1,0_targ_4_dist_red/trial20.png,,,0,4,redHorizontal,a,64,24,M,2021-02-20_12h19.23.511,exp11,2020.2.6,MacIntel,60,,,,,,,,,,,
,,,,,,,,,,,,,,p,0,0.658,space,0.178,0,107,107,193,1,0_targ_16_dist_red/trial19.png,,,0,16,redHorizontal,a,64,24,M,2021-02-20_12h19.23.511,exp11,2020.2.6,MacIntel,60,,,,,,,,,,,
,,,,,,,,,,,,,,a,1,0.382,space,0.652,0,108,108,132,1,0_targ_4_dist_red/trial8.png,,,0,4,redHorizontal,a,64,24,M,2021-02-20_12h19.23.511,exp11,2020.2.6,MacIntel,60,,,,,,,,,,,
,,,,,,,,,,,,,,p,1,0.981,space,0.207,0,109,109,43,1,3_dist_red/trial19.png,,,1,3,redHorizontal,p,64,24,M,2021-02-20_12h19.23.511,exp11,2020.2.6,MacIntel,60,,,,,,,,,,,
,,,,,,,,,,,,,,p,1,0.747,space,0.195,0,110,110,56,1,9_dist_red/trial7.png,,,1,9,redHorizontal,p,64,24,M,2021-02-20_12h19.23.511,exp11,2020.2.6,MacIntel,60,,,,,,,,,,,
,,,,,,,,,,,,,,a,1,0.578,space,0.103,0,111,111,177,1,0_targ_16_dist_red/trial3.png,,,0,16,redHorizontal,a,64,24,M,2021-02-20_12h19.23.511,exp11,2020.2.6,MacIntel,60,,,,,,,,,,,
,,,,,,,,,,,,,,a,1,0.495,space,0.089,0,112,112,138,1,0_targ_4_dist_red/trial14.png,,,0,4,redHorizontal,a,64,24,M,2021-02-20_12h19.23.511,exp11,2020.2.6,MacIntel,60,,,,,,,,,,,
,,,,,,,,,,,,,,a,1,0.434,space,0.09,0,113,113,147,1,0_targ_4_dist_red/trial23.png,,,0,4,redHorizontal,a,64,24,M,2021-02-20_12h19.23.511,exp11,2020.2.6,MacIntel,60,,,,,,,,,,,
,,,,,,,,,,,,,,a,1,0.594,space,0.069,0,114,114,169,1,0_targ_10_dist_red/trial20.png,,,0,10,redHorizontal,a,64,24,M,2021-02-20_12h19.23.511,exp11,2020.2.6,MacIntel,60,,,,,,,,,,,
,,,,,,,,,,,,,,a,1,0.789,space,0.042,0,115,115,185,1,0_targ_16_dist_red/trial11.png,,,0,16,redHorizontal,a,64,24,M,2021-02-20_12h19.23.511,exp11,2020.2.6,MacIntel,60,,,,,,,,,,,
,,,,,,,,,,,,,,a,1,0.427,space,0.057,0,116,116,126,1,0_targ_4_dist_red/trial2.png,,,0,4,redHorizontal,a,64,24,M,2021-02-20_12h19.23.511,exp11,2020.2.6,MacIntel,60,,,,,,,,,,,
,,,,,,,,,,,,,,p,1,0.704,space,0.21,0,117,117,41,1,3_dist_red/trial17.png,,,1,3,redHorizontal,p,64,24,M,2021-02-20_12h19.23.511,exp11,2020.2.6,MacIntel,60,,,,,,,,,,,
,,,,,,,,,,,,,,p,1,0.976,space,0.169,0,118,118,27,1,3_dist_red/trial3.png,,,1,3,redHorizontal,p,64,24,M,2021-02-20_12h19.23.511,exp11,2020.2.6,MacIntel,60,,,,,,,,,,,
,,,,,,,,,,,,,,a,1,0.613,space,0.076,0,119,119,136,1,0_targ_4_dist_red/trial12.png,,,0,4,redHorizontal,a,64,24,M,2021-02-20_12h19.23.511,exp11,2020.2.6,MacIntel,60,,,,,,,,,,,
,,,,,,,,,,,,,,p,1,1.163,space,0.673,0,120,120,52,1,9_dist_red/trial3.png,,,1,9,redHorizontal,p,64,24,M,2021-02-20_12h19.23.511,exp11,2020.2.6,MacIntel,60,,,,,,,,,,,
,,,,,,,,,,,,,,a,0,1.161,space,4.274,0,121,121,68,1,9_dist_red/trial19.png,,,1,9,redHorizontal,p,64,24,M,2021-02-20_12h19.23.511,exp11,2020.2.6,MacIntel,60,,,,,,,,,,,
,,,,,,,,,,,,,,p,1,0.874,space,0.2,0,122,122,39,1,3_dist_red/trial15.png,,,1,3,redHorizontal,p,64,24,M,2021-02-20_12h19.23.511,exp11,2020.2.6,MacIntel,60,,,,,,,,,,,
,,,,,,,,,,,,,,p,1,0.864,space,0.215,0,123,123,7,1,0_dist_red/trial8.png,,,1,0,redHorizontal,p,64,24,M,2021-02-20_12h19.23.511,exp11,2020.2.6,MacIntel,60,,,,,,,,,,,
,,,,,,,,,,,,,,p,1,1.443,space,0.205,0,124,124,94,1,15_dist_red/trial20.png,,,1,15,redHorizontal,p,64,24,M,2021-02-20_12h19.23.511,exp11,2020.2.6,MacIntel,60,,,,,,,,,,,
,,,,,,,,,,,,,,a,1,0.857,space,0.104,0,125,125,143,1,0_targ_4_dist_red/trial19.png,,,0,4,redHorizontal,a,64,24,M,2021-02-20_12h19.23.511,exp11,2020.2.6,MacIntel,60,,,,,,,,,,,
,,,,,,,,,,,,,,p,1,0.828,space,0.17,0,126,126,53,1,9_dist_red/trial4.png,,,1,9,redHorizontal,p,64,24,M,2021-02-20_12h19.23.511,exp11,2020.2.6,MacIntel,60,,,,,,,,,,,
,,,,,,,,,,,,,,p,1,1.37,space,0.326,0,127,127,95,1,15_dist_red/trial21.png,,,1,15,redHorizontal,p,64,24,M,2021-02-20_12h19.23.511,exp11,2020.2.6,MacIntel,60,,,,,,,,,,,
,,,,,,,,,,,,,,p,1,0.762,space,0.19,0,128,128,97,1,15_dist_red/trial23.png,,,1,15,redHorizontal,p,64,24,M,2021-02-20_12h19.23.511,exp11,2020.2.6,MacIntel,60,,,,,,,,,,,
,,,,,,,,,,,,,,p,1,0.513,space,0.174,0,129,129,0,1,0_dist_red/trial1.png,,,1,0,redHorizontal,p,64,24,M,2021-02-20_12h19.23.511,exp11,2020.2.6,MacIntel,60,,,,,,,,,,,
,,,,,,,,,,,,,,p,1,0.729,space,0.157,0,130,130,80,1,15_dist_red/trial6.png,,,1,15,redHorizontal,p,64,24,M,2021-02-20_12h19.23.511,exp11,2020.2.6,MacIntel,60,,,,,,,,,,,
,,,,,,,,,,,,,,p,1,0.811,space,0.186,0,131,131,98,1,15_dist_red/trial24.png,,,1,15,redHorizontal,p,64,24,M,2021-02-20_12h19.23.511,exp11,2020.2.6,MacIntel,60,,,,,,,,,,,
,,,,,,,,,,,,,,a,1,0.711,space,0.085,0,132,132,153,1,0_targ_10_dist_red/trial4.png,,,0,10,redHorizontal,a,64,24,M,2021-02-20_12h19.23.511,exp11,2020.2.6,MacIntel,60,,,,,,,,,,,
,,,,,,,,,,,,,,a,1,0.808,space,0.059,0,133,133,102,1,0_targ_1_dist_red/trial3.png,,,0,1,redHorizontal,a,64,24,M,2021-02-20_12h19.23.511,exp11,2020.2.6,MacIntel,60,,,,,,,,,,,
,,,,,,,,,,,,,,p,0,1.128,space,0.189,0,134,134,163,1,0_targ_10_dist_red/trial14.png,,,0,10,redHorizontal,a,64,24,M,2021-02-20_12h19.23.511,exp11,2020.2.6,MacIntel,60,,,,,,,,,,,
,,,,,,,,,,,,,,p,1,1.362,space,0.234,0,135,135,92,1,15_dist_red/trial18.png,,,1,15,redHorizontal,p,64,24,M,2021-02-20_12h19.23.511,exp11,2020.2.6,MacIntel,60,,,,,,,,,,,
,,,,,,,,,,,,,,p,1,0.875,space,0.211,0,136,136,85,1,15_dist_red/trial11.png,,,1,15,redHorizontal,p,64,24,M,2021-02-20_12h19.23.511,exp11,2020.2.6,MacIntel,60,,,,,,,,,,,
,,,,,,,,,,,,,,p,1,0.595,space,0.208,0,137,137,3,1,0_dist_red/trial4.png,,,1,0,redHorizontal,p,64,24,M,2021-02-20_12h19.23.511,exp11,2020.2.6,MacIntel,60,,,,,,,,,,,
,,,,,,,,,,,,,,p,1,0.825,space,0.224,0,138,138,64,1,9_dist_red/trial15.png,,,1,9,redHorizontal,p,64,24,M,2021-02-20_12h19.23.511,exp11,2020.2.6,MacIntel,60,,,,,,,,,,,
,,,,,,,,,,,,,,a,1,0.76,space,0.102,0,139,139,151,1,0_targ_10_dist_red/trial2.png,,,0,10,redHorizontal,a,64,24,M,2021-02-20_12h19.23.511,exp11,2020.2.6,MacIntel,60,,,,,,,,,,,
,,,,,,,,,,,,,,a,1,1.018,space,0.09,0,140,140,182,1,0_targ_16_dist_red/trial8.png,,,0,16,redHorizontal,a,64,24,M,2021-02-20_12h19.23.511,exp11,2020.2.6,MacIntel,60,,,,,,,,,,,
,,,,,,,,,,,,,,a,1,0.662,space,0.108,0,141,141,156,1,0_targ_10_dist_red/trial7.png,,,0,10,redHorizontal,a,64,24,M,2021-02-20_12h19.23.511,exp11,2020.2.6,MacIntel,60,,,,,,,,,,,
,,,,,,,,,,,,,,p,1,0.828,space,0.221,0,142,142,19,1,0_dist_red/trial20.png,,,1,0,redHorizontal,p,64,24,M,2021-02-20_12h19.23.511,exp11,2020.2.6,MacIntel,60,,,,,,,,,,,
,,,,,,,,,,,,,,a,1,0.738,space,0.121,0,143,143,164,1,0_targ_10_dist_red/trial15.png,,,0,10,redHorizontal,a,64,24,M,2021-02-20_12h19.23.511,exp11,2020.2.6,MacIntel,60,,,,,,,,,,,
,,,,,,,,,,,,,,a,1,0.819,space,0.255,0,144,144,120,1,0_targ_1_dist_red/trial21.png,,,0,1,redHorizontal,a,64,24,M,2021-02-20_12h19.23.511,exp11,2020.2.6,MacIntel,60,,,,,,,,,,,
,,,,,,,,,,,,,,a,1,0.475,space,0.187,0,145,145,123,1,0_targ_1_dist_red/trial24.png,,,0,1,redHorizontal,a,64,24,M,2021-02-20_12h19.23.511,exp11,2020.2.6,MacIntel,60,,,,,,,,,,,
,,,,,,,,,,,,,,p,1,0.876,space,0.213,0,146,146,72,1,9_dist_red/trial23.png,,,1,9,redHorizontal,p,64,24,M,2021-02-20_12h19.23.511,exp11,2020.2.6,MacIntel,60,,,,,,,,,,,
,,,,,,,,,,,,,,p,1,0.825,space,0.248,0,147,147,22,1,0_dist_red/trial23.png,,,1,0,redHorizontal,p,64,24,M,2021-02-20_12h19.23.511,exp11,2020.2.6,MacIntel,60,,,,,,,,,,,
,,,,,,,,,,,,,,p,1,0.912,space,0.233,0,148,148,78,1,15_dist_red/trial4.png,,,1,15,redHorizontal,p,64,24,M,2021-02-20_12h19.23.511,exp11,2020.2.6,MacIntel,60,,,,,,,,,,,
,,,,,,,,,,,,,,p,1,1.055,space,0.279,0,149,149,37,1,3_dist_red/trial13.png,,,1,3,redHorizontal,p,64,24,M,2021-02-20_12h19.23.511,exp11,2020.2.6,MacIntel,60,,,,,,,,,,,
,,,,,,,,,,,,,,p,1,0.642,space,0.187,0,150,150,79,1,15_dist_red/trial5.png,,,1,15,redHorizontal,p,64,24,M,2021-02-20_12h19.23.511,exp11,2020.2.6,MacIntel,60,,,,,,,,,,,
,,,,,,,,,,,,,,p,1,0.427,space,0.219,0,151,151,2,1,0_dist_red/trial3.png,,,1,0,redHorizontal,p,64,24,M,2021-02-20_12h19.23.511,exp11,2020.2.6,MacIntel,60,,,,,,,,,,,
,,,,,,,,,,,,,,p,1,0.428,space,0.207,0,152,152,9,1,0_dist_red/trial10.png,,,1,0,redHorizontal,p,64,24,M,2021-02-20_12h19.23.511,exp11,2020.2.6,MacIntel,60,,,,,,,,,,,
,,,,,,,,,,,,,,p,1,1.019,space,0.271,0,153,153,96,1,15_dist_red/trial22.png,,,1,15,redHorizontal,p,64,24,M,2021-02-20_12h19.23.511,exp11,2020.2.6,MacIntel,60,,,,,,,,,,,
,,,,,,,,,,,,,,p,1,0.541,space,0.171,0,154,154,50,1,9_dist_red/trial1.png,,,1,9,redHorizontal,p,64,24,M,2021-02-20_12h19.23.511,exp11,2020.2.6,MacIntel,60,,,,,,,,,,,
,,,,,,,,,,,,,,p,1,0.482,space,0.187,0,155,155,59,1,9_dist_red/trial10.png,,,1,9,redHorizontal,p,64,24,M,2021-02-20_12h19.23.511,exp11,2020.2.6,MacIntel,60,,,,,,,,,,,
,,,,,,,,,,,,,,p,0,0.528,space,0.054,0,156,156,162,1,0_targ_10_dist_red/trial13.png,,,0,10,redHorizontal,a,64,24,M,2021-02-20_12h19.23.511,exp11,2020.2.6,MacIntel,60,,,,,,,,,,,
,,,,,,,,,,,,,,a,0,0.32,space,26.996,0,157,157,17,1,0_dist_red/trial18.png,,,1,0,redHorizontal,p,64,24,M,2021-02-20_12h19.23.511,exp11,2020.2.6,MacIntel,60,,,,,,,,,,,
,,,,,,,,,,,,,,a,1,2.862,space,0.549,0,158,158,199,1,0_targ_16_dist_red/trial25.png,,,0,16,redHorizontal,a,64,24,M,2021-02-20_12h19.23.511,exp11,2020.2.6,MacIntel,60,,,,,,,,,,,
,,,,,,,,,,,,,,a,1,0.88,space,0.073,0,159,159,115,1,0_targ_1_dist_red/trial6.png,,,0,1,redHorizontal,a,64,24,M,2021-02-20_12h19.23.511,exp11,2020.2.6,MacIntel,60,,,,,,,,,,,
,,,,,,,,,,,,,,a,1,1.284,space,0.053,0,160,160,194,1,0_targ_16_dist_red/trial20.png,,,0,16,redHorizontal,a,64,24,M,2021-02-20_12h19.23.511,exp11,2020.2.6,MacIntel,60,,,,,,,,,,,
,,,,,,,,,,,,,,a,1,1.682,space,0.057,0,161,161,124,1,0_targ_1_dist_red/trial25.png,,,0,1,redHorizontal,a,64,24,M,2021-02-20_12h19.23.511,exp11,2020.2.6,MacIntel,60,,,,,,,,,,,
,,,,,,,,,,,,,,p,1,0.762,space,0.173,0,162,162,4,1,0_dist_red/trial5.png,,,1,0,redHorizontal,p,64,24,M,2021-02-20_12h19.23.511,exp11,2020.2.6,MacIntel,60,,,,,,,,,,,
,,,,,,,,,,,,,,a,1,0.628,space,0.059,0,163,163,137,1,0_targ_4_dist_red/trial13.png,,,0,4,redHorizontal,a,64,24,M,2021-02-20_12h19.23.511,exp11,2020.2.6,MacIntel,60,,,,,,,,,,,
,,,,,,,,,,,,,,a,1,0.647,space,0.091,0,164,164,187,1,0_targ_16_dist_red/trial13.png,,,0,16,redHorizontal,a,64,24,M,2021-02-20_12h19.23.511,exp11,2020.2.6,MacIntel,60,,,,,,,,,,,
,,,,,,,,,,,,,,a,1,0.494,space,0.069,0,165,165,167,1,0_targ_10_dist_red/trial18.png,,,0,10,redHorizontal,a,64,24,M,2021-02-20_12h19.23.511,exp11,2020.2.6,MacIntel,60,,,,,,,,,,,
,,,,,,,,,,,,,,p,1,0.874,space,0.152,0,166,166,82,1,15_dist_red/trial8.png,,,1,15,redHorizontal,p,64,24,M,2021-02-20_12h19.23.511,exp11,2020.2.6,MacIntel,60,,,,,,,,,,,
,,,,,,,,,,,,,,p,1,0.8,space,0.173,0,167,167,84,1,15_dist_red/trial10.png,,,1,15,redHorizontal,p,64,24,M,2021-02-20_12h19.23.511,exp11,2020.2.6,MacIntel,60,,,,,,,,,,,
,,,,,,,,,,,,,,a,1,0.679,space,0.089,0,168,168,148,1,0_targ_4_dist_red/trial24.png,,,0,4,redHorizontal,a,64,24,M,2021-02-20_12h19.23.511,exp11,2020.2.6,MacIntel,60,,,,,,,,,,,
,,,,,,,,,,,,,,a,1,0.708,space,0.042,0,169,169,191,1,0_targ_16_dist_red/trial17.png,,,0,16,redHorizontal,a,64,24,M,2021-02-20_12h19.23.511,exp11,2020.2.6,MacIntel,60,,,,,,,,,,,
,,,,,,,,,,,,,,p,1,0.844,space,0.175,0,170,170,60,1,9_dist_red/trial11.png,,,1,9,redHorizontal,p,64,24,M,2021-02-20_12h19.23.511,exp11,2020.2.6,MacIntel,60,,,,,,,,,,,
,,,,,,,,,,,,,,p,1,0.513,space,0.165,0,171,171,24,1,0_dist_red/trial25.png,,,1,0,redHorizontal,p,64,24,M,2021-02-20_12h19.23.511,exp11,2020.2.6,MacIntel,60,,,,,,,,,,,
,,,,,,,,,,,,,,p,1,0.426,space,0.168,0,172,172,10,1,0_dist_red/trial11.png,,,1,0,redHorizontal,p,64,24,M,2021-02-20_12h19.23.511,exp11,2020.2.6,MacIntel,60,,,,,,,,,,,
,,,,,,,,,,,,,,p,1,0.376,space,0.17,0,173,173,1,1,0_dist_red/trial2.png,,,1,0,redHorizontal,p,64,24,M,2021-02-20_12h19.23.511,exp11,2020.2.6,MacIntel,60,,,,,,,,,,,
,,,,,,,,,,,,,,p,1,0.407,space,0.121,0,174,174,12,1,0_dist_red/trial13.png,,,1,0,redHorizontal,p,64,24,M,2021-02-20_12h19.23.511,exp11,2020.2.6,MacIntel,60,,,,,,,,,,,
,,,,,,,,,,,,,,a,1,0.505,space,0.104,0,175,175,172,1,0_targ_10_dist_red/trial23.png,,,0,10,redHorizontal,a,64,24,M,2021-02-20_12h19.23.511,exp11,2020.2.6,MacIntel,60,,,,,,,,,,,
,,,,,,,,,,,,,,p,1,0.462,space,0.138,0,176,176,35,1,3_dist_red/trial11.png,,,1,3,redHorizontal,p,64,24,M,2021-02-20_12h19.23.511,exp11,2020.2.6,MacIntel,60,,,,,,,,,,,
,,,,,,,,,,,,,,a,1,0.717,space,0.209,0,177,177,125,1,0_targ_4_dist_red/trial1.png,,,0,4,redHorizontal,a,64,24,M,2021-02-20_12h19.23.511,exp11,2020.2.6,MacIntel,60,,,,,,,,,,,
,,,,,,,,,,,,,,a,1,0.943,space,0.057,0,178,178,195,1,0_targ_16_dist_red/trial21.png,,,0,16,redHorizontal,a,64,24,M,2021-02-20_12h19.23.511,exp11,2020.2.6,MacIntel,60,,,,,,,,,,,
,,,,,,,,,,,,,,p,1,0.775,space,0.135,0,179,179,55,1,9_dist_red/trial6.png,,,1,9,redHorizontal,p,64,24,M,2021-02-20_12h19.23.511,exp11,2020.2.6,MacIntel,60,,,,,,,,,,,
,,,,,,,,,,,,,,p,1,0.627,space,0.096,0,180,180,26,1,3_dist_red/trial2.png,,,1,3,redHorizontal,p,64,24,M,2021-02-20_12h19.23.511,exp11,2020.2.6,MacIntel,60,,,,,,,,,,,
,,,,,,,,,,,,,,a,1,0.809,space,0.072,0,181,181,159,1,0_targ_10_dist_red/trial10.png,,,0,10,redHorizontal,a,64,24,M,2021-02-20_12h19.23.511,exp11,2020.2.6,MacIntel,60,,,,,,,,,,,
,,,,,,,,,,,,,,p,1,0.578,space,0.112,0,182,182,31,1,3_dist_red/trial7.png,,,1,3,redHorizontal,p,64,24,M,2021-02-20_12h19.23.511,exp11,2020.2.6,MacIntel,60,,,,,,,,,,,
,,,,,,,,,,,,,,a,1,0.669,space,0.156,0,183,183,160,1,0_targ_10_dist_red/trial11.png,,,0,10,redHorizontal,a,64,24,M,2021-02-20_12h19.23.511,exp11,2020.2.6,MacIntel,60,,,,,,,,,,,
,,,,,,,,,,,,,,p,1,1.268,space,0.139,0,184,184,66,1,9_dist_red/trial17.png,,,1,9,redHorizontal,p,64,24,M,2021-02-20_12h19.23.511,exp11,2020.2.6,MacIntel,60,,,,,,,,,,,
,,,,,,,,,,,,,,a,1,1.182,space,0.171,0,185,185,192,1,0_targ_16_dist_red/trial18.png,,,0,16,redHorizontal,a,64,24,M,2021-02-20_12h19.23.511,exp11,2020.2.6,MacIntel,60,,,,,,,,,,,
,,,,,,,,,,,,,,a,1,0.718,space,0.077,0,186,186,130,1,0_targ_4_dist_red/trial6.png,,,0,4,redHorizontal,a,64,24,M,2021-02-20_12h19.23.511,exp11,2020.2.6,MacIntel,60,,,,,,,,,,,
,,,,,,,,,,,,,,a,1,0.932,space,0.106,0,187,187,170,1,0_targ_10_dist_red/trial21.png,,,0,10,redHorizontal,a,64,24,M,2021-02-20_12h19.23.511,exp11,2020.2.6,MacIntel,60,,,,,,,,,,,
,,,,,,,,,,,,,,p,1,1.344,space,0.138,0,188,188,86,1,15_dist_red/trial12.png,,,1,15,redHorizontal,p,64,24,M,2021-02-20_12h19.23.511,exp11,2020.2.6,MacIntel,60,,,,,,,,,,,
,,,,,,,,,,,,,,a,1,0.626,space,0.076,0,189,189,139,1,0_targ_4_dist_red/trial15.png,,,0,4,redHorizontal,a,64,24,M,2021-02-20_12h19.23.511,exp11,2020.2.6,MacIntel,60,,,,,,,,,,,
,,,,,,,,,,,,,,a,1,0.575,space,0.067,0,190,190,135,1,0_targ_4_dist_red/trial11.png,,,0,4,redHorizontal,a,64,24,M,2021-02-20_12h19.23.511,exp11,2020.2.6,MacIntel,60,,,,,,,,,,,
,,,,,,,,,,,,,,a,1,0.662,space,0.09,0,191,191,106,1,0_targ_1_dist_red/trial7.png,,,0,1,redHorizontal,a,64,24,M,2021-02-20_12h19.23.511,exp11,2020.2.6,MacIntel,60,,,,,,,,,,,
,,,,,,,,,,,,,,a,1,0.659,space,0.087,0,192,192,174,1,0_targ_10_dist_red/trial25.png,,,0,10,redHorizontal,a,64,24,M,2021-02-20_12h19.23.511,exp11,2020.2.6,MacIntel,60,,,,,,,,,,,
,,,,,,,,,,,,,,a,0,0.729,space,0.438,0,193,193,69,1,9_dist_red/trial20.png,,,1,9,redHorizontal,p,64,24,M,2021-02-20_12h19.23.511,exp11,2020.2.6,MacIntel,60,,,,,,,,,,,
,,,,,,,,,,,,,,a,1,1.112,space,0.092,0,194,194,104,1,0_targ_1_dist_red/trial5.png,,,0,1,redHorizontal,a,64,24,M,2021-02-20_12h19.23.511,exp11,2020.2.6,MacIntel,60,,,,,,,,,,,
,,,,,,,,,,,,,,p,1,1.091,space,0.179,0,195,195,99,1,15_dist_red/trial25.png,,,1,15,redHorizontal,p,64,24,M,2021-02-20_12h19.23.511,exp11,2020.2.6,MacIntel,60,,,,,,,,,,,
,,,,,,,,,,,,,,a,1,0.747,space,0.078,0,196,196,155,1,0_targ_10_dist_red/trial6.png,,,0,10,redHorizontal,a,64,24,M,2021-02-20_12h19.23.511,exp11,2020.2.6,MacIntel,60,,,,,,,,,,,
,,,,,,,,,,,,,,p,1,0.542,space,0.152,0,197,197,93,1,15_dist_red/trial19.png,,,1,15,redHorizontal,p,64,24,M,2021-02-20_12h19.23.511,exp11,2020.2.6,MacIntel,60,,,,,,,,,,,
,,,,,,,,,,,,,,a,1,0.642,space,0.093,0,198,198,111,1,0_targ_1_dist_red/trial12.png,,,0,1,redHorizontal,a,64,24,M,2021-02-20_12h19.23.511,exp11,2020.2.6,MacIntel,60,,,,,,,,,,,
,,,,,,,,,,,,,,p,1,0.692,space,0.188,0,199,199,30,1,3_dist_red/trial6.png,,,1,3,redHorizontal,p,64,24,M,2021-02-20_12h19.23.511,exp11,2020.2.6,MacIntel,60,,,,,,,,,,,
,,,,,,,,,,,,,,,,,,,,,,,,,,,,,,,64,24,M,2021-02-20_12h19.23.511,exp11,2020.2.6,MacIntel,60,0,0,0,1,1,conRed.xlsx,red horizontal,Look for red horizontal bar (target) and indicate if it is present or absent in the array. If red horizontal target is present press 'p' and if absent press 'a'. Press SPACE to start.,,,
,,,,,,,,,,space,10.49,space,0.872,a,1,1.517,space,0.634,0,0,0,115,1,0_targ_1_dist_green/trial6.png,,,0,1,greenverival,a,64,24,M,2021-02-20_12h19.23.511,exp11,2020.2.6,MacIntel,60,,,,,,,,,,,
,,,,,,,,,,,,,,p,1,0.977,space,0.179,0,1,1,52,1,9_dist_green/trial3.png,,,1,9,greenverival,p,64,24,M,2021-02-20_12h19.23.511,exp11,2020.2.6,MacIntel,60,,,,,,,,,,,
,,,,,,,,,,,,,,p,1,0.507,space,0.121,0,2,2,25,1,3_dist_green/trial1.png,,,1,3,greenverival,p,64,24,M,2021-02-20_12h19.23.511,exp11,2020.2.6,MacIntel,60,,,,,,,,,,,
,,,,,,,,,,,,,,p,1,0.49,space,0.085,0,3,3,37,1,3_dist_green/trial13.png,,,1,3,greenverival,p,64,24,M,2021-02-20_12h19.23.511,exp11,2020.2.6,MacIntel,60,,,,,,,,,,,
,,,,,,,,,,,,,,p,1,0.678,space,0.135,0,4,4,66,1,9_dist_green/trial17.png,,,1,9,greenverival,p,64,24,M,2021-02-20_12h19.23.511,exp11,2020.2.6,MacIntel,60,,,,,,,,,,,
,,,,,,,,,,,,,,p,1,0.682,space,0.087,0,5,5,47,1,3_dist_green/trial23.png,,,1,3,greenverival,p,64,24,M,2021-02-20_12h19.23.511,exp11,2020.2.6,MacIntel,60,,,,,,,,,,,
,,,,,,,,,,,,,,p,1,0.605,space,0.093,0,6,6,30,1,3_dist_green/trial6.png,,,1,3,greenverival,p,64,24,M,2021-02-20_12h19.23.511,exp11,2020.2.6,MacIntel,60,,,,,,,,,,,
,,,,,,,,,,,,,,a,1,0.761,space,0.473,0,7,7,129,1,0_targ_4_dist_green/trial5.png,,,0,4,greenverival,a,64,24,M,2021-02-20_12h19.23.511,exp11,2020.2.6,MacIntel,60,,,,,,,,,,,
,,,,,,,,,,,,,,p,1,1.192,space,0.365,0,8,8,98,1,15_dist_green/trial24.png,,,1,15,greenverival,p,64,24,M,2021-02-20_12h19.23.511,exp11,2020.2.6,MacIntel,60,,,,,,,,,,,
,,,,,,,,,,,,,,a,1,1.127,space,0.095,0,9,9,156,1,0_targ_10_dist_green/trial7.png,,,0,10,greenverival,a,64,24,M,2021-02-20_12h19.23.511,exp11,2020.2.6,MacIntel,60,,,,,,,,,,,
,,,,,,,,,,,,,,a,1,0.696,space,0.086,0,10,10,174,1,0_targ_10_dist_green/trial25.png,,,0,10,greenverival,a,64,24,M,2021-02-20_12h19.23.511,exp11,2020.2.6,MacIntel,60,,,,,,,,,,,
,,,,,,,,,,,,,,a,1,0.5,space,0.105,0,11,11,107,1,0_targ_1_dist_green/trial8.png,,,0,1,greenverival,a,64,24,M,2021-02-20_12h19.23.511,exp11,2020.2.6,MacIntel,60,,,,,,,,,,,
,,,,,,,,,,,,,,p,1,0.778,space,0.137,0,12,12,58,1,9_dist_green/trial9.png,,,1,9,greenverival,p,64,24,M,2021-02-20_12h19.23.511,exp11,2020.2.6,MacIntel,60,,,,,,,,,,,
,,,,,,,,,,,,,,a,1,0.977,space,0.073,0,13,13,199,1,0_targ_16_dist_green/trial25.png,,,0,16,greenverival,a,64,24,M,2021-02-20_12h19.23.511,exp11,2020.2.6,MacIntel,60,,,,,,,,,,,
,,,,,,,,,,,,,,a,1,0.646,space,0.113,0,14,14,141,1,0_targ_4_dist_green/trial17.png,,,0,4,greenverival,a,64,24,M,2021-02-20_12h19.23.511,exp11,2020.2.6,MacIntel,60,,,,,,,,,,,
,,,,,,,,,,,,,,p,1,0.766,space,0.14,0,15,15,95,1,15_dist_green/trial21.png,,,1,15,greenverival,p,64,24,M,2021-02-20_12h19.23.511,exp11,2020.2.6,MacIntel,60,,,,,,,,,,,
,,,,,,,,,,,,,,p,1,0.844,space,0.105,0,16,16,8,1,0_dist_green/trial9.png,,,1,0,greenverival,p,64,24,M,2021-02-20_12h19.23.511,exp11,2020.2.6,MacIntel,60,,,,,,,,,,,
,,,,,,,,,,,,,,a,1,1.068,space,0.088,0,17,17,189,1,0_targ_16_dist_green/trial15.png,,,0,16,greenverival,a,64,24,M,2021-02-20_12h19.23.511,exp11,2020.2.6,MacIntel,60,,,,,,,,,,,
,,,,,,,,,,,,,,a,1,0.608,space,0.038,0,18,18,144,1,0_targ_4_dist_green/trial20.png,,,0,4,greenverival,a,64,24,M,2021-02-20_12h19.23.511,exp11,2020.2.6,MacIntel,60,,,,,,,,,,,
,,,,,,,,,,,,,,p,1,0.525,space,0.104,0,19,19,17,1,0_dist_green/trial18.png,,,1,0,greenverival,p,64,24,M,2021-02-20_12h19.23.511,exp11,2020.2.6,MacIntel,60,,,,,,,,,,,
,,,,,,,,,,,,,,p,1,0.481,space,0.086,0,20,20,9,1,0_dist_green/trial10.png,,,1,0,greenverival,p,64,24,M,2021-02-20_12h19.23.511,exp11,2020.2.6,MacIntel,60,,,,,,,,,,,
,,,,,,,,,,,,,,a,1,0.61,space,0.103,0,21,21,112,1,0_targ_1_dist_green/trial13.png,,,0,1,greenverival,a,64,24,M,2021-02-20_12h19.23.511,exp11,2020.2.6,MacIntel,60,,,,,,,,,,,
,,,,,,,,,,,,,,a,1,1.055,space,0.079,0,22,22,161,1,0_targ_10_dist_green/trial12.png,,,0,10,greenverival,a,64,24,M,2021-02-20_12h19.23.511,exp11,2020.2.6,MacIntel,60,,,,,,,,,,,
,,,,,,,,,,,,,,p,1,0.606,space,0.104,0,23,23,3,1,0_dist_green/trial4.png,,,1,0,greenverival,p,64,24,M,2021-02-20_12h19.23.511,exp11,2020.2.6,MacIntel,60,,,,,,,,,,,
,,,,,,,,,,,,,,a,1,0.526,space,0.093,0,24,24,124,1,0_targ_1_dist_green/trial25.png,,,0,1,greenverival,a,64,24,M,2021-02-20_12h19.23.511,exp11,2020.2.6,MacIntel,60,,,,,,,,,,,
,,,,,,,,,,,,,,p,0,0.268,space,0.253,0,25,25,134,1,0_targ_4_dist_green/trial10.png,,,0,4,greenverival,a,64,24,M,2021-02-20_12h19.23.511,exp11,2020.2.6,MacIntel,60,,,,,,,,,,,
,,,,,,,,,,,,,,p,1,1.896,space,0.278,0,26,26,33,1,3_dist_green/trial9.png,,,1,3,greenverival,p,64,24,M,2021-02-20_12h19.23.511,exp11,2020.2.6,MacIntel,60,,,,,,,,,,,
,,,,,,,,,,,,,,a,1,0.54,space,0.107,0,27,27,106,1,0_targ_1_dist_green/trial7.png,,,0,1,greenverival,a,64,24,M,2021-02-20_12h19.23.511,exp11,2020.2.6,MacIntel,60,,,,,,,,,,,
,,,,,,,,,,,,,,a,1,0.45,space,0.158,0,28,28,111,1,0_targ_1_dist_green/trial12.png,,,0,1,greenverival,a,64,24,M,2021-02-20_12h19.23.511,exp11,2020.2.6,MacIntel,60,,,,,,,,,,,
,,,,,,,,,,,,,,a,1,0.592,space,0.069,0,29,29,136,1,0_targ_4_dist_green/trial12.png,,,0,4,greenverival,a,64,24,M,2021-02-20_12h19.23.511,exp11,2020.2.6,MacIntel,60,,,,,,,,,,,
,,,,,,,,,,,,,,p,1,0.78,space,0.206,0,30,30,63,1,9_dist_green/trial14.png,,,1,9,greenverival,p,64,24,M,2021-02-20_12h19.23.511,exp11,2020.2.6,MacIntel,60,,,,,,,,,,,
,,,,,,,,,,,,,,p,1,0.611,space,0.141,0,31,31,68,1,9_dist_green/trial19.png,,,1,9,greenverival,p,64,24,M,2021-02-20_12h19.23.511,exp11,2020.2.6,MacIntel,60,,,,,,,,,,,
,,,,,,,,,,,,,,a,1,0.557,space,0.154,0,32,32,101,1,0_targ_1_dist_green/trial2.png,,,0,1,greenverival,a,64,24,M,2021-02-20_12h19.23.511,exp11,2020.2.6,MacIntel,60,,,,,,,,,,,
,,,,,,,,,,,,,,a,1,1.962,space,0.105,0,33,33,185,1,0_targ_16_dist_green/trial11.png,,,0,16,greenverival,a,64,24,M,2021-02-20_12h19.23.511,exp11,2020.2.6,MacIntel,60,,,,,,,,,,,
,,,,,,,,,,,,,,p,1,1.161,space,0.224,0,34,34,97,1,15_dist_green/trial23.png,,,1,15,greenverival,p,64,24,M,2021-02-20_12h19.23.511,exp11,2020.2.6,MacIntel,60,,,,,,,,,,,
,,,,,,,,,,,,,,a,1,0.813,space,0.095,0,35,35,127,1,0_targ_4_dist_green/trial3.png,,,0,4,greenverival,a,64,24,M,2021-02-20_12h19.23.511,exp11,2020.2.6,MacIntel,60,,,,,,,,,,,
,,,,,,,,,,,,,,a,1,11.351,space,0.522,0,36,36,195,1,0_targ_16_dist_green/trial21.png,,,0,16,greenverival,a,64,24,M,2021-02-20_12h19.23.511,exp11,2020.2.6,MacIntel,60,,,,,,,,,,,
,,,,,,,,,,,,,,p,1,1.228,space,0.104,0,37,37,99,1,15_dist_green/trial25.png,,,1,15,greenverival,p,64,24,M,2021-02-20_12h19.23.511,exp11,2020.2.6,MacIntel,60,,,,,,,,,,,
,,,,,,,,,,,,,,a,1,2.584,space,0.274,0,38,38,193,1,0_targ_16_dist_green/trial19.png,,,0,16,greenverival,a,64,24,M,2021-02-20_12h19.23.511,exp11,2020.2.6,MacIntel,60,,,,,,,,,,,
,,,,,,,,,,,,,,a,1,0.574,space,0.068,0,39,39,108,1,0_targ_1_dist_green/trial9.png,,,0,1,greenverival,a,64,24,M,2021-02-20_12h19.23.511,exp11,2020.2.6,MacIntel,60,,,,,,,,,,,
,,,,,,,,,,,,,,p,1,0.528,space,0.122,0,40,40,12,1,0_dist_green/trial13.png,,,1,0,greenverival,p,64,24,M,2021-02-20_12h19.23.511,exp11,2020.2.6,MacIntel,60,,,,,,,,,,,
,,,,,,,,,,,,,,p,1,0.541,space,0.091,0,41,41,72,1,9_dist_green/trial23.png,,,1,9,greenverival,p,64,24,M,2021-02-20_12h19.23.511,exp11,2020.2.6,MacIntel,60,,,,,,,,,,,
,,,,,,,,,,,,,,a,1,0.666,space,0.118,0,42,42,149,1,0_targ_4_dist_green/trial25.png,,,0,4,greenverival,a,64,24,M,2021-02-20_12h19.23.511,exp11,2020.2.6,MacIntel,60,,,,,,,,,,,
,,,,,,,,,,,,,,p,1,0.479,space,0.105,0,43,43,40,1,3_dist_green/trial16.png,,,1,3,greenverival,p,64,24,M,2021-02-20_12h19.23.511,exp11,2020.2.6,MacIntel,60,,,,,,,,,,,
,,,,,,,,,,,,,,a,1,0.607,space,0.107,0,44,44,168,1,0_targ_10_dist_green/trial19.png,,,0,10,greenverival,a,64,24,M,2021-02-20_12h19.23.511,exp11,2020.2.6,MacIntel,60,,,,,,,,,,,
,,,,,,,,,,,,,,p,1,0.641,space,0.12,0,45,45,61,1,9_dist_green/trial12.png,,,1,9,greenverival,p,64,24,M,2021-02-20_12h19.23.511,exp11,2020.2.6,MacIntel,60,,,,,,,,,,,
,,,,,,,,,,,,,,a,1,0.561,space,0.067,0,46,46,175,1,0_targ_16_dist_green/trial1.png,,,0,16,greenverival,a,64,24,M,2021-02-20_12h19.23.511,exp11,2020.2.6,MacIntel,60,,,,,,,,,,,
,,,,,,,,,,,,,,a,1,0.731,space,0.123,0,47,47,170,1,0_targ_10_dist_green/trial21.png,,,0,10,greenverival,a,64,24,M,2021-02-20_12h19.23.511,exp11,2020.2.6,MacIntel,60,,,,,,,,,,,
,,,,,,,,,,,,,,a,0,0.608,space,0.723,0,48,48,93,1,15_dist_green/trial19.png,,,1,15,greenverival,p,64,24,M,2021-02-20_12h19.23.511,exp11,2020.2.6,MacIntel,60,,,,,,,,,,,
,,,,,,,,,,,,,,p,1,0.964,space,0.306,0,49,49,94,1,15_dist_green/trial20.png,,,1,15,greenverival,p,64,24,M,2021-02-20_12h19.23.511,exp11,2020.2.6,MacIntel,60,,,,,,,,,,,
,,,,,,,,,,,,,,a,1,1.072,space,0.042,0,50,50,194,1,0_targ_16_dist_green/trial20.png,,,0,16,greenverival,a,64,24,M,2021-02-20_12h19.23.511,exp11,2020.2.6,MacIntel,60,,,,,,,,,,,
,,,,,,,,,,,,,,a,1,0.834,space,0.071,0,51,51,166,1,0_targ_10_dist_green/trial17.png,,,0,10,greenverival,a,64,24,M,2021-02-20_12h19.23.511,exp11,2020.2.6,MacIntel,60,,,,,,,,,,,
,,,,,,,,,,,,,,a,1,2.056,space,0.094,0,52,52,123,1,0_targ_1_dist_green/trial24.png,,,0,1,greenverival,a,64,24,M,2021-02-20_12h19.23.511,exp11,2020.2.6,MacIntel,60,,,,,,,,,,,
,,,,,,,,,,,,,,p,1,0.666,space,0.107,0,53,53,36,1,3_dist_green/trial12.png,,,1,3,greenverival,p,64,24,M,2021-02-20_12h19.23.511,exp11,2020.2.6,MacIntel,60,,,,,,,,,,,
,,,,,,,,,,,,,,p,1,0.608,space,0.105,0,54,54,76,1,15_dist_green/trial2.png,,,1,15,greenverival,p,64,24,M,2021-02-20_12h19.23.511,exp11,2020.2.6,MacIntel,60,,,,,,,,,,,
,,,,,,,,,,,,,,p,1,0.695,space,0.092,0,55,55,46,1,3_dist_green/trial22.png,,,1,3,greenverival,p,64,24,M,2021-02-20_12h19.23.511,exp11,2020.2.6,MacIntel,60,,,,,,,,,,,
,,,,,,,,,,,,,,a,1,0.796,space,0.122,0,56,56,187,1,0_targ_16_dist_green/trial13.png,,,0,16,greenverival,a,64,24,M,2021-02-20_12h19.23.511,exp11,2020.2.6,MacIntel,60,,,,,,,,,,,
,,,,,,,,,,,,,,p,1,0.66,space,0.13,0,57,57,29,1,3_dist_green/trial5.png,,,1,3,greenverival,p,64,24,M,2021-02-20_12h19.23.511,exp11,2020.2.6,MacIntel,60,,,,,,,,,,,
,,,,,,,,,,,,,,a,1,0.694,space,0.085,0,58,58,105,1,0_targ_1_dist_green/trial6.png,,,0,1,greenverival,a,64,24,M,2021-02-20_12h19.23.511,exp11,2020.2.6,MacIntel,60,,,,,,,,,,,
,,,,,,,,,,,,,,p,1,0.642,space,0.155,0,59,59,7,1,0_dist_green/trial8.png,,,1,0,greenverival,p,64,24,M,2021-02-20_12h19.23.511,exp11,2020.2.6,MacIntel,60,,,,,,,,,,,
,,,,,,,,,,,,,,p,1,0.512,space,0.107,0,60,60,4,1,0_dist_green/trial5.png,,,1,0,greenverival,p,64,24,M,2021-02-20_12h19.23.511,exp11,2020.2.6,MacIntel,60,,,,,,,,,,,
,,,,,,,,,,,,,,a,1,1.228,space,0.121,0,61,61,155,1,0_targ_10_dist_green/trial6.png,,,0,10,greenverival,a,64,24,M,2021-02-20_12h19.23.511,exp11,2020.2.6,MacIntel,60,,,,,,,,,,,
,,,,,,,,,,,,,,p,1,0.492,space,0.102,0,62,62,67,1,9_dist_green/trial18.png,,,1,9,greenverival,p,64,24,M,2021-02-20_12h19.23.511,exp11,2020.2.6,MacIntel,60,,,,,,,,,,,
,,,,,,,,,,,,,,p,1,0.749,space,0.107,0,63,63,56,1,9_dist_green/trial7.png,,,1,9,greenverival,p,64,24,M,2021-02-20_12h19.23.511,exp11,2020.2.6,MacIntel,60,,,,,,,,,,,
,,,,,,,,,,,,,,a,1,0.687,space,0.121,0,64,64,122,1,0_targ_1_dist_green/trial23.png,,,0,1,greenverival,a,64,24,M,2021-02-20_12h19.23.511,exp11,2020.2.6,MacIntel,60,,,,,,,,,,,
,,,,,,,,,,,,,,p,1,0.724,space,0.072,0,65,65,64,1,9_dist_green/trial15.png,,,1,9,greenverival,p,64,24,M,2021-02-20_12h19.23.511,exp11,2020.2.6,MacIntel,60,,,,,,,,,,,
,,,,,,,,,,,,,,p,1,0.598,space,0.076,0,66,66,48,1,3_dist_green/trial24.png,,,1,3,greenverival,p,64,24,M,2021-02-20_12h19.23.511,exp11,2020.2.6,MacIntel,60,,,,,,,,,,,
,,,,,,,,,,,,,,a,1,0.556,space,0.087,0,67,67,143,1,0_targ_4_dist_green/trial19.png,,,0,4,greenverival,a,64,24,M,2021-02-20_12h19.23.511,exp11,2020.2.6,MacIntel,60,,,,,,,,,,,
,,,,,,,,,,,,,,a,1,0.692,space,0.068,0,68,68,125,1,0_targ_4_dist_green/trial1.png,,,0,4,greenverival,a,64,24,M,2021-02-20_12h19.23.511,exp11,2020.2.6,MacIntel,60,,,,,,,,,,,
,,,,,,,,,,,,,,a,1,1.989,space,0.277,0,69,69,118,1,0_targ_1_dist_green/trial19.png,,,0,1,greenverival,a,64,24,M,2021-02-20_12h19.23.511,exp11,2020.2.6,MacIntel,60,,,,,,,,,,,
,,,,,,,,,,,,,,a,1,0.482,space,0.079,0,70,70,103,1,0_targ_1_dist_green/trial4.png,,,0,1,greenverival,a,64,24,M,2021-02-20_12h19.23.511,exp11,2020.2.6,MacIntel,60,,,,,,,,,,,
,,,,,,,,,,,,,,p,1,0.579,space,0.462,0,71,71,20,1,0_dist_green/trial21.png,,,1,0,greenverival,p,64,24,M,2021-02-20_12h19.23.511,exp11,2020.2.6,MacIntel,60,,,,,,,,,,,
,,,,,,,,,,,,,,a,1,1.746,space,0.964,0,72,72,100,1,0_targ_1_dist_green/trial1.png,,,0,1,greenverival,a,64,24,M,2021-02-20_12h19.23.511,exp11,2020.2.6,MacIntel,60,,,,,,,,,,,
,,,,,,,,,,,,,,p,1,0.592,space,0.237,0,73,73,0,1,0_dist_green/trial1.png,,,1,0,greenverival,p,64,24,M,2021-02-20_12h19.23.511,exp11,2020.2.6,MacIntel,60,,,,,,,,,,,
,,,,,,,,,,,,,,p,1,0.543,space,0.204,0,74,74,42,1,3_dist_green/trial18.png,,,1,3,greenverival,p,64,24,M,2021-02-20_12h19.23.511,exp11,2020.2.6,MacIntel,60,,,,,,,,,,,
,,,,,,,,,,,,,,p,1,0.72,space,0.12,0,75,75,79,1,15_dist_green/trial5.png,,,1,15,greenverival,p,64,24,M,2021-02-20_12h19.23.511,exp11,2020.2.6,MacIntel,60,,,,,,,,,,,
,,,,,,,,,,,,,,p,1,0.477,space,0.121,0,76,76,49,1,3_dist_green/trial25.png,,,1,3,greenverival,p,64,24,M,2021-02-20_12h19.23.511,exp11,2020.2.6,MacIntel,60,,,,,,,,,,,
,,,,,,,,,,,,,,a,1,0.508,space,0.121,0,77,77,110,1,0_targ_1_dist_green/trial11.png,,,0,1,greenverival,a,64,24,M,2021-02-20_12h19.23.511,exp11,2020.2.6,MacIntel,60,,,,,,,,,,,
,,,,,,,,,,,,,,a,1,1.2,space,0.061,0,78,78,196,1,0_targ_16_dist_green/trial22.png,,,0,16,greenverival,a,64,24,M,2021-02-20_12h19.23.511,exp11,2020.2.6,MacIntel,60,,,,,,,,,,,
,,,,,,,,,,,,,,a,1,0.713,space,0.113,0,79,79,176,1,0_targ_16_dist_green/trial2.png,,,0,16,greenverival,a,64,24,M,2021-02-20_12h19.23.511,exp11,2020.2.6,MacIntel,60,,,,,,,,,,,
,,,,,,,,,,,,,,p,1,0.713,space,0.098,0,80,80,45,1,3_dist_green/trial21.png,,,1,3,greenverival,p,64,24,M,2021-02-20_12h19.23.511,exp11,2020.2.6,MacIntel,60,,,,,,,,,,,
,,,,,,,,,,,,,,a,1,1.108,space,0.039,0,81,81,177,1,0_targ_16_dist_green/trial3.png,,,0,16,greenverival,a,64,24,M,2021-02-20_12h19.23.511,exp11,2020.2.6,MacIntel,60,,,,,,,,,,,
,,,,,,,,,,,,,,p,1,0.845,space,0.078,0,82,82,73,1,9_dist_green/trial24.png,,,1,9,greenverival,p,64,24,M,2021-02-20_12h19.23.511,exp11,2020.2.6,MacIntel,60,,,,,,,,,,,
,,,,,,,,,,,,,,p,1,1.086,space,0.062,0,83,83,60,1,9_dist_green/trial11.png,,,1,9,greenverival,p,64,24,M,2021-02-20_12h19.23.511,exp11,2020.2.6,MacIntel,60,,,,,,,,,,,
,,,,,,,,,,,,,,a,1,1.291,space,0.511,0,84,84,114,1,0_targ_1_dist_green/trial15.png,,,0,1,greenverival,a,64,24,M,2021-02-20_12h19.23.511,exp11,2020.2.6,MacIntel,60,,,,,,,,,,,
,,,,,,,,,,,,,,p,1,0.915,space,0.072,0,85,85,24,1,0_dist_green/trial25.png,,,1,0,greenverival,p,64,24,M,2021-02-20_12h19.23.511,exp11,2020.2.6,MacIntel,60,,,,,,,,,,,
,,,,,,,,,,,,,,p,1,0.464,space,0.073,0,86,86,18,1,0_dist_green/trial19.png,,,1,0,greenverival,p,64,24,M,2021-02-20_12h19.23.511,exp11,2020.2.6,MacIntel,60,,,,,,,,,,,
,,,,,,,,,,,,,,a,1,0.661,space,0.083,0,87,87,171,1,0_targ_10_dist_green/trial22.png,,,0,10,greenverival,a,64,24,M,2021-02-20_12h19.23.511,exp11,2020.2.6,MacIntel,60,,,,,,,,,,,
,,,,,,,,,,,,,,p,1,0.576,space,0.072,0,88,88,78,1,15_dist_green/trial4.png,,,1,15,greenverival,p,64,24,M,2021-02-20_12h19.23.511,exp11,2020.2.6,MacIntel,60,,,,,,,,,,,
,,,,,,,,,,,,,,p,1,0.512,space,0.061,0,89,89,53,1,9_dist_green/trial4.png,,,1,9,greenverival,p,64,24,M,2021-02-20_12h19.23.511,exp11,2020.2.6,MacIntel,60,,,,,,,,,,,
,,,,,,,,,,,,,,a,1,0.586,space,0.019,0,90,90,164,1,0_targ_10_dist_green/trial15.png,,,0,10,greenverival,a,64,24,M,2021-02-20_12h19.23.511,exp11,2020.2.6,MacIntel,60,,,,,,,,,,,
,,,,,,,,,,,,,,p,1,0.578,space,0.062,0,91,91,2,1,0_dist_green/trial3.png,,,1,0,greenverival,p,64,24,M,2021-02-20_12h19.23.511,exp11,2020.2.6,MacIntel,60,,,,,,,,,,,
,,,,,,,,,,,,,,a,1,0.893,space,0.106,0,92,92,180,1,0_targ_16_dist_green/trial6.png,,,0,16,greenverival,a,64,24,M,2021-02-20_12h19.23.511,exp11,2020.2.6,MacIntel,60,,,,,,,,,,,
,,,,,,,,,,,,,,p,1,0.528,space,0.053,0,93,93,15,1,0_dist_green/trial16.png,,,1,0,greenverival,p,64,24,M,2021-02-20_12h19.23.511,exp11,2020.2.6,MacIntel,60,,,,,,,,,,,
,,,,,,,,,,,,,,p,1,0.725,space,0.522,0,94,94,54,1,9_dist_green/trial5.png,,,1,9,greenverival,p,64,24,M,2021-02-20_12h19.23.511,exp11,2020.2.6,MacIntel,60,,,,,,,,,,,
,,,,,,,,,,,,,,p,1,0.56,space,0.089,0,95,95,84,1,15_dist_green/trial10.png,,,1,15,greenverival,p,64,24,M,2021-02-20_12h19.23.511,exp11,2020.2.6,MacIntel,60,,,,,,,,,,,
,,,,,,,,,,,,,,a,1,0.962,space,0.089,0,96,96,190,1,0_targ_16_dist_green/trial16.png,,,0,16,greenverival,a,64,24,M,2021-02-20_12h19.23.511,exp11,2020.2.6,MacIntel,60,,,,,,,,,,,
,,,,,,,,,,,,,,p,1,0.661,space,0.123,0,97,97,96,1,15_dist_green/trial22.png,,,1,15,greenverival,p,64,24,M,2021-02-20_12h19.23.511,exp11,2020.2.6,MacIntel,60,,,,,,,,,,,
,,,,,,,,,,,,,,p,1,0.856,space,0.056,0,98,98,51,1,9_dist_green/trial2.png,,,1,9,greenverival,p,64,24,M,2021-02-20_12h19.23.511,exp11,2020.2.6,MacIntel,60,,,,,,,,,,,
,,,,,,,,,,,,,,p,1,0.632,space,0.059,0,99,99,16,1,0_dist_green/trial17.png,,,1,0,greenverival,p,64,24,M,2021-02-20_12h19.23.511,exp11,2020.2.6,MacIntel,60,,,,,,,,,,,
,,,,,,,,,,,,,,p,1,0.811,space,0.124,0,100,100,75,1,15_dist_green/trial1.png,,,1,15,greenverival,p,64,24,M,2021-02-20_12h19.23.511,exp11,2020.2.6,MacIntel,60,,,,,,,,,,,
,,,,,,,,,,,,,,p,1,0.593,space,0.12,0,101,101,87,1,15_dist_green/trial13.png,,,1,15,greenverival,p,64,24,M,2021-02-20_12h19.23.511,exp11,2020.2.6,MacIntel,60,,,,,,,,,,,
,,,,,,,,,,,,,,p,1,0.582,space,0.089,0,102,102,82,1,15_dist_green/trial8.png,,,1,15,greenverival,p,64,24,M,2021-02-20_12h19.23.511,exp11,2020.2.6,MacIntel,60,,,,,,,,,,,
,,,,,,,,,,,,,,p,1,0.667,space,0.085,0,103,103,91,1,15_dist_green/trial17.png,,,1,15,greenverival,p,64,24,M,2021-02-20_12h19.23.511,exp11,2020.2.6,MacIntel,60,,,,,,,,,,,
,,,,,,,,,,,,,,a,1,0.686,space,0.088,0,104,104,163,1,0_targ_10_dist_green/trial14.png,,,0,10,greenverival,a,64,24,M,2021-02-20_12h19.23.511,exp11,2020.2.6,MacIntel,60,,,,,,,,,,,
,,,,,,,,,,,,,,a,1,1.425,space,0.588,0,105,105,102,1,0_targ_1_dist_green/trial3.png,,,0,1,greenverival,a,64,24,M,2021-02-20_12h19.23.511,exp11,2020.2.6,MacIntel,60,,,,,,,,,,,
,,,,,,,,,,,,,,p,1,0.748,space,0.075,0,106,106,85,1,15_dist_green/trial11.png,,,1,15,greenverival,p,64,24,M,2021-02-20_12h19.23.511,exp11,2020.2.6,MacIntel,60,,,,,,,,,,,
,,,,,,,,,,,,,,a,1,0.695,space,0.103,0,107,107,128,1,0_targ_4_dist_green/trial4.png,,,0,4,greenverival,a,64,24,M,2021-02-20_12h19.23.511,exp11,2020.2.6,MacIntel,60,,,,,,,,,,,
,,,,,,,,,,,,,,p,1,0.548,space,0.079,0,108,108,34,1,3_dist_green/trial10.png,,,1,3,greenverival,p,64,24,M,2021-02-20_12h19.23.511,exp11,2020.2.6,MacIntel,60,,,,,,,,,,,
,,,,,,,,,,,,,,a,1,0.593,space,0.222,0,109,109,137,1,0_targ_4_dist_green/trial13.png,,,0,4,greenverival,a,64,24,M,2021-02-20_12h19.23.511,exp11,2020.2.6,MacIntel,60,,,,,,,,,,,
,,,,,,,,,,,,,,a,1,0.661,space,0.105,0,110,110,142,1,0_targ_4_dist_green/trial18.png,,,0,4,greenverival,a,64,24,M,2021-02-20_12h19.23.511,exp11,2020.2.6,MacIntel,60,,,,,,,,,,,
,,,,,,,,,,,,,,p,1,0.759,space,0.053,0,111,111,55,1,9_dist_green/trial6.png,,,1,9,greenverival,p,64,24,M,2021-02-20_12h19.23.511,exp11,2020.2.6,MacIntel,60,,,,,,,,,,,
,,,,,,,,,,,,,,a,1,0.598,space,0.123,0,112,112,133,1,0_targ_4_dist_green/trial9.png,,,0,4,greenverival,a,64,24,M,2021-02-20_12h19.23.511,exp11,2020.2.6,MacIntel,60,,,,,,,,,,,
,,,,,,,,,,,,,,a,1,0.708,space,0.139,0,113,113,173,1,0_targ_10_dist_green/trial24.png,,,0,10,greenverival,a,64,24,M,2021-02-20_12h19.23.511,exp11,2020.2.6,MacIntel,60,,,,,,,,,,,
,,,,,,,,,,,,,,a,1,0.543,space,0.104,0,114,114,152,1,0_targ_10_dist_green/trial3.png,,,0,10,greenverival,a,64,24,M,2021-02-20_12h19.23.511,exp11,2020.2.6,MacIntel,60,,,,,,,,,,,
,,,,,,,,,,,,,,p,1,0.715,space,0.103,0,115,115,65,1,9_dist_green/trial16.png,,,1,9,greenverival,p,64,24,M,2021-02-20_12h19.23.511,exp11,2020.2.6,MacIntel,60,,,,,,,,,,,
,,,,,,,,,,,,,,p,1,0.625,space,0.113,0,116,116,80,1,15_dist_green/trial6.png,,,1,15,greenverival,p,64,24,M,2021-02-20_12h19.23.511,exp11,2020.2.6,MacIntel,60,,,,,,,,,,,
,,,,,,,,,,,,,,a,1,0.626,space,0.038,0,117,117,158,1,0_targ_10_dist_green/trial9.png,,,0,10,greenverival,a,64,24,M,2021-02-20_12h19.23.511,exp11,2020.2.6,MacIntel,60,,,,,,,,,,,
,,,,,,,,,,,,,,p,1,0.54,space,0.088,0,118,118,32,1,3_dist_green/trial8.png,,,1,3,greenverival,p,64,24,M,2021-02-20_12h19.23.511,exp11,2020.2.6,MacIntel,60,,,,,,,,,,,
,,,,,,,,,,,,,,p,1,0.661,space,0.09,0,119,119,57,1,9_dist_green/trial8.png,,,1,9,greenverival,p,64,24,M,2021-02-20_12h19.23.511,exp11,2020.2.6,MacIntel,60,,,,,,,,,,,
,,,,,,,,,,,,,,a,1,0.613,space,0.188,0,120,120,169,1,0_targ_10_dist_green/trial20.png,,,0,10,greenverival,a,64,24,M,2021-02-20_12h19.23.511,exp11,2020.2.6,MacIntel,60,,,,,,,,,,,
,,,,,,,,,,,,,,a,1,0.632,space,0.102,0,121,121,138,1,0_targ_4_dist_green/trial14.png,,,0,4,greenverival,a,64,24,M,2021-02-20_12h19.23.511,exp11,2020.2.6,MacIntel,60,,,,,,,,,,,
,,,,,,,,,,,,,,a,1,0.862,space,0.073,0,122,122,198,1,0_targ_16_dist_green/trial24.png,,,0,16,greenverival,a,64,24,M,2021-02-20_12h19.23.511,exp11,2020.2.6,MacIntel,60,,,,,,,,,,,
,,,,,,,,,,,,,,a,1,0.858,space,0.105,0,123,123,192,1,0_targ_16_dist_green/trial18.png,,,0,16,greenverival,a,64,24,M,2021-02-20_12h19.23.511,exp11,2020.2.6,MacIntel,60,,,,,,,,,,,
,,,,,,,,,,,,,,a,1,0.544,space,0.052,0,124,124,151,1,0_targ_10_dist_green/trial2.png,,,0,10,greenverival,a,64,24,M,2021-02-20_12h19.23.511,exp11,2020.2.6,MacIntel,60,,,,,,,,,,,
,,,,,,,,,,,,,,p,1,0.666,space,0.075,0,125,125,88,1,15_dist_green/trial14.png,,,1,15,greenverival,p,64,24,M,2021-02-20_12h19.23.511,exp11,2020.2.6,MacIntel,60,,,,,,,,,,,
,,,,,,,,,,,,,,p,1,0.492,space,0.071,0,126,126,10,1,0_dist_green/trial11.png,,,1,0,greenverival,p,64,24,M,2021-02-20_12h19.23.511,exp11,2020.2.6,MacIntel,60,,,,,,,,,,,
,,,,,,,,,,,,,,p,1,0.495,space,0.119,0,127,127,38,1,3_dist_green/trial14.png,,,1,3,greenverival,p,64,24,M,2021-02-20_12h19.23.511,exp11,2020.2.6,MacIntel,60,,,,,,,,,,,
,,,,,,,,,,,,,,a,1,0.545,space,0.088,0,128,128,160,1,0_targ_10_dist_green/trial11.png,,,0,10,greenverival,a,64,24,M,2021-02-20_12h19.23.511,exp11,2020.2.6,MacIntel,60,,,,,,,,,,,
,,,,,,,,,,,,,,a,1,0.604,space,0.087,0,129,129,148,1,0_targ_4_dist_green/trial24.png,,,0,4,greenverival,a,64,24,M,2021-02-20_12h19.23.511,exp11,2020.2.6,MacIntel,60,,,,,,,,,,,
,,,,,,,,,,,,,,p,1,0.543,space,0.104,0,130,130,27,1,3_dist_green/trial3.png,,,1,3,greenverival,p,64,24,M,2021-02-20_12h19.23.511,exp11,2020.2.6,MacIntel,60,,,,,,,,,,,
,,,,,,,,,,,,,,a,1,0.591,space,0.253,0,131,131,119,1,0_targ_1_dist_green/trial20.png,,,0,1,greenverival,a,64,24,M,2021-02-20_12h19.23.511,exp11,2020.2.6,MacIntel,60,,,,,,,,,,,
,,,,,,,,,,,,,,a,1,0.754,space,0.277,0,132,132,165,1,0_targ_10_dist_green/trial16.png,,,0,10,greenverival,a,64,24,M,2021-02-20_12h19.23.511,exp11,2020.2.6,MacIntel,60,,,,,,,,,,,
,,,,,,,,,,,,,,a,1,0.518,space,0.088,0,133,133,130,1,0_targ_4_dist_green/trial6.png,,,0,4,greenverival,a,64,24,M,2021-02-20_12h19.23.511,exp11,2020.2.6,MacIntel,60,,,,,,,,,,,
,,,,,,,,,,,,,,a,1,0.875,space,0.076,0,134,134,139,1,0_targ_4_dist_green/trial15.png,,,0,4,greenverival,a,64,24,M,2021-02-20_12h19.23.511,exp11,2020.2.6,MacIntel,60,,,,,,,,,,,
,,,,,,,,,,,,,,p,1,0.662,space,0.121,0,135,135,28,1,3_dist_green/trial4.png,,,1,3,greenverival,p,64,24,M,2021-02-20_12h19.23.511,exp11,2020.2.6,MacIntel,60,,,,,,,,,,,
,,,,,,,,,,,,,,p,1,0.611,space,0.089,0,136,136,86,1,15_dist_green/trial12.png,,,1,15,greenverival,p,64,24,M,2021-02-20_12h19.23.511,exp11,2020.2.6,MacIntel,60,,,,,,,,,,,
,,,,,,,,,,,,,,p,1,0.498,space,0.005,0,137,137,21,1,0_dist_green/trial22.png,,,1,0,greenverival,p,64,24,M,2021-02-20_12h19.23.511,exp11,2020.2.6,MacIntel,60,,,,,,,,,,,
,,,,,,,,,,,,,,p,1,0.689,space,0.538,0,138,138,31,1,3_dist_green/trial7.png,,,1,3,greenverival,p,64,24,M,2021-02-20_12h19.23.511,exp11,2020.2.6,MacIntel,60,,,,,,,,,,,
,,,,,,,,,,,,,,p,1,0.56,space,0.137,0,139,139,92,1,15_dist_green/trial18.png,,,1,15,greenverival,p,64,24,M,2021-02-20_12h19.23.511,exp11,2020.2.6,MacIntel,60,,,,,,,,,,,
,,,,,,,,,,,,,,p,1,0.43,space,0.072,0,140,140,13,1,0_dist_green/trial14.png,,,1,0,greenverival,p,64,24,M,2021-02-20_12h19.23.511,exp11,2020.2.6,MacIntel,60,,,,,,,,,,,
,,,,,,,,,,,,,,p,1,0.425,space,0.272,0,141,141,23,1,0_dist_green/trial24.png,,,1,0,greenverival,p,64,24,M,2021-02-20_12h19.23.511,exp11,2020.2.6,MacIntel,60,,,,,,,,,,,
,,,,,,,,,,,,,,p,1,0.892,space,0.12,0,142,142,89,1,15_dist_green/trial15.png,,,1,15,greenverival,p,64,24,M,2021-02-20_12h19.23.511,exp11,2020.2.6,MacIntel,60,,,,,,,,,,,
,,,,,,,,,,,,,,p,1,0.476,space,0.143,0,143,143,39,1,3_dist_green/trial15.png,,,1,3,greenverival,p,64,24,M,2021-02-20_12h19.23.511,exp11,2020.2.6,MacIntel,60,,,,,,,,,,,
,,,,,,,,,,,,,,p,1,0.393,space,0.109,0,144,144,19,1,0_dist_green/trial20.png,,,1,0,greenverival,p,64,24,M,2021-02-20_12h19.23.511,exp11,2020.2.6,MacIntel,60,,,,,,,,,,,
,,,,,,,,,,,,,,p,1,0.399,space,0.143,0,145,145,43,1,3_dist_green/trial19.png,,,1,3,greenverival,p,64,24,M,2021-02-20_12h19.23.511,exp11,2020.2.6,MacIntel,60,,,,,,,,,,,
,,,,,,,,,,,,,,p,1,0.425,space,0.141,0,146,146,11,1,0_dist_green/trial12.png,,,1,0,greenverival,p,64,24,M,2021-02-20_12h19.23.511,exp11,2020.2.6,MacIntel,60,,,,,,,,,,,
,,,,,,,,,,,,,,p,1,0.379,space,0.1,0,147,147,14,1,0_dist_green/trial15.png,,,1,0,greenverival,p,64,24,M,2021-02-20_12h19.23.511,exp11,2020.2.6,MacIntel,60,,,,,,,,,,,
,,,,,,,,,,,,,,a,1,0.672,space,0.103,0,148,148,153,1,0_targ_10_dist_green/trial4.png,,,0,10,greenverival,a,64,24,M,2021-02-20_12h19.23.511,exp11,2020.2.6,MacIntel,60,,,,,,,,,,,
,,,,,,,,,,,,,,a,1,0.956,space,0.039,0,149,149,181,1,0_targ_16_dist_green/trial7.png,,,0,16,greenverival,a,64,24,M,2021-02-20_12h19.23.511,exp11,2020.2.6,MacIntel,60,,,,,,,,,,,
,,,,,,,,,,,,,,a,1,0.868,space,0.087,0,150,150,172,1,0_targ_10_dist_green/trial23.png,,,0,10,greenverival,a,64,24,M,2021-02-20_12h19.23.511,exp11,2020.2.6,MacIntel,60,,,,,,,,,,,
,,,,,,,,,,,,,,p,1,0.627,space,0.118,0,151,151,83,1,15_dist_green/trial9.png,,,1,15,greenverival,p,64,24,M,2021-02-20_12h19.23.511,exp11,2020.2.6,MacIntel,60,,,,,,,,,,,
,,,,,,,,,,,,,,a,1,0.888,space,0.088,0,152,152,159,1,0_targ_10_dist_green/trial10.png,,,0,10,greenverival,a,64,24,M,2021-02-20_12h19.23.511,exp11,2020.2.6,MacIntel,60,,,,,,,,,,,
,,,,,,,,,,,,,,a,1,0.593,space,0.07,0,153,153,109,1,0_targ_1_dist_green/trial10.png,,,0,1,greenverival,a,64,24,M,2021-02-20_12h19.23.511,exp11,2020.2.6,MacIntel,60,,,,,,,,,,,
,,,,,,,,,,,,,,p,1,0.673,space,0.068,0,154,154,81,1,15_dist_green/trial7.png,,,1,15,greenverival,p,64,24,M,2021-02-20_12h19.23.511,exp11,2020.2.6,MacIntel,60,,,,,,,,,,,
,,,,,,,,,,,,,,a,1,0.548,space,0.072,0,155,155,117,1,0_targ_1_dist_green/trial18.png,,,0,1,greenverival,a,64,24,M,2021-02-20_12h19.23.511,exp11,2020.2.6,MacIntel,60,,,,,,,,,,,
,,,,,,,,,,,,,,a,1,0.573,space,0.087,0,156,156,146,1,0_targ_4_dist_green/trial22.png,,,0,4,greenverival,a,64,24,M,2021-02-20_12h19.23.511,exp11,2020.2.6,MacIntel,60,,,,,,,,,,,
,,,,,,,,,,,,,,p,1,0.467,space,0.085,0,157,157,22,1,0_dist_green/trial23.png,,,1,0,greenverival,p,64,24,M,2021-02-20_12h19.23.511,exp11,2020.2.6,MacIntel,60,,,,,,,,,,,
,,,,,,,,,,,,,,a,1,0.728,space,0.155,0,158,158,179,1,0_targ_16_dist_green/trial5.png,,,0,16,greenverival,a,64,24,M,2021-02-20_12h19.23.511,exp11,2020.2.6,MacIntel,60,,,,,,,,,,,
,,,,,,,,,,,,,,p,1,0.508,space,0.096,0,159,159,1,1,0_dist_green/trial2.png,,,1,0,greenverival,p,64,24,M,2021-02-20_12h19.23.511,exp11,2020.2.6,MacIntel,60,,,,,,,,,,,
,,,,,,,,,,,,,,a,1,0.562,space,0.672,0,160,160,132,1,0_targ_4_dist_green/trial8.png,,,0,4,greenverival,a,64,24,M,2021-02-20_12h19.23.511,exp11,2020.2.6,MacIntel,60,,,,,,,,,,,
,,,,,,,,,,,,,,p,1,0.647,space,0.112,0,161,161,69,1,9_dist_green/trial20.png,,,1,9,greenverival,p,64,24,M,2021-02-20_12h19.23.511,exp11,2020.2.6,MacIntel,60,,,,,,,,,,,
,,,,,,,,,,,,,,a,1,1.155,space,0.088,0,162,162,186,1,0_targ_16_dist_green/trial12.png,,,0,16,greenverival,a,64,24,M,2021-02-20_12h19.23.511,exp11,2020.2.6,MacIntel,60,,,,,,,,,,,
,,,,,,,,,,,,,,a,0,0.778,space,0.856,0,163,163,26,1,3_dist_green/trial2.png,,,1,3,greenverival,p,64,24,M,2021-02-20_12h19.23.511,exp11,2020.2.6,MacIntel,60,,,,,,,,,,,
,,,,,,,,,,,,,,a,1,0.78,space,0.148,0,164,164,104,1,0_targ_1_dist_green/trial5.png,,,0,1,greenverival,a,64,24,M,2021-02-20_12h19.23.511,exp11,2020.2.6,MacIntel,60,,,,,,,,,,,
,,,,,,,,,,,,,,p,1,0.612,space,0.101,0,165,165,70,1,9_dist_green/trial21.png,,,1,9,greenverival,p,64,24,M,2021-02-20_12h19.23.511,exp11,2020.2.6,MacIntel,60,,,,,,,,,,,
,,,,,,,,,,,,,,a,1,0.608,space,0.109,0,166,166,191,1,0_targ_16_dist_green/trial17.png,,,0,16,greenverival,a,64,24,M,2021-02-20_12h19.23.511,exp11,2020.2.6,MacIntel,60,,,,,,,,,,,
,,,,,,,,,,,,,,a,1,0.776,space,0.068,0,167,167,182,1,0_targ_16_dist_green/trial8.png,,,0,16,greenverival,a,64,24,M,2021-02-20_12h19.23.511,exp11,2020.2.6,MacIntel,60,,,,,,,,,,,
,,,,,,,,,,,,,,a,1,0.641,space,0.124,0,168,168,145,1,0_targ_4_dist_green/trial21.png,,,0,4,greenverival,a,64,24,M,2021-02-20_12h19.23.511,exp11,2020.2.6,MacIntel,60,,,,,,,,,,,
,,,,,,,,,,,,,,a,1,0.91,space,0.34,0,169,169,121,1,0_targ_1_dist_green/trial22.png,,,0,1,greenverival,a,64,24,M,2021-02-20_12h19.23.511,exp11,2020.2.6,MacIntel,60,,,,,,,,,,,
,,,,,,,,,,,,,,a,1,0.526,space,0.205,0,170,170,157,1,0_targ_10_dist_green/trial8.png,,,0,10,greenverival,a,64,24,M,2021-02-20_12h19.23.511,exp11,2020.2.6,MacIntel,60,,,,,,,,,,,
,,,,,,,,,,,,,,a,1,0.829,space,0.026,0,171,171,188,1,0_targ_16_dist_green/trial14.png,,,0,16,greenverival,a,64,24,M,2021-02-20_12h19.23.511,exp11,2020.2.6,MacIntel,60,,,,,,,,,,,
,,,,,,,,,,,,,,p,1,0.718,space,0.091,0,172,172,77,1,15_dist_green/trial3.png,,,1,15,greenverival,p,64,24,M,2021-02-20_12h19.23.511,exp11,2020.2.6,MacIntel,60,,,,,,,,,,,
,,,,,,,,,,,,,,a,1,0.676,space,0.085,0,173,173,178,1,0_targ_16_dist_green/trial4.png,,,0,16,greenverival,a,64,24,M,2021-02-20_12h19.23.511,exp11,2020.2.6,MacIntel,60,,,,,,,,,,,
,,,,,,,,,,,,,,a,1,0.624,space,0.094,0,174,174,154,1,0_targ_10_dist_green/trial5.png,,,0,10,greenverival,a,64,24,M,2021-02-20_12h19.23.511,exp11,2020.2.6,MacIntel,60,,,,,,,,,,,
,,,,,,,,,,,,,,a,1,0.834,space,0.103,0,175,175,150,1,0_targ_10_dist_green/trial1.png,,,0,10,greenverival,a,64,24,M,2021-02-20_12h19.23.511,exp11,2020.2.6,MacIntel,60,,,,,,,,,,,
,,,,,,,,,,,,,,p,1,0.531,space,0.088,0,176,176,74,1,9_dist_green/trial25.png,,,1,9,greenverival,p,64,24,M,2021-02-20_12h19.23.511,exp11,2020.2.6,MacIntel,60,,,,,,,,,,,
,,,,,,,,,,,,,,a,1,0.807,space,0.081,0,177,177,183,1,0_targ_16_dist_green/trial9.png,,,0,16,greenverival,a,64,24,M,2021-02-20_12h19.23.511,exp11,2020.2.6,MacIntel,60,,,,,,,,,,,
,,,,,,,,,,,,,,p,1,0.698,space,0.124,0,178,178,6,1,0_dist_green/trial7.png,,,1,0,greenverival,p,64,24,M,2021-02-20_12h19.23.511,exp11,2020.2.6,MacIntel,60,,,,,,,,,,,
,,,,,,,,,,,,,,a,1,0.578,space,0.502,0,179,179,147,1,0_targ_4_dist_green/trial23.png,,,0,4,greenverival,a,64,24,M,2021-02-20_12h19.23.511,exp11,2020.2.6,MacIntel,60,,,,,,,,,,,
,,,,,,,,,,,,,,a,1,0.597,space,0.208,0,180,180,116,1,0_targ_1_dist_green/trial17.png,,,0,1,greenverival,a,64,24,M,2021-02-20_12h19.23.511,exp11,2020.2.6,MacIntel,60,,,,,,,,,,,
,,,,,,,,,,,,,,p,1,0.693,space,0.123,0,181,181,59,1,9_dist_green/trial10.png,,,1,9,greenverival,p,64,24,M,2021-02-20_12h19.23.511,exp11,2020.2.6,MacIntel,60,,,,,,,,,,,
,,,,,,,,,,,,,,a,1,0.596,space,0.32,0,182,182,167,1,0_targ_10_dist_green/trial18.png,,,0,10,greenverival,a,64,24,M,2021-02-20_12h19.23.511,exp11,2020.2.6,MacIntel,60,,,,,,,,,,,
,,,,,,,,,,,,,,p,1,0.455,space,0.221,0,183,183,62,1,9_dist_green/trial13.png,,,1,9,greenverival,p,64,24,M,2021-02-20_12h19.23.511,exp11,2020.2.6,MacIntel,60,,,,,,,,,,,
,,,,,,,,,,,,,,a,1,0.633,space,0.156,0,184,184,113,1,0_targ_1_dist_green/trial14.png,,,0,1,greenverival,a,64,24,M,2021-02-20_12h19.23.511,exp11,2020.2.6,MacIntel,60,,,,,,,,,,,
,,,,,,,,,,,,,,p,1,0.442,space,0.311,0,185,185,44,1,3_dist_green/trial20.png,,,1,3,greenverival,p,64,24,M,2021-02-20_12h19.23.511,exp11,2020.2.6,MacIntel,60,,,,,,,,,,,
,,,,,,,,,,,,,,p,1,0.509,space,0.121,0,186,186,5,1,0_dist_green/trial6.png,,,1,0,greenverival,p,64,24,M,2021-02-20_12h19.23.511,exp11,2020.2.6,MacIntel,60,,,,,,,,,,,
,,,,,,,,,,,,,,a,1,0.526,space,0.225,0,187,187,126,1,0_targ_4_dist_green/trial2.png,,,0,4,greenverival,a,64,24,M,2021-02-20_12h19.23.511,exp11,2020.2.6,MacIntel,60,,,,,,,,,,,
,,,,,,,,,,,,,,p,1,0.408,space,0.205,0,188,188,35,1,3_dist_green/trial11.png,,,1,3,greenverival,p,64,24,M,2021-02-20_12h19.23.511,exp11,2020.2.6,MacIntel,60,,,,,,,,,,,
,,,,,,,,,,,,,,p,1,0.947,space,0.121,0,189,189,71,1,9_dist_green/trial22.png,,,1,9,greenverival,p,64,24,M,2021-02-20_12h19.23.511,exp11,2020.2.6,MacIntel,60,,,,,,,,,,,
,,,,,,,,,,,,,,a,1,0.626,space,0.16,0,190,190,184,1,0_targ_16_dist_green/trial10.png,,,0,16,greenverival,a,64,24,M,2021-02-20_12h19.23.511,exp11,2020.2.6,MacIntel,60,,,,,,,,,,,
,,,,,,,,,,,,,,a,1,0.611,space,0.121,0,191,191,197,1,0_targ_16_dist_green/trial23.png,,,0,16,greenverival,a,64,24,M,2021-02-20_12h19.23.511,exp11,2020.2.6,MacIntel,60,,,,,,,,,,,
,,,,,,,,,,,,,,p,1,0.528,space,0.101,0,192,192,41,1,3_dist_green/trial17.png,,,1,3,greenverival,p,64,24,M,2021-02-20_12h19.23.511,exp11,2020.2.6,MacIntel,60,,,,,,,,,,,
,,,,,,,,,,,,,,p,1,0.858,space,0.119,0,193,193,50,1,9_dist_green/trial1.png,,,1,9,greenverival,p,64,24,M,2021-02-20_12h19.23.511,exp11,2020.2.6,MacIntel,60,,,,,,,,,,,
,,,,,,,,,,,,,,a,1,0.563,space,0.072,0,194,194,131,1,0_targ_4_dist_green/trial7.png,,,0,4,greenverival,a,64,24,M,2021-02-20_12h19.23.511,exp11,2020.2.6,MacIntel,60,,,,,,,,,,,
,,,,,,,,,,,,,,a,1,0.743,space,0.075,0,195,195,162,1,0_targ_10_dist_green/trial13.png,,,0,10,greenverival,a,64,24,M,2021-02-20_12h19.23.511,exp11,2020.2.6,MacIntel,60,,,,,,,,,,,
,,,,,,,,,,,,,,a,1,0.531,space,0.072,0,196,196,135,1,0_targ_4_dist_green/trial11.png,,,0,4,greenverival,a,64,24,M,2021-02-20_12h19.23.511,exp11,2020.2.6,MacIntel,60,,,,,,,,,,,
,,,,,,,,,,,,,,a,1,0.461,space,0.092,0,197,197,140,1,0_targ_4_dist_green/trial6.png,,,0,4,greenverival,a,64,24,M,2021-02-20_12h19.23.511,exp11,2020.2.6,MacIntel,60,,,,,,,,,,,
,,,,,,,,,,,,,,p,1,0.573,space,0.109,0,198,198,90,1,15_dist_green/trial16.png,,,1,15,greenverival,p,64,24,M,2021-02-20_12h19.23.511,exp11,2020.2.6,MacIntel,60,,,,,,,,,,,
,,,,,,,,,,,,,,a,1,0.675,space,0.143,0,199,199,120,1,0_targ_1_dist_green/trial21.png,,,0,1,greenverival,a,64,24,M,2021-02-20_12h19.23.511,exp11,2020.2.6,MacIntel,60,,,,,,,,,,,
,,,,,,,,,,,,,,,,,,,,,,,,,,,,,,,64,24,M,2021-02-20_12h19.23.511,exp11,2020.2.6,MacIntel,60,0,1,1,0,1,conGreen.xlsx,green vertical,Look for green vertical bar (target) and indicate if it is present or absent in the array. If green vertical target is present press 'p' and if absent press 'a'. Press SPACE to start.,,,
