key_resp_6.keys,key_resp_6.rt,key_resp_7.keys,key_resp_7.rt,key_resp_8.keys,key_resp_8.rt,key_resp_10.keys,key_resp_10.rt,key_resp_9.keys,key_resp_9.rt,key_resp_3.keys,key_resp_3.rt,key_resp_5.keys,key_resp_5.rt,key_resp.keys,key_resp.corr,key_resp.rt,key_resp_4.keys,key_resp_4.rt,trials.thisRepN,trials.thisTrialN,trials.thisN,trials.thisIndex,trials.ran,ImageFile,tarPos,tarSize,targPres,numDist,targetName,correctAns,participant,age,sex,date,expName,psychopyVersion,OS,frameRate,trials_2.thisRepN,trials_2.thisTrialN,trials_2.thisN,trials_2.thisIndex,trials_2.ran,condsFile,targName,instructionText,colTarget,sizeTarg,posit
space,9.461765,space,9.323375,space,10.11022,space,17.050775,space,26.653725,space,21.49563,space,5.003685,p,1,0.70348,space,4.81507,0,0,0,12,1,0_dist_red/trial13.png,,,1,0,redHorizontal,p,70,20,Female,2021-02-17_11h24.38.873,exp11,2020.2.6,Win32,60,,,,,,,,,,,
,,,,,,,,,,,,,,p,1,0.492,space,0.657765,0,1,1,22,1,0_dist_red/trial23.png,,,1,0,redHorizontal,p,70,20,Female,2021-02-17_11h24.38.873,exp11,2020.2.6,Win32,60,,,,,,,,,,,
,,,,,,,,,,,,,,a,1,0.83264,space,0.394325,0,2,2,121,1,0_targ_1_dist_red/trial22.png,,,0,1,redHorizontal,a,70,20,Female,2021-02-17_11h24.38.873,exp11,2020.2.6,Win32,60,,,,,,,,,,,
,,,,,,,,,,,,,,p,1,0.789395,space,1.467265,0,3,3,74,1,9_dist_red/trial25.png,,,1,9,redHorizontal,p,70,20,Female,2021-02-17_11h24.38.873,exp11,2020.2.6,Win32,60,,,,,,,,,,,
,,,,,,,,,,,,,,a,1,0.846855,space,0.576125,0,4,4,146,1,0_targ_4_dist_red/trial22.png,,,0,4,redHorizontal,a,70,20,Female,2021-02-17_11h24.38.873,exp11,2020.2.6,Win32,60,,,,,,,,,,,
,,,,,,,,,,,,,,a,1,0.71587,space,0.55444,0,5,5,126,1,0_targ_4_dist_red/trial2.png,,,0,4,redHorizontal,a,70,20,Female,2021-02-17_11h24.38.873,exp11,2020.2.6,Win32,60,,,,,,,,,,,
,,,,,,,,,,,,,,p,1,0.58361,space,0.87608,0,6,6,1,1,0_dist_red/trial2.png,,,1,0,redHorizontal,p,70,20,Female,2021-02-17_11h24.38.873,exp11,2020.2.6,Win32,60,,,,,,,,,,,
,,,,,,,,,,,,,,a,1,0.620125,space,0.552625,0,7,7,106,1,0_targ_1_dist_red/trial7.png,,,0,1,redHorizontal,a,70,20,Female,2021-02-17_11h24.38.873,exp11,2020.2.6,Win32,60,,,,,,,,,,,
,,,,,,,,,,,,,,a,1,1.262995,space,0.50966,0,8,8,198,1,0_targ_16_dist_red/trial24.png,,,0,16,redHorizontal,a,70,20,Female,2021-02-17_11h24.38.873,exp11,2020.2.6,Win32,60,,,,,,,,,,,
,,,,,,,,,,,,,,p,1,0.798095,space,0.466265,0,9,9,64,1,9_dist_red/trial15.png,,,1,9,redHorizontal,p,70,20,Female,2021-02-17_11h24.38.873,exp11,2020.2.6,Win32,60,,,,,,,,,,,
,,,,,,,,,,,,,,p,1,1.253915,space,0.59638,0,10,10,79,1,15_dist_red/trial5.png,,,1,15,redHorizontal,p,70,20,Female,2021-02-17_11h24.38.873,exp11,2020.2.6,Win32,60,,,,,,,,,,,
,,,,,,,,,,,,,,p,1,0.90374,space,0.71938,0,11,11,8,1,0_dist_red/trial9.png,,,1,0,redHorizontal,p,70,20,Female,2021-02-17_11h24.38.873,exp11,2020.2.6,Win32,60,,,,,,,,,,,
,,,,,,,,,,,,,,a,1,1.086775,space,0.57716,0,12,12,108,1,0_targ_1_dist_red/trial9.png,,,0,1,redHorizontal,a,70,20,Female,2021-02-17_11h24.38.873,exp11,2020.2.6,Win32,60,,,,,,,,,,,
,,,,,,,,,,,,,,a,1,0.78813,space,0.54191,0,13,13,160,1,0_targ_10_dist_red/trial11.png,,,0,10,redHorizontal,a,70,20,Female,2021-02-17_11h24.38.873,exp11,2020.2.6,Win32,60,,,,,,,,,,,
,,,,,,,,,,,,,,a,1,0.875325,space,0.52048,0,14,14,193,1,0_targ_16_dist_red/trial19.png,,,0,16,redHorizontal,a,70,20,Female,2021-02-17_11h24.38.873,exp11,2020.2.6,Win32,60,,,,,,,,,,,
,,,,,,,,,,,,,,p,1,0.63959,space,0.571285,0,15,15,3,1,0_dist_red/trial4.png,,,1,0,redHorizontal,p,70,20,Female,2021-02-17_11h24.38.873,exp11,2020.2.6,Win32,60,,,,,,,,,,,
,,,,,,,,,,,,,,a,1,0.670595,space,0.538335,0,16,16,119,1,0_targ_1_dist_red/trial20.png,,,0,1,redHorizontal,a,70,20,Female,2021-02-17_11h24.38.873,exp11,2020.2.6,Win32,60,,,,,,,,,,,
,,,,,,,,,,,,,,a,1,0.940455,space,0.57704,0,17,17,132,1,0_targ_4_dist_red/trial8.png,,,0,4,redHorizontal,a,70,20,Female,2021-02-17_11h24.38.873,exp11,2020.2.6,Win32,60,,,,,,,,,,,
,,,,,,,,,,,,,,p,1,0.677875,space,0.63294,0,18,18,21,1,0_dist_red/trial22.png,,,1,0,redHorizontal,p,70,20,Female,2021-02-17_11h24.38.873,exp11,2020.2.6,Win32,60,,,,,,,,,,,
,,,,,,,,,,,,,,a,0,0.850355,space,0.239035,0,19,19,66,1,9_dist_red/trial17.png,,,1,9,redHorizontal,p,70,20,Female,2021-02-17_11h24.38.873,exp11,2020.2.6,Win32,60,,,,,,,,,,,
,,,,,,,,,,,,,,p,1,1.38535,space,0.394765,0,20,20,68,1,9_dist_red/trial19.png,,,1,9,redHorizontal,p,70,20,Female,2021-02-17_11h24.38.873,exp11,2020.2.6,Win32,60,,,,,,,,,,,
,,,,,,,,,,,,,,a,0,0.735035,space,1.83587,0,21,21,70,1,9_dist_red/trial21.png,,,1,9,redHorizontal,p,70,20,Female,2021-02-17_11h24.38.873,exp11,2020.2.6,Win32,60,,,,,,,,,,,
,,,,,,,,,,,,,,a,1,1.144715,space,0.626875,0,22,22,150,1,0_targ_10_dist_red/trial1.png,,,0,10,redHorizontal,a,70,20,Female,2021-02-17_11h24.38.873,exp11,2020.2.6,Win32,60,,,,,,,,,,,
,,,,,,,,,,,,,,p,1,0.74168,space,0.45526,0,23,23,53,1,9_dist_red/trial4.png,,,1,9,redHorizontal,p,70,20,Female,2021-02-17_11h24.38.873,exp11,2020.2.6,Win32,60,,,,,,,,,,,
,,,,,,,,,,,,,,a,1,0.75943,space,0.469205,0,24,24,185,1,0_targ_16_dist_red/trial11.png,,,0,16,redHorizontal,a,70,20,Female,2021-02-17_11h24.38.873,exp11,2020.2.6,Win32,60,,,,,,,,,,,
,,,,,,,,,,,,,,p,1,0.76144,space,0.442055,0,25,25,89,1,15_dist_red/trial15.png,,,1,15,redHorizontal,p,70,20,Female,2021-02-17_11h24.38.873,exp11,2020.2.6,Win32,60,,,,,,,,,,,
,,,,,,,,,,,,,,a,1,0.647,space,0.43699,0,26,26,157,1,0_targ_10_dist_red/trial8.png,,,0,10,redHorizontal,a,70,20,Female,2021-02-17_11h24.38.873,exp11,2020.2.6,Win32,60,,,,,,,,,,,
,,,,,,,,,,,,,,a,1,0.79621,space,0.43572,0,27,27,188,1,0_targ_16_dist_red/trial14.png,,,0,16,redHorizontal,a,70,20,Female,2021-02-17_11h24.38.873,exp11,2020.2.6,Win32,60,,,,,,,,,,,
,,,,,,,,,,,,,,a,1,0.8208,space,0.37553,0,28,28,113,1,0_targ_1_dist_red/trial14.png,,,0,1,redHorizontal,a,70,20,Female,2021-02-17_11h24.38.873,exp11,2020.2.6,Win32,60,,,,,,,,,,,
,,,,,,,,,,,,,,p,1,0.74145,space,0.41814,0,29,29,19,1,0_dist_red/trial20.png,,,1,0,redHorizontal,p,70,20,Female,2021-02-17_11h24.38.873,exp11,2020.2.6,Win32,60,,,,,,,,,,,
,,,,,,,,,,,,,,p,1,0.604485,space,0.398725,0,30,30,9,1,0_dist_red/trial10.png,,,1,0,redHorizontal,p,70,20,Female,2021-02-17_11h24.38.873,exp11,2020.2.6,Win32,60,,,,,,,,,,,
,,,,,,,,,,,,,,a,1,1.891805,space,0.444475,0,31,31,176,1,0_targ_16_dist_red/trial2.png,,,0,16,redHorizontal,a,70,20,Female,2021-02-17_11h24.38.873,exp11,2020.2.6,Win32,60,,,,,,,,,,,
,,,,,,,,,,,,,,p,1,0.89242,space,0.604555,0,32,32,30,1,3_dist_red/trial6.png,,,1,3,redHorizontal,p,70,20,Female,2021-02-17_11h24.38.873,exp11,2020.2.6,Win32,60,,,,,,,,,,,
,,,,,,,,,,,,,,a,1,0.63794,space,0.53829,0,33,33,109,1,0_targ_1_dist_red/trial10.png,,,0,1,redHorizontal,a,70,20,Female,2021-02-17_11h24.38.873,exp11,2020.2.6,Win32,60,,,,,,,,,,,
,,,,,,,,,,,,,,a,1,0.591575,space,0.440095,0,34,34,134,1,0_targ_4_dist_red/trial10.png,,,0,4,redHorizontal,a,70,20,Female,2021-02-17_11h24.38.873,exp11,2020.2.6,Win32,60,,,,,,,,,,,
,,,,,,,,,,,,,,p,1,0.58387,space,0.45201,0,35,35,6,1,0_dist_red/trial7.png,,,1,0,redHorizontal,p,70,20,Female,2021-02-17_11h24.38.873,exp11,2020.2.6,Win32,60,,,,,,,,,,,
,,,,,,,,,,,,,,a,1,0.759545,space,0.45501,0,36,36,169,1,0_targ_10_dist_red/trial20.png,,,0,10,redHorizontal,a,70,20,Female,2021-02-17_11h24.38.873,exp11,2020.2.6,Win32,60,,,,,,,,,,,
,,,,,,,,,,,,,,p,1,1.005435,space,0.403985,0,37,37,32,1,3_dist_red/trial8.png,,,1,3,redHorizontal,p,70,20,Female,2021-02-17_11h24.38.873,exp11,2020.2.6,Win32,60,,,,,,,,,,,
,,,,,,,,,,,,,,a,1,0.85532,space,0.40315,0,38,38,144,1,0_targ_4_dist_red/trial20.png,,,0,4,redHorizontal,a,70,20,Female,2021-02-17_11h24.38.873,exp11,2020.2.6,Win32,60,,,,,,,,,,,
,,,,,,,,,,,,,,a,0,1.199405,space,1.670415,0,39,39,78,1,15_dist_red/trial4.png,,,1,15,redHorizontal,p,70,20,Female,2021-02-17_11h24.38.873,exp11,2020.2.6,Win32,60,,,,,,,,,,,
,,,,,,,,,,,,,,p,1,0.56443,space,0.435925,0,40,40,17,1,0_dist_red/trial18.png,,,1,0,redHorizontal,p,70,20,Female,2021-02-17_11h24.38.873,exp11,2020.2.6,Win32,60,,,,,,,,,,,
,,,,,,,,,,,,,,p,1,0.864405,space,0.649455,0,41,41,83,1,15_dist_red/trial9.png,,,1,15,redHorizontal,p,70,20,Female,2021-02-17_11h24.38.873,exp11,2020.2.6,Win32,60,,,,,,,,,,,
,,,,,,,,,,,,,,a,0,1.05627,space,0.955855,0,42,42,80,1,15_dist_red/trial6.png,,,1,15,redHorizontal,p,70,20,Female,2021-02-17_11h24.38.873,exp11,2020.2.6,Win32,60,,,,,,,,,,,
,,,,,,,,,,,,,,a,1,1.156165,space,0.380925,0,43,43,111,1,0_targ_1_dist_red/trial12.png,,,0,1,redHorizontal,a,70,20,Female,2021-02-17_11h24.38.873,exp11,2020.2.6,Win32,60,,,,,,,,,,,
,,,,,,,,,,,,,,a,1,0.683105,space,0.36866,0,44,44,129,1,0_targ_4_dist_red/trial5.png,,,0,4,redHorizontal,a,70,20,Female,2021-02-17_11h24.38.873,exp11,2020.2.6,Win32,60,,,,,,,,,,,
,,,,,,,,,,,,,,p,1,0.99026,space,0.44857,0,45,45,69,1,9_dist_red/trial20.png,,,1,9,redHorizontal,p,70,20,Female,2021-02-17_11h24.38.873,exp11,2020.2.6,Win32,60,,,,,,,,,,,
,,,,,,,,,,,,,,p,1,0.92133,space,0.367035,0,46,46,72,1,9_dist_red/trial23.png,,,1,9,redHorizontal,p,70,20,Female,2021-02-17_11h24.38.873,exp11,2020.2.6,Win32,60,,,,,,,,,,,
,,,,,,,,,,,,,,a,1,1.5083,space,0.351525,0,47,47,141,1,0_targ_4_dist_red/trial17.png,,,0,4,redHorizontal,a,70,20,Female,2021-02-17_11h24.38.873,exp11,2020.2.6,Win32,60,,,,,,,,,,,
,,,,,,,,,,,,,,p,1,0.86086,space,0.328125,0,48,48,33,1,3_dist_red/trial9.png,,,1,3,redHorizontal,p,70,20,Female,2021-02-17_11h24.38.873,exp11,2020.2.6,Win32,60,,,,,,,,,,,
,,,,,,,,,,,,,,a,1,0.957235,space,0.306595,0,49,49,152,1,0_targ_10_dist_red/trial3.png,,,0,10,redHorizontal,a,70,20,Female,2021-02-17_11h24.38.873,exp11,2020.2.6,Win32,60,,,,,,,,,,,
,,,,,,,,,,,,,,a,1,1.02953,space,0.417205,0,50,50,123,1,0_targ_1_dist_red/trial24.png,,,0,1,redHorizontal,a,70,20,Female,2021-02-17_11h24.38.873,exp11,2020.2.6,Win32,60,,,,,,,,,,,
,,,,,,,,,,,,,,a,1,0.91862,space,0.360855,0,51,51,179,1,0_targ_16_dist_red/trial5.png,,,0,16,redHorizontal,a,70,20,Female,2021-02-17_11h24.38.873,exp11,2020.2.6,Win32,60,,,,,,,,,,,
,,,,,,,,,,,,,,p,1,1.07256,space,0.41701,0,52,52,52,1,9_dist_red/trial3.png,,,1,9,redHorizontal,p,70,20,Female,2021-02-17_11h24.38.873,exp11,2020.2.6,Win32,60,,,,,,,,,,,
,,,,,,,,,,,,,,a,1,0.7259,space,0.382865,0,53,53,197,1,0_targ_16_dist_red/trial23.png,,,0,16,redHorizontal,a,70,20,Female,2021-02-17_11h24.38.873,exp11,2020.2.6,Win32,60,,,,,,,,,,,
,,,,,,,,,,,,,,a,1,0.839805,space,0.406775,0,54,54,186,1,0_targ_16_dist_red/trial12.png,,,0,16,redHorizontal,a,70,20,Female,2021-02-17_11h24.38.873,exp11,2020.2.6,Win32,60,,,,,,,,,,,
,,,,,,,,,,,,,,a,1,0.85712,space,0.370305,0,55,55,156,1,0_targ_10_dist_red/trial7.png,,,0,10,redHorizontal,a,70,20,Female,2021-02-17_11h24.38.873,exp11,2020.2.6,Win32,60,,,,,,,,,,,
,,,,,,,,,,,,,,a,1,0.907745,space,0.357495,0,56,56,101,1,0_targ_1_dist_red/trial2.png,,,0,1,redHorizontal,a,70,20,Female,2021-02-17_11h24.38.873,exp11,2020.2.6,Win32,60,,,,,,,,,,,
,,,,,,,,,,,,,,a,1,1.362685,space,0.403315,0,57,57,161,1,0_targ_10_dist_red/trial12.png,,,0,10,redHorizontal,a,70,20,Female,2021-02-17_11h24.38.873,exp11,2020.2.6,Win32,60,,,,,,,,,,,
,,,,,,,,,,,,,,a,1,1.149715,space,0.381165,0,58,58,114,1,0_targ_1_dist_red/trial15.png,,,0,1,redHorizontal,a,70,20,Female,2021-02-17_11h24.38.873,exp11,2020.2.6,Win32,60,,,,,,,,,,,
,,,,,,,,,,,,,,p,1,0.60364,space,0.3871,0,59,59,23,1,0_dist_red/trial24.png,,,1,0,redHorizontal,p,70,20,Female,2021-02-17_11h24.38.873,exp11,2020.2.6,Win32,60,,,,,,,,,,,
,,,,,,,,,,,,,,p,1,0.759485,space,0.3509,0,60,60,29,1,3_dist_red/trial5.png,,,1,3,redHorizontal,p,70,20,Female,2021-02-17_11h24.38.873,exp11,2020.2.6,Win32,60,,,,,,,,,,,
,,,,,,,,,,,,,,a,1,0.76545,space,0.3381,0,61,61,127,1,0_targ_4_dist_red/trial3.png,,,0,4,redHorizontal,a,70,20,Female,2021-02-17_11h24.38.873,exp11,2020.2.6,Win32,60,,,,,,,,,,,
,,,,,,,,,,,,,,a,1,0.87249,space,0.338165,0,62,62,199,1,0_targ_16_dist_red/trial25.png,,,0,16,redHorizontal,a,70,20,Female,2021-02-17_11h24.38.873,exp11,2020.2.6,Win32,60,,,,,,,,,,,
,,,,,,,,,,,,,,a,1,0.842165,space,0.337335,0,63,63,122,1,0_targ_1_dist_red/trial23.png,,,0,1,redHorizontal,a,70,20,Female,2021-02-17_11h24.38.873,exp11,2020.2.6,Win32,60,,,,,,,,,,,
,,,,,,,,,,,,,,a,1,0.717005,space,0.33864,0,64,64,168,1,0_targ_10_dist_red/trial19.png,,,0,10,redHorizontal,a,70,20,Female,2021-02-17_11h24.38.873,exp11,2020.2.6,Win32,60,,,,,,,,,,,
,,,,,,,,,,,,,,p,1,0.882435,space,0.36885,0,65,65,60,1,9_dist_red/trial11.png,,,1,9,redHorizontal,p,70,20,Female,2021-02-17_11h24.38.873,exp11,2020.2.6,Win32,60,,,,,,,,,,,
,,,,,,,,,,,,,,a,1,0.939935,space,0.375095,0,66,66,191,1,0_targ_16_dist_red/trial17.png,,,0,16,redHorizontal,a,70,20,Female,2021-02-17_11h24.38.873,exp11,2020.2.6,Win32,60,,,,,,,,,,,
,,,,,,,,,,,,,,p,1,0.8359,space,0.400055,0,67,67,86,1,15_dist_red/trial12.png,,,1,15,redHorizontal,p,70,20,Female,2021-02-17_11h24.38.873,exp11,2020.2.6,Win32,60,,,,,,,,,,,
,,,,,,,,,,,,,,p,1,0.81079,space,0.373925,0,68,68,76,1,15_dist_red/trial2.png,,,1,15,redHorizontal,p,70,20,Female,2021-02-17_11h24.38.873,exp11,2020.2.6,Win32,60,,,,,,,,,,,
,,,,,,,,,,,,,,p,1,0.88058,space,0.36603,0,69,69,0,1,0_dist_red/trial1.png,,,1,0,redHorizontal,p,70,20,Female,2021-02-17_11h24.38.873,exp11,2020.2.6,Win32,60,,,,,,,,,,,
,,,,,,,,,,,,,,p,1,0.922505,space,0.371335,0,70,70,27,1,3_dist_red/trial3.png,,,1,3,redHorizontal,p,70,20,Female,2021-02-17_11h24.38.873,exp11,2020.2.6,Win32,60,,,,,,,,,,,
,,,,,,,,,,,,,,p,1,0.821335,space,0.35295,0,71,71,96,1,15_dist_red/trial22.png,,,1,15,redHorizontal,p,70,20,Female,2021-02-17_11h24.38.873,exp11,2020.2.6,Win32,60,,,,,,,,,,,
,,,,,,,,,,,,,,p,1,0.814255,space,0.33991,0,72,72,56,1,9_dist_red/trial7.png,,,1,9,redHorizontal,p,70,20,Female,2021-02-17_11h24.38.873,exp11,2020.2.6,Win32,60,,,,,,,,,,,
,,,,,,,,,,,,,,a,1,0.921345,space,0.350465,0,73,73,175,1,0_targ_16_dist_red/trial1.png,,,0,16,redHorizontal,a,70,20,Female,2021-02-17_11h24.38.873,exp11,2020.2.6,Win32,60,,,,,,,,,,,
,,,,,,,,,,,,,,a,1,0.965335,space,0.4054,0,74,74,112,1,0_targ_1_dist_red/trial13.png,,,0,1,redHorizontal,a,70,20,Female,2021-02-17_11h24.38.873,exp11,2020.2.6,Win32,60,,,,,,,,,,,
,,,,,,,,,,,,,,a,1,1.056195,space,0.33687,0,75,75,125,1,0_targ_4_dist_red/trial1.png,,,0,4,redHorizontal,a,70,20,Female,2021-02-17_11h24.38.873,exp11,2020.2.6,Win32,60,,,,,,,,,,,
,,,,,,,,,,,,,,p,1,1.152515,space,0.38241,0,76,76,54,1,9_dist_red/trial5.png,,,1,9,redHorizontal,p,70,20,Female,2021-02-17_11h24.38.873,exp11,2020.2.6,Win32,60,,,,,,,,,,,
,,,,,,,,,,,,,,a,1,1.07394,space,0.510135,0,77,77,158,1,0_targ_10_dist_red/trial9.png,,,0,10,redHorizontal,a,70,20,Female,2021-02-17_11h24.38.873,exp11,2020.2.6,Win32,60,,,,,,,,,,,
,,,,,,,,,,,,,,a,1,0.690475,space,0.336865,0,78,78,177,1,0_targ_16_dist_red/trial3.png,,,0,16,redHorizontal,a,70,20,Female,2021-02-17_11h24.38.873,exp11,2020.2.6,Win32,60,,,,,,,,,,,
,,,,,,,,,,,,,,p,1,0.73618,space,0.351165,0,79,79,87,1,15_dist_red/trial13.png,,,1,15,redHorizontal,p,70,20,Female,2021-02-17_11h24.38.873,exp11,2020.2.6,Win32,60,,,,,,,,,,,
,,,,,,,,,,,,,,p,1,0.96005,space,0.33537,0,80,80,48,1,3_dist_red/trial24.png,,,1,3,redHorizontal,p,70,20,Female,2021-02-17_11h24.38.873,exp11,2020.2.6,Win32,60,,,,,,,,,,,
,,,,,,,,,,,,,,a,1,0.7319,space,0.332495,0,81,81,149,1,0_targ_4_dist_red/trial25.png,,,0,4,redHorizontal,a,70,20,Female,2021-02-17_11h24.38.873,exp11,2020.2.6,Win32,60,,,,,,,,,,,
,,,,,,,,,,,,,,p,1,1.53644,space,0.385065,0,82,82,92,1,15_dist_red/trial18.png,,,1,15,redHorizontal,p,70,20,Female,2021-02-17_11h24.38.873,exp11,2020.2.6,Win32,60,,,,,,,,,,,
,,,,,,,,,,,,,,p,1,0.702775,space,0.37457,0,83,83,94,1,15_dist_red/trial20.png,,,1,15,redHorizontal,p,70,20,Female,2021-02-17_11h24.38.873,exp11,2020.2.6,Win32,60,,,,,,,,,,,
,,,,,,,,,,,,,,a,1,0.736245,space,0.28828,0,84,84,148,1,0_targ_4_dist_red/trial24.png,,,0,4,redHorizontal,a,70,20,Female,2021-02-17_11h24.38.873,exp11,2020.2.6,Win32,60,,,,,,,,,,,
,,,,,,,,,,,,,,p,1,1.02363,space,0.323765,0,85,85,65,1,9_dist_red/trial16.png,,,1,9,redHorizontal,p,70,20,Female,2021-02-17_11h24.38.873,exp11,2020.2.6,Win32,60,,,,,,,,,,,
,,,,,,,,,,,,,,a,1,1.090745,space,0.26232,0,86,86,142,1,0_targ_4_dist_red/trial18.png,,,0,4,redHorizontal,a,70,20,Female,2021-02-17_11h24.38.873,exp11,2020.2.6,Win32,60,,,,,,,,,,,
,,,,,,,,,,,,,,p,1,0.70978,space,0.31649,0,87,87,47,1,3_dist_red/trial23.png,,,1,3,redHorizontal,p,70,20,Female,2021-02-17_11h24.38.873,exp11,2020.2.6,Win32,60,,,,,,,,,,,
,,,,,,,,,,,,,,p,1,0.69051,space,0.357135,0,88,88,43,1,3_dist_red/trial19.png,,,1,3,redHorizontal,p,70,20,Female,2021-02-17_11h24.38.873,exp11,2020.2.6,Win32,60,,,,,,,,,,,
,,,,,,,,,,,,,,p,1,1.129985,space,0.360245,0,89,89,95,1,15_dist_red/trial21.png,,,1,15,redHorizontal,p,70,20,Female,2021-02-17_11h24.38.873,exp11,2020.2.6,Win32,60,,,,,,,,,,,
,,,,,,,,,,,,,,a,1,0.991285,space,0.3249,0,90,90,105,1,0_targ_1_dist_red/trial6.png,,,0,1,redHorizontal,a,70,20,Female,2021-02-17_11h24.38.873,exp11,2020.2.6,Win32,60,,,,,,,,,,,
,,,,,,,,,,,,,,p,1,0.663415,space,0.28673,0,91,91,46,1,3_dist_red/trial22.png,,,1,3,redHorizontal,p,70,20,Female,2021-02-17_11h24.38.873,exp11,2020.2.6,Win32,60,,,,,,,,,,,
,,,,,,,,,,,,,,p,1,0.96465,space,0.35981,0,92,92,67,1,9_dist_red/trial18.png,,,1,9,redHorizontal,p,70,20,Female,2021-02-17_11h24.38.873,exp11,2020.2.6,Win32,60,,,,,,,,,,,
,,,,,,,,,,,,,,p,1,0.63666,space,0.33814,0,93,93,2,1,0_dist_red/trial3.png,,,1,0,redHorizontal,p,70,20,Female,2021-02-17_11h24.38.873,exp11,2020.2.6,Win32,60,,,,,,,,,,,
,,,,,,,,,,,,,,a,1,1.113415,space,0.318325,0,94,94,151,1,0_targ_10_dist_red/trial2.png,,,0,10,redHorizontal,a,70,20,Female,2021-02-17_11h24.38.873,exp11,2020.2.6,Win32,60,,,,,,,,,,,
,,,,,,,,,,,,,,a,1,0.77634,space,0.423115,0,95,95,120,1,0_targ_1_dist_red/trial21.png,,,0,1,redHorizontal,a,70,20,Female,2021-02-17_11h24.38.873,exp11,2020.2.6,Win32,60,,,,,,,,,,,
,,,,,,,,,,,,,,a,1,0.82708,space,0.28991,0,96,96,103,1,0_targ_1_dist_red/trial4.png,,,0,1,redHorizontal,a,70,20,Female,2021-02-17_11h24.38.873,exp11,2020.2.6,Win32,60,,,,,,,,,,,
,,,,,,,,,,,,,,p,1,0.89001,space,0.3524,0,97,97,88,1,15_dist_red/trial14.png,,,1,15,redHorizontal,p,70,20,Female,2021-02-17_11h24.38.873,exp11,2020.2.6,Win32,60,,,,,,,,,,,
,,,,,,,,,,,,,,p,1,0.76824,space,0.26761,0,98,98,71,1,9_dist_red/trial22.png,,,1,9,redHorizontal,p,70,20,Female,2021-02-17_11h24.38.873,exp11,2020.2.6,Win32,60,,,,,,,,,,,
,,,,,,,,,,,,,,p,1,0.784545,space,0.353885,0,99,99,59,1,9_dist_red/trial10.png,,,1,9,redHorizontal,p,70,20,Female,2021-02-17_11h24.38.873,exp11,2020.2.6,Win32,60,,,,,,,,,,,
,,,,,,,,,,,,,,p,1,0.58038,space,0.25632,0,100,100,7,1,0_dist_red/trial8.png,,,1,0,redHorizontal,p,70,20,Female,2021-02-17_11h24.38.873,exp11,2020.2.6,Win32,60,,,,,,,,,,,
,,,,,,,,,,,,,,p,1,0.691845,space,0.249385,0,101,101,97,1,15_dist_red/trial23.png,,,1,15,redHorizontal,p,70,20,Female,2021-02-17_11h24.38.873,exp11,2020.2.6,Win32,60,,,,,,,,,,,
,,,,,,,,,,,,,,p,1,0.791895,space,0.25601,0,102,102,25,1,3_dist_red/trial1.png,,,1,3,redHorizontal,p,70,20,Female,2021-02-17_11h24.38.873,exp11,2020.2.6,Win32,60,,,,,,,,,,,
,,,,,,,,,,,,,,a,1,0.757305,space,0.248435,0,103,103,196,1,0_targ_16_dist_red/trial22.png,,,0,16,redHorizontal,a,70,20,Female,2021-02-17_11h24.38.873,exp11,2020.2.6,Win32,60,,,,,,,,,,,
,,,,,,,,,,,,,,a,1,0.7249,space,0.203465,0,104,104,100,1,0_targ_1_dist_red/trial1.png,,,0,1,redHorizontal,a,70,20,Female,2021-02-17_11h24.38.873,exp11,2020.2.6,Win32,60,,,,,,,,,,,
,,,,,,,,,,,,,,p,1,0.693515,space,0.22392,0,105,105,18,1,0_dist_red/trial19.png,,,1,0,redHorizontal,p,70,20,Female,2021-02-17_11h24.38.873,exp11,2020.2.6,Win32,60,,,,,,,,,,,
,,,,,,,,,,,,,,a,1,1.695965,space,0.219415,0,106,106,171,1,0_targ_10_dist_red/trial22.png,,,0,10,redHorizontal,a,70,20,Female,2021-02-17_11h24.38.873,exp11,2020.2.6,Win32,60,,,,,,,,,,,
,,,,,,,,,,,,,,a,1,0.87028,space,0.220765,0,107,107,172,1,0_targ_10_dist_red/trial23.png,,,0,10,redHorizontal,a,70,20,Female,2021-02-17_11h24.38.873,exp11,2020.2.6,Win32,60,,,,,,,,,,,
,,,,,,,,,,,,,,p,1,0.673835,space,0.220135,0,108,108,36,1,3_dist_red/trial12.png,,,1,3,redHorizontal,p,70,20,Female,2021-02-17_11h24.38.873,exp11,2020.2.6,Win32,60,,,,,,,,,,,
,,,,,,,,,,,,,,p,1,0.64317,space,0.219375,0,109,109,44,1,3_dist_red/trial20.png,,,1,3,redHorizontal,p,70,20,Female,2021-02-17_11h24.38.873,exp11,2020.2.6,Win32,60,,,,,,,,,,,
,,,,,,,,,,,,,,p,1,0.64104,space,0.23441,0,110,110,38,1,3_dist_red/trial14.png,,,1,3,redHorizontal,p,70,20,Female,2021-02-17_11h24.38.873,exp11,2020.2.6,Win32,60,,,,,,,,,,,
,,,,,,,,,,,,,,p,1,0.566075,space,0.21317,0,111,111,15,1,0_dist_red/trial16.png,,,1,0,redHorizontal,p,70,20,Female,2021-02-17_11h24.38.873,exp11,2020.2.6,Win32,60,,,,,,,,,,,
,,,,,,,,,,,,,,a,1,0.725,space,0.16871,0,112,112,165,1,0_targ_10_dist_red/trial16.png,,,0,10,redHorizontal,a,70,20,Female,2021-02-17_11h24.38.873,exp11,2020.2.6,Win32,60,,,,,,,,,,,
,,,,,,,,,,,,,,p,1,0.89458,space,0.2675,0,113,113,55,1,9_dist_red/trial6.png,,,1,9,redHorizontal,p,70,20,Female,2021-02-17_11h24.38.873,exp11,2020.2.6,Win32,60,,,,,,,,,,,
,,,,,,,,,,,,,,a,1,1.018215,space,0.198375,0,114,114,184,1,0_targ_16_dist_red/trial10.png,,,0,16,redHorizontal,a,70,20,Female,2021-02-17_11h24.38.873,exp11,2020.2.6,Win32,60,,,,,,,,,,,
,,,,,,,,,,,,,,a,1,0.73673,space,0.201445,0,115,115,189,1,0_targ_16_dist_red/trial15.png,,,0,16,redHorizontal,a,70,20,Female,2021-02-17_11h24.38.873,exp11,2020.2.6,Win32,60,,,,,,,,,,,
,,,,,,,,,,,,,,a,1,0.900895,space,0.20123,0,116,116,154,1,0_targ_10_dist_red/trial5.png,,,0,10,redHorizontal,a,70,20,Female,2021-02-17_11h24.38.873,exp11,2020.2.6,Win32,60,,,,,,,,,,,
,,,,,,,,,,,,,,a,1,0.68984,space,0.311855,0,117,117,163,1,0_targ_10_dist_red/trial14.png,,,0,10,redHorizontal,a,70,20,Female,2021-02-17_11h24.38.873,exp11,2020.2.6,Win32,60,,,,,,,,,,,
,,,,,,,,,,,,,,p,1,0.754955,space,0.23138,0,118,118,37,1,3_dist_red/trial13.png,,,1,3,redHorizontal,p,70,20,Female,2021-02-17_11h24.38.873,exp11,2020.2.6,Win32,60,,,,,,,,,,,
,,,,,,,,,,,,,,a,1,1.103285,space,0.18576,0,119,119,167,1,0_targ_10_dist_red/trial18.png,,,0,10,redHorizontal,a,70,20,Female,2021-02-17_11h24.38.873,exp11,2020.2.6,Win32,60,,,,,,,,,,,
,,,,,,,,,,,,,,p,1,0.80606,space,0.265885,0,120,120,98,1,15_dist_red/trial24.png,,,1,15,redHorizontal,p,70,20,Female,2021-02-17_11h24.38.873,exp11,2020.2.6,Win32,60,,,,,,,,,,,
,,,,,,,,,,,,,,a,1,0.751645,space,0.175055,0,121,121,136,1,0_targ_4_dist_red/trial12.png,,,0,4,redHorizontal,a,70,20,Female,2021-02-17_11h24.38.873,exp11,2020.2.6,Win32,60,,,,,,,,,,,
,,,,,,,,,,,,,,p,1,0.60555,space,0.187285,0,122,122,39,1,3_dist_red/trial15.png,,,1,3,redHorizontal,p,70,20,Female,2021-02-17_11h24.38.873,exp11,2020.2.6,Win32,60,,,,,,,,,,,
,,,,,,,,,,,,,,p,1,0.601055,space,0.261835,0,123,123,49,1,3_dist_red/trial25.png,,,1,3,redHorizontal,p,70,20,Female,2021-02-17_11h24.38.873,exp11,2020.2.6,Win32,60,,,,,,,,,,,
,,,,,,,,,,,,,,p,1,0.62863,space,0.293915,0,124,124,45,1,3_dist_red/trial21.png,,,1,3,redHorizontal,p,70,20,Female,2021-02-17_11h24.38.873,exp11,2020.2.6,Win32,60,,,,,,,,,,,
,,,,,,,,,,,,,,a,1,0.653975,space,0.20742,0,125,125,117,1,0_targ_1_dist_red/trial18.png,,,0,1,redHorizontal,a,70,20,Female,2021-02-17_11h24.38.873,exp11,2020.2.6,Win32,60,,,,,,,,,,,
,,,,,,,,,,,,,,a,1,1.756675,space,0.15867,0,126,126,137,1,0_targ_4_dist_red/trial13.png,,,0,4,redHorizontal,a,70,20,Female,2021-02-17_11h24.38.873,exp11,2020.2.6,Win32,60,,,,,,,,,,,
,,,,,,,,,,,,,,a,1,0.73468,space,0.16537,0,127,127,140,1,0_targ_4_dist_red/trial6.png,,,0,4,redHorizontal,a,70,20,Female,2021-02-17_11h24.38.873,exp11,2020.2.6,Win32,60,,,,,,,,,,,
,,,,,,,,,,,,,,p,1,0.7685,space,0.188265,0,128,128,57,1,9_dist_red/trial8.png,,,1,9,redHorizontal,p,70,20,Female,2021-02-17_11h24.38.873,exp11,2020.2.6,Win32,60,,,,,,,,,,,
,,,,,,,,,,,,,,a,1,0.812025,space,0.18456,0,129,129,153,1,0_targ_10_dist_red/trial4.png,,,0,10,redHorizontal,a,70,20,Female,2021-02-17_11h24.38.873,exp11,2020.2.6,Win32,60,,,,,,,,,,,
,,,,,,,,,,,,,,p,1,0.77454,space,0.207215,0,130,130,63,1,9_dist_red/trial14.png,,,1,9,redHorizontal,p,70,20,Female,2021-02-17_11h24.38.873,exp11,2020.2.6,Win32,60,,,,,,,,,,,
,,,,,,,,,,,,,,a,1,0.92158,space,0.201195,0,131,131,190,1,0_targ_16_dist_red/trial16.png,,,0,16,redHorizontal,a,70,20,Female,2021-02-17_11h24.38.873,exp11,2020.2.6,Win32,60,,,,,,,,,,,
,,,,,,,,,,,,,,p,1,0.926965,space,0.21602,0,132,132,34,1,3_dist_red/trial10.png,,,1,3,redHorizontal,p,70,20,Female,2021-02-17_11h24.38.873,exp11,2020.2.6,Win32,60,,,,,,,,,,,
,,,,,,,,,,,,,,a,1,0.73398,space,0.186015,0,133,133,183,1,0_targ_16_dist_red/trial9.png,,,0,16,redHorizontal,a,70,20,Female,2021-02-17_11h24.38.873,exp11,2020.2.6,Win32,60,,,,,,,,,,,
,,,,,,,,,,,,,,a,1,0.71372,space,0.167365,0,134,134,104,1,0_targ_1_dist_red/trial5.png,,,0,1,redHorizontal,a,70,20,Female,2021-02-17_11h24.38.873,exp11,2020.2.6,Win32,60,,,,,,,,,,,
,,,,,,,,,,,,,,a,1,0.663985,space,0.159045,0,135,135,138,1,0_targ_4_dist_red/trial14.png,,,0,4,redHorizontal,a,70,20,Female,2021-02-17_11h24.38.873,exp11,2020.2.6,Win32,60,,,,,,,,,,,
,,,,,,,,,,,,,,a,1,0.60174,space,0.14995,0,136,136,173,1,0_targ_10_dist_red/trial24.png,,,0,10,redHorizontal,a,70,20,Female,2021-02-17_11h24.38.873,exp11,2020.2.6,Win32,60,,,,,,,,,,,
,,,,,,,,,,,,,,p,1,0.914975,space,0.22446,0,137,137,50,1,9_dist_red/trial1.png,,,1,9,redHorizontal,p,70,20,Female,2021-02-17_11h24.38.873,exp11,2020.2.6,Win32,60,,,,,,,,,,,
,,,,,,,,,,,,,,p,1,0.853915,space,0.216725,0,138,138,85,1,15_dist_red/trial11.png,,,1,15,redHorizontal,p,70,20,Female,2021-02-17_11h24.38.873,exp11,2020.2.6,Win32,60,,,,,,,,,,,
,,,,,,,,,,,,,,p,1,1.631335,space,0.234105,0,139,139,20,1,0_dist_red/trial21.png,,,1,0,redHorizontal,p,70,20,Female,2021-02-17_11h24.38.873,exp11,2020.2.6,Win32,60,,,,,,,,,,,
,,,,,,,,,,,,,,p,1,0.650645,space,0.188025,0,140,140,51,1,9_dist_red/trial2.png,,,1,9,redHorizontal,p,70,20,Female,2021-02-17_11h24.38.873,exp11,2020.2.6,Win32,60,,,,,,,,,,,
,,,,,,,,,,,,,,p,1,0.621435,space,0.186765,0,141,141,77,1,15_dist_red/trial3.png,,,1,15,redHorizontal,p,70,20,Female,2021-02-17_11h24.38.873,exp11,2020.2.6,Win32,60,,,,,,,,,,,
,,,,,,,,,,,,,,p,1,0.61778,space,0.225125,0,142,142,73,1,9_dist_red/trial24.png,,,1,9,redHorizontal,p,70,20,Female,2021-02-17_11h24.38.873,exp11,2020.2.6,Win32,60,,,,,,,,,,,
,,,,,,,,,,,,,,a,1,0.774525,space,0.157765,0,143,143,170,1,0_targ_10_dist_red/trial21.png,,,0,10,redHorizontal,a,70,20,Female,2021-02-17_11h24.38.873,exp11,2020.2.6,Win32,60,,,,,,,,,,,
,,,,,,,,,,,,,,a,0,0.640385,space,0.893975,0,144,144,41,1,3_dist_red/trial17.png,,,1,3,redHorizontal,p,70,20,Female,2021-02-17_11h24.38.873,exp11,2020.2.6,Win32,60,,,,,,,,,,,
,,,,,,,,,,,,,,p,1,0.78691,space,0.18853,0,145,145,26,1,3_dist_red/trial2.png,,,1,3,redHorizontal,p,70,20,Female,2021-02-17_11h24.38.873,exp11,2020.2.6,Win32,60,,,,,,,,,,,
,,,,,,,,,,,,,,a,1,0.95964,space,0.16235,0,146,146,118,1,0_targ_1_dist_red/trial19.png,,,0,1,redHorizontal,a,70,20,Female,2021-02-17_11h24.38.873,exp11,2020.2.6,Win32,60,,,,,,,,,,,
,,,,,,,,,,,,,,p,1,0.54194,space,0.204345,0,147,147,31,1,3_dist_red/trial7.png,,,1,3,redHorizontal,p,70,20,Female,2021-02-17_11h24.38.873,exp11,2020.2.6,Win32,60,,,,,,,,,,,
,,,,,,,,,,,,,,p,1,0.87257,space,0.185795,0,148,148,99,1,15_dist_red/trial25.png,,,1,15,redHorizontal,p,70,20,Female,2021-02-17_11h24.38.873,exp11,2020.2.6,Win32,60,,,,,,,,,,,
,,,,,,,,,,,,,,p,1,0.75559,space,0.19572,0,149,149,90,1,15_dist_red/trial16.png,,,1,15,redHorizontal,p,70,20,Female,2021-02-17_11h24.38.873,exp11,2020.2.6,Win32,60,,,,,,,,,,,
,,,,,,,,,,,,,,a,1,0.840985,space,0.20729,0,150,150,164,1,0_targ_10_dist_red/trial15.png,,,0,10,redHorizontal,a,70,20,Female,2021-02-17_11h24.38.873,exp11,2020.2.6,Win32,60,,,,,,,,,,,
,,,,,,,,,,,,,,p,1,0.617625,space,0.20124,0,151,151,28,1,3_dist_red/trial4.png,,,1,3,redHorizontal,p,70,20,Female,2021-02-17_11h24.38.873,exp11,2020.2.6,Win32,60,,,,,,,,,,,
,,,,,,,,,,,,,,a,1,0.74864,space,0.18614,0,152,152,110,1,0_targ_1_dist_red/trial11.png,,,0,1,redHorizontal,a,70,20,Female,2021-02-17_11h24.38.873,exp11,2020.2.6,Win32,60,,,,,,,,,,,
,,,,,,,,,,,,,,p,1,0.574555,space,0.170895,0,153,153,5,1,0_dist_red/trial6.png,,,1,0,redHorizontal,p,70,20,Female,2021-02-17_11h24.38.873,exp11,2020.2.6,Win32,60,,,,,,,,,,,
,,,,,,,,,,,,,,a,1,0.797395,space,0.156625,0,154,154,130,1,0_targ_4_dist_red/trial6.png,,,0,4,redHorizontal,a,70,20,Female,2021-02-17_11h24.38.873,exp11,2020.2.6,Win32,60,,,,,,,,,,,
,,,,,,,,,,,,,,p,1,0.78716,space,0.136615,0,155,155,62,1,9_dist_red/trial13.png,,,1,9,redHorizontal,p,70,20,Female,2021-02-17_11h24.38.873,exp11,2020.2.6,Win32,60,,,,,,,,,,,
,,,,,,,,,,,,,,a,1,1.101865,space,0.15667,0,156,156,195,1,0_targ_16_dist_red/trial21.png,,,0,16,redHorizontal,a,70,20,Female,2021-02-17_11h24.38.873,exp11,2020.2.6,Win32,60,,,,,,,,,,,
,,,,,,,,,,,,,,a,1,0.660735,space,0.139225,0,157,157,180,1,0_targ_16_dist_red/trial6.png,,,0,16,redHorizontal,a,70,20,Female,2021-02-17_11h24.38.873,exp11,2020.2.6,Win32,60,,,,,,,,,,,
,,,,,,,,,,,,,,a,1,0.979195,space,0.299005,0,158,158,115,1,0_targ_1_dist_red/trial6.png,,,0,1,redHorizontal,a,70,20,Female,2021-02-17_11h24.38.873,exp11,2020.2.6,Win32,60,,,,,,,,,,,
,,,,,,,,,,,,,,p,1,1.05002,space,0.19497,0,159,159,35,1,3_dist_red/trial11.png,,,1,3,redHorizontal,p,70,20,Female,2021-02-17_11h24.38.873,exp11,2020.2.6,Win32,60,,,,,,,,,,,
,,,,,,,,,,,,,,p,1,0.744955,space,0.18327,0,160,160,81,1,15_dist_red/trial7.png,,,1,15,redHorizontal,p,70,20,Female,2021-02-17_11h24.38.873,exp11,2020.2.6,Win32,60,,,,,,,,,,,
,,,,,,,,,,,,,,a,1,1.538855,space,0.18897,0,161,161,107,1,0_targ_1_dist_red/trial8.png,,,0,1,redHorizontal,a,70,20,Female,2021-02-17_11h24.38.873,exp11,2020.2.6,Win32,60,,,,,,,,,,,
,,,,,,,,,,,,,,a,1,0.853265,space,0.16657,0,162,162,166,1,0_targ_10_dist_red/trial17.png,,,0,10,redHorizontal,a,70,20,Female,2021-02-17_11h24.38.873,exp11,2020.2.6,Win32,60,,,,,,,,,,,
,,,,,,,,,,,,,,p,1,0.70424,space,0.17519,0,163,163,61,1,9_dist_red/trial12.png,,,1,9,redHorizontal,p,70,20,Female,2021-02-17_11h24.38.873,exp11,2020.2.6,Win32,60,,,,,,,,,,,
,,,,,,,,,,,,,,p,1,0.704385,space,0.20829,0,164,164,58,1,9_dist_red/trial9.png,,,1,9,redHorizontal,p,70,20,Female,2021-02-17_11h24.38.873,exp11,2020.2.6,Win32,60,,,,,,,,,,,
,,,,,,,,,,,,,,p,1,0.592105,space,0.217805,0,165,165,11,1,0_dist_red/trial12.png,,,1,0,redHorizontal,p,70,20,Female,2021-02-17_11h24.38.873,exp11,2020.2.6,Win32,60,,,,,,,,,,,
,,,,,,,,,,,,,,a,1,0.76256,space,0.19237,0,166,166,174,1,0_targ_10_dist_red/trial25.png,,,0,10,redHorizontal,a,70,20,Female,2021-02-17_11h24.38.873,exp11,2020.2.6,Win32,60,,,,,,,,,,,
,,,,,,,,,,,,,,a,1,1.253315,space,0.104425,0,167,167,145,1,0_targ_4_dist_red/trial21.png,,,0,4,redHorizontal,a,70,20,Female,2021-02-17_11h24.38.873,exp11,2020.2.6,Win32,60,,,,,,,,,,,
,,,,,,,,,,,,,,p,1,0.77378,space,0.19934,0,168,168,13,1,0_dist_red/trial14.png,,,1,0,redHorizontal,p,70,20,Female,2021-02-17_11h24.38.873,exp11,2020.2.6,Win32,60,,,,,,,,,,,
,,,,,,,,,,,,,,a,1,0.895595,space,0.21662,0,169,169,182,1,0_targ_16_dist_red/trial8.png,,,0,16,redHorizontal,a,70,20,Female,2021-02-17_11h24.38.873,exp11,2020.2.6,Win32,60,,,,,,,,,,,
,,,,,,,,,,,,,,a,1,0.677485,space,0.2683,0,170,170,181,1,0_targ_16_dist_red/trial7.png,,,0,16,redHorizontal,a,70,20,Female,2021-02-17_11h24.38.873,exp11,2020.2.6,Win32,60,,,,,,,,,,,
,,,,,,,,,,,,,,p,1,0.766345,space,0.237295,0,171,171,93,1,15_dist_red/trial19.png,,,1,15,redHorizontal,p,70,20,Female,2021-02-17_11h24.38.873,exp11,2020.2.6,Win32,60,,,,,,,,,,,
,,,,,,,,,,,,,,p,1,0.781455,space,0.267655,0,172,172,82,1,15_dist_red/trial8.png,,,1,15,redHorizontal,p,70,20,Female,2021-02-17_11h24.38.873,exp11,2020.2.6,Win32,60,,,,,,,,,,,
,,,,,,,,,,,,,,a,1,0.81503,space,0.2499,0,173,173,178,1,0_targ_16_dist_red/trial4.png,,,0,16,redHorizontal,a,70,20,Female,2021-02-17_11h24.38.873,exp11,2020.2.6,Win32,60,,,,,,,,,,,
,,,,,,,,,,,,,,p,1,0.95656,space,0.233865,0,174,174,91,1,15_dist_red/trial17.png,,,1,15,redHorizontal,p,70,20,Female,2021-02-17_11h24.38.873,exp11,2020.2.6,Win32,60,,,,,,,,,,,
,,,,,,,,,,,,,,p,1,0.923505,space,0.24083,0,175,175,4,1,0_dist_red/trial5.png,,,1,0,redHorizontal,p,70,20,Female,2021-02-17_11h24.38.873,exp11,2020.2.6,Win32,60,,,,,,,,,,,
,,,,,,,,,,,,,,p,1,0.589075,space,0.277935,0,176,176,24,1,0_dist_red/trial25.png,,,1,0,redHorizontal,p,70,20,Female,2021-02-17_11h24.38.873,exp11,2020.2.6,Win32,60,,,,,,,,,,,
,,,,,,,,,,,,,,p,1,0.937155,space,0.28532,0,177,177,84,1,15_dist_red/trial10.png,,,1,15,redHorizontal,p,70,20,Female,2021-02-17_11h24.38.873,exp11,2020.2.6,Win32,60,,,,,,,,,,,
,,,,,,,,,,,,,,a,1,0.66548,space,0.242405,0,178,178,135,1,0_targ_4_dist_red/trial11.png,,,0,4,redHorizontal,a,70,20,Female,2021-02-17_11h24.38.873,exp11,2020.2.6,Win32,60,,,,,,,,,,,
,,,,,,,,,,,,,,a,1,0.647315,space,0.268065,0,179,179,155,1,0_targ_10_dist_red/trial6.png,,,0,10,redHorizontal,a,70,20,Female,2021-02-17_11h24.38.873,exp11,2020.2.6,Win32,60,,,,,,,,,,,
,,,,,,,,,,,,,,a,1,0.71861,space,0.23352,0,180,180,147,1,0_targ_4_dist_red/trial23.png,,,0,4,redHorizontal,a,70,20,Female,2021-02-17_11h24.38.873,exp11,2020.2.6,Win32,60,,,,,,,,,,,
,,,,,,,,,,,,,,a,1,0.733945,space,0.21557,0,181,181,139,1,0_targ_4_dist_red/trial15.png,,,0,4,redHorizontal,a,70,20,Female,2021-02-17_11h24.38.873,exp11,2020.2.6,Win32,60,,,,,,,,,,,
,,,,,,,,,,,,,,p,1,0.559615,space,0.24305,0,182,182,16,1,0_dist_red/trial17.png,,,1,0,redHorizontal,p,70,20,Female,2021-02-17_11h24.38.873,exp11,2020.2.6,Win32,60,,,,,,,,,,,
,,,,,,,,,,,,,,a,1,0.63934,space,0.23448,0,183,183,128,1,0_targ_4_dist_red/trial4.png,,,0,4,redHorizontal,a,70,20,Female,2021-02-17_11h24.38.873,exp11,2020.2.6,Win32,60,,,,,,,,,,,
,,,,,,,,,,,,,,p,1,0.853605,space,0.204525,0,184,184,75,1,15_dist_red/trial1.png,,,1,15,redHorizontal,p,70,20,Female,2021-02-17_11h24.38.873,exp11,2020.2.6,Win32,60,,,,,,,,,,,
,,,,,,,,,,,,,,a,1,0.74793,space,0.23181,0,185,185,133,1,0_targ_4_dist_red/trial9.png,,,0,4,redHorizontal,a,70,20,Female,2021-02-17_11h24.38.873,exp11,2020.2.6,Win32,60,,,,,,,,,,,
,,,,,,,,,,,,,,a,1,0.69291,space,0.21677,0,186,186,192,1,0_targ_16_dist_red/trial18.png,,,0,16,redHorizontal,a,70,20,Female,2021-02-17_11h24.38.873,exp11,2020.2.6,Win32,60,,,,,,,,,,,
,,,,,,,,,,,,,,a,1,0.665275,space,0.40648,0,187,187,143,1,0_targ_4_dist_red/trial19.png,,,0,4,redHorizontal,a,70,20,Female,2021-02-17_11h24.38.873,exp11,2020.2.6,Win32,60,,,,,,,,,,,
,,,,,,,,,,,,,,a,1,1.210005,space,0.229785,0,188,188,159,1,0_targ_10_dist_red/trial10.png,,,0,10,redHorizontal,a,70,20,Female,2021-02-17_11h24.38.873,exp11,2020.2.6,Win32,60,,,,,,,,,,,
,,,,,,,,,,,,,,a,1,0.77618,space,0.21,0,189,189,131,1,0_targ_4_dist_red/trial7.png,,,0,4,redHorizontal,a,70,20,Female,2021-02-17_11h24.38.873,exp11,2020.2.6,Win32,60,,,,,,,,,,,
,,,,,,,,,,,,,,a,1,0.7046,space,0.220365,0,190,190,187,1,0_targ_16_dist_red/trial13.png,,,0,16,redHorizontal,a,70,20,Female,2021-02-17_11h24.38.873,exp11,2020.2.6,Win32,60,,,,,,,,,,,
,,,,,,,,,,,,,,a,1,0.68378,space,0.21598,0,191,191,162,1,0_targ_10_dist_red/trial13.png,,,0,10,redHorizontal,a,70,20,Female,2021-02-17_11h24.38.873,exp11,2020.2.6,Win32,60,,,,,,,,,,,
,,,,,,,,,,,,,,p,1,0.599755,space,0.218285,0,192,192,14,1,0_dist_red/trial15.png,,,1,0,redHorizontal,p,70,20,Female,2021-02-17_11h24.38.873,exp11,2020.2.6,Win32,60,,,,,,,,,,,
,,,,,,,,,,,,,,a,1,0.708165,space,0.27042,0,193,193,194,1,0_targ_16_dist_red/trial20.png,,,0,16,redHorizontal,a,70,20,Female,2021-02-17_11h24.38.873,exp11,2020.2.6,Win32,60,,,,,,,,,,,
,,,,,,,,,,,,,,a,1,0.831075,space,0.202615,0,194,194,116,1,0_targ_1_dist_red/trial17.png,,,0,1,redHorizontal,a,70,20,Female,2021-02-17_11h24.38.873,exp11,2020.2.6,Win32,60,,,,,,,,,,,
,,,,,,,,,,,,,,p,0,0.81429,space,1.903665,0,195,195,124,1,0_targ_1_dist_red/trial25.png,,,0,1,redHorizontal,a,70,20,Female,2021-02-17_11h24.38.873,exp11,2020.2.6,Win32,60,,,,,,,,,,,
,,,,,,,,,,,,,,p,1,1.071245,space,0.157015,0,196,196,40,1,3_dist_red/trial16.png,,,1,3,redHorizontal,p,70,20,Female,2021-02-17_11h24.38.873,exp11,2020.2.6,Win32,60,,,,,,,,,,,
,,,,,,,,,,,,,,a,1,0.72154,space,0.16659,0,197,197,102,1,0_targ_1_dist_red/trial3.png,,,0,1,redHorizontal,a,70,20,Female,2021-02-17_11h24.38.873,exp11,2020.2.6,Win32,60,,,,,,,,,,,
,,,,,,,,,,,,,,p,1,1.440205,space,0.171985,0,198,198,10,1,0_dist_red/trial11.png,,,1,0,redHorizontal,p,70,20,Female,2021-02-17_11h24.38.873,exp11,2020.2.6,Win32,60,,,,,,,,,,,
,,,,,,,,,,,,,,p,1,0.757865,space,0.17943,0,199,199,42,1,3_dist_red/trial18.png,,,1,3,redHorizontal,p,70,20,Female,2021-02-17_11h24.38.873,exp11,2020.2.6,Win32,60,,,,,,,,,,,
,,,,,,,,,,,,,,,,,,,,,,,,,,,,,,,70,20,Female,2021-02-17_11h24.38.873,exp11,2020.2.6,Win32,60,0,0,0,1,1,conRed.xlsx,red horizontal,Look for red horizontal bar (target) and indicate if it is present or absent in the array. If red horizontal target is present press 'p' and if absent press 'a'. Press SPACE to start.,,,
,,,,,,,,,,space,4.609665,space,1.871175,a,1,1.335175,space,0.225995,0,0,0,177,1,0_targ_16_dist_green/trial3.png,,,0,16,greenverival,a,70,20,Female,2021-02-17_11h24.38.873,exp11,2020.2.6,Win32,60,,,,,,,,,,,
,,,,,,,,,,,,,,a,1,0.94504,space,0.171055,0,1,1,140,1,0_targ_4_dist_green/trial6.png,,,0,4,greenverival,a,70,20,Female,2021-02-17_11h24.38.873,exp11,2020.2.6,Win32,60,,,,,,,,,,,
,,,,,,,,,,,,,,p,1,1.277685,space,0.162335,0,2,2,52,1,9_dist_green/trial3.png,,,1,9,greenverival,p,70,20,Female,2021-02-17_11h24.38.873,exp11,2020.2.6,Win32,60,,,,,,,,,,,
,,,,,,,,,,,,,,a,1,1.076295,space,0.14952,0,3,3,184,1,0_targ_16_dist_green/trial10.png,,,0,16,greenverival,a,70,20,Female,2021-02-17_11h24.38.873,exp11,2020.2.6,Win32,60,,,,,,,,,,,
,,,,,,,,,,,,,,a,1,1.13475,space,0.14501,0,4,4,161,1,0_targ_10_dist_green/trial12.png,,,0,10,greenverival,a,70,20,Female,2021-02-17_11h24.38.873,exp11,2020.2.6,Win32,60,,,,,,,,,,,
,,,,,,,,,,,,,,p,1,0.571155,space,0.205495,0,5,5,2,1,0_dist_green/trial3.png,,,1,0,greenverival,p,70,20,Female,2021-02-17_11h24.38.873,exp11,2020.2.6,Win32,60,,,,,,,,,,,
,,,,,,,,,,,,,,p,1,1.037,space,0.199975,0,6,6,71,1,9_dist_green/trial22.png,,,1,9,greenverival,p,70,20,Female,2021-02-17_11h24.38.873,exp11,2020.2.6,Win32,60,,,,,,,,,,,
,,,,,,,,,,,,,,a,1,0.91336,space,0.19975,0,7,7,154,1,0_targ_10_dist_green/trial5.png,,,0,10,greenverival,a,70,20,Female,2021-02-17_11h24.38.873,exp11,2020.2.6,Win32,60,,,,,,,,,,,
,,,,,,,,,,,,,,a,1,0.938775,space,0.16889,0,8,8,169,1,0_targ_10_dist_green/trial20.png,,,0,10,greenverival,a,70,20,Female,2021-02-17_11h24.38.873,exp11,2020.2.6,Win32,60,,,,,,,,,,,
,,,,,,,,,,,,,,a,1,0.788215,space,0.12076,0,9,9,144,1,0_targ_4_dist_green/trial20.png,,,0,4,greenverival,a,70,20,Female,2021-02-17_11h24.38.873,exp11,2020.2.6,Win32,60,,,,,,,,,,,
,,,,,,,,,,,,,,a,1,0.914795,space,0.142925,0,10,10,189,1,0_targ_16_dist_green/trial15.png,,,0,16,greenverival,a,70,20,Female,2021-02-17_11h24.38.873,exp11,2020.2.6,Win32,60,,,,,,,,,,,
,,,,,,,,,,,,,,a,0,0.83797,space,0.754575,0,11,11,93,1,15_dist_green/trial19.png,,,1,15,greenverival,p,70,20,Female,2021-02-17_11h24.38.873,exp11,2020.2.6,Win32,60,,,,,,,,,,,
,,,,,,,,,,,,,,p,1,1.152825,space,0.229375,0,12,12,47,1,3_dist_green/trial23.png,,,1,3,greenverival,p,70,20,Female,2021-02-17_11h24.38.873,exp11,2020.2.6,Win32,60,,,,,,,,,,,
,,,,,,,,,,,,,,p,1,0.676705,space,0.249265,0,13,13,64,1,9_dist_green/trial15.png,,,1,9,greenverival,p,70,20,Female,2021-02-17_11h24.38.873,exp11,2020.2.6,Win32,60,,,,,,,,,,,
,,,,,,,,,,,,,,p,1,0.57006,space,0.21919,0,14,14,5,1,0_dist_green/trial6.png,,,1,0,greenverival,p,70,20,Female,2021-02-17_11h24.38.873,exp11,2020.2.6,Win32,60,,,,,,,,,,,
,,,,,,,,,,,,,,p,1,1.113035,space,0.199465,0,15,15,85,1,15_dist_green/trial11.png,,,1,15,greenverival,p,70,20,Female,2021-02-17_11h24.38.873,exp11,2020.2.6,Win32,60,,,,,,,,,,,
,,,,,,,,,,,,,,p,1,0.53975,space,0.233555,0,16,16,26,1,3_dist_green/trial2.png,,,1,3,greenverival,p,70,20,Female,2021-02-17_11h24.38.873,exp11,2020.2.6,Win32,60,,,,,,,,,,,
,,,,,,,,,,,,,,a,1,1.045195,space,0.18102,0,17,17,102,1,0_targ_1_dist_green/trial3.png,,,0,1,greenverival,a,70,20,Female,2021-02-17_11h24.38.873,exp11,2020.2.6,Win32,60,,,,,,,,,,,
,,,,,,,,,,,,,,a,1,0.970785,space,0.151645,0,18,18,192,1,0_targ_16_dist_green/trial18.png,,,0,16,greenverival,a,70,20,Female,2021-02-17_11h24.38.873,exp11,2020.2.6,Win32,60,,,,,,,,,,,
,,,,,,,,,,,,,,p,1,0.756465,space,0.171395,0,19,19,54,1,9_dist_green/trial5.png,,,1,9,greenverival,p,70,20,Female,2021-02-17_11h24.38.873,exp11,2020.2.6,Win32,60,,,,,,,,,,,
,,,,,,,,,,,,,,p,1,0.820135,space,0.169305,0,20,20,61,1,9_dist_green/trial12.png,,,1,9,greenverival,p,70,20,Female,2021-02-17_11h24.38.873,exp11,2020.2.6,Win32,60,,,,,,,,,,,
,,,,,,,,,,,,,,a,1,1.03338,space,0.232625,0,21,21,147,1,0_targ_4_dist_green/trial23.png,,,0,4,greenverival,a,70,20,Female,2021-02-17_11h24.38.873,exp11,2020.2.6,Win32,60,,,,,,,,,,,
,,,,,,,,,,,,,,p,1,0.946155,space,0.176825,0,22,22,79,1,15_dist_green/trial5.png,,,1,15,greenverival,p,70,20,Female,2021-02-17_11h24.38.873,exp11,2020.2.6,Win32,60,,,,,,,,,,,
,,,,,,,,,,,,,,a,1,1.15312,space,0.22683,0,23,23,120,1,0_targ_1_dist_green/trial21.png,,,0,1,greenverival,a,70,20,Female,2021-02-17_11h24.38.873,exp11,2020.2.6,Win32,60,,,,,,,,,,,
,,,,,,,,,,,,,,a,1,1.689245,space,0.192595,0,24,24,181,1,0_targ_16_dist_green/trial7.png,,,0,16,greenverival,a,70,20,Female,2021-02-17_11h24.38.873,exp11,2020.2.6,Win32,60,,,,,,,,,,,
,,,,,,,,,,,,,,p,1,0.772355,space,0.182955,0,25,25,20,1,0_dist_green/trial21.png,,,1,0,greenverival,p,70,20,Female,2021-02-17_11h24.38.873,exp11,2020.2.6,Win32,60,,,,,,,,,,,
,,,,,,,,,,,,,,p,1,0.637155,space,0.21755,0,26,26,32,1,3_dist_green/trial8.png,,,1,3,greenverival,p,70,20,Female,2021-02-17_11h24.38.873,exp11,2020.2.6,Win32,60,,,,,,,,,,,
,,,,,,,,,,,,,,p,1,0.647335,space,0.233865,0,27,27,65,1,9_dist_green/trial16.png,,,1,9,greenverival,p,70,20,Female,2021-02-17_11h24.38.873,exp11,2020.2.6,Win32,60,,,,,,,,,,,
,,,,,,,,,,,,,,a,1,0.78033,space,0.19188,0,28,28,194,1,0_targ_16_dist_green/trial20.png,,,0,16,greenverival,a,70,20,Female,2021-02-17_11h24.38.873,exp11,2020.2.6,Win32,60,,,,,,,,,,,
,,,,,,,,,,,,,,p,1,0.930035,space,0.155075,0,29,29,72,1,9_dist_green/trial23.png,,,1,9,greenverival,p,70,20,Female,2021-02-17_11h24.38.873,exp11,2020.2.6,Win32,60,,,,,,,,,,,
,,,,,,,,,,,,,,p,1,0.589035,space,0.18821,0,30,30,17,1,0_dist_green/trial18.png,,,1,0,greenverival,p,70,20,Female,2021-02-17_11h24.38.873,exp11,2020.2.6,Win32,60,,,,,,,,,,,
,,,,,,,,,,,,,,a,1,0.705705,space,0.25125,0,31,31,143,1,0_targ_4_dist_green/trial19.png,,,0,4,greenverival,a,70,20,Female,2021-02-17_11h24.38.873,exp11,2020.2.6,Win32,60,,,,,,,,,,,
,,,,,,,,,,,,,,p,1,0.774125,space,0.18867,0,32,32,45,1,3_dist_green/trial21.png,,,1,3,greenverival,p,70,20,Female,2021-02-17_11h24.38.873,exp11,2020.2.6,Win32,60,,,,,,,,,,,
,,,,,,,,,,,,,,p,1,0.70859,space,0.221445,0,33,33,24,1,0_dist_green/trial25.png,,,1,0,greenverival,p,70,20,Female,2021-02-17_11h24.38.873,exp11,2020.2.6,Win32,60,,,,,,,,,,,
,,,,,,,,,,,,,,a,1,1.397265,space,0.1699,0,34,34,164,1,0_targ_10_dist_green/trial15.png,,,0,10,greenverival,a,70,20,Female,2021-02-17_11h24.38.873,exp11,2020.2.6,Win32,60,,,,,,,,,,,
,,,,,,,,,,,,,,p,1,0.77001,space,0.17138,0,35,35,16,1,0_dist_green/trial17.png,,,1,0,greenverival,p,70,20,Female,2021-02-17_11h24.38.873,exp11,2020.2.6,Win32,60,,,,,,,,,,,
,,,,,,,,,,,,,,a,1,1.761795,space,0.284,0,36,36,185,1,0_targ_16_dist_green/trial11.png,,,0,16,greenverival,a,70,20,Female,2021-02-17_11h24.38.873,exp11,2020.2.6,Win32,60,,,,,,,,,,,
,,,,,,,,,,,,,,p,1,1.280645,space,0.16679,0,37,37,63,1,9_dist_green/trial14.png,,,1,9,greenverival,p,70,20,Female,2021-02-17_11h24.38.873,exp11,2020.2.6,Win32,60,,,,,,,,,,,
,,,,,,,,,,,,,,p,1,0.545585,space,0.160425,0,38,38,4,1,0_dist_green/trial5.png,,,1,0,greenverival,p,70,20,Female,2021-02-17_11h24.38.873,exp11,2020.2.6,Win32,60,,,,,,,,,,,
,,,,,,,,,,,,,,a,1,0.82277,space,0.198215,0,39,39,136,1,0_targ_4_dist_green/trial12.png,,,0,4,greenverival,a,70,20,Female,2021-02-17_11h24.38.873,exp11,2020.2.6,Win32,60,,,,,,,,,,,
,,,,,,,,,,,,,,a,1,1.07898,space,0.199775,0,40,40,129,1,0_targ_4_dist_green/trial5.png,,,0,4,greenverival,a,70,20,Female,2021-02-17_11h24.38.873,exp11,2020.2.6,Win32,60,,,,,,,,,,,
,,,,,,,,,,,,,,a,1,0.883525,space,0.168545,0,41,41,112,1,0_targ_1_dist_green/trial13.png,,,0,1,greenverival,a,70,20,Female,2021-02-17_11h24.38.873,exp11,2020.2.6,Win32,60,,,,,,,,,,,
,,,,,,,,,,,,,,a,1,0.850315,space,0.15112,0,42,42,125,1,0_targ_4_dist_green/trial1.png,,,0,4,greenverival,a,70,20,Female,2021-02-17_11h24.38.873,exp11,2020.2.6,Win32,60,,,,,,,,,,,
,,,,,,,,,,,,,,p,1,0.70641,space,0.15999,0,43,43,42,1,3_dist_green/trial18.png,,,1,3,greenverival,p,70,20,Female,2021-02-17_11h24.38.873,exp11,2020.2.6,Win32,60,,,,,,,,,,,
,,,,,,,,,,,,,,a,1,0.8416,space,0.215075,0,44,44,148,1,0_targ_4_dist_green/trial24.png,,,0,4,greenverival,a,70,20,Female,2021-02-17_11h24.38.873,exp11,2020.2.6,Win32,60,,,,,,,,,,,
,,,,,,,,,,,,,,p,1,0.80637,space,0.172245,0,45,45,29,1,3_dist_green/trial5.png,,,1,3,greenverival,p,70,20,Female,2021-02-17_11h24.38.873,exp11,2020.2.6,Win32,60,,,,,,,,,,,
,,,,,,,,,,,,,,p,1,0.95959,space,0.27667,0,46,46,74,1,9_dist_green/trial25.png,,,1,9,greenverival,p,70,20,Female,2021-02-17_11h24.38.873,exp11,2020.2.6,Win32,60,,,,,,,,,,,
,,,,,,,,,,,,,,p,1,0.57581,space,0.191695,0,47,47,18,1,0_dist_green/trial19.png,,,1,0,greenverival,p,70,20,Female,2021-02-17_11h24.38.873,exp11,2020.2.6,Win32,60,,,,,,,,,,,
,,,,,,,,,,,,,,p,1,0.66095,space,0.35139,0,48,48,89,1,15_dist_green/trial15.png,,,1,15,greenverival,p,70,20,Female,2021-02-17_11h24.38.873,exp11,2020.2.6,Win32,60,,,,,,,,,,,
,,,,,,,,,,,,,,a,1,1.23184,space,0.15127,0,49,49,178,1,0_targ_16_dist_green/trial4.png,,,0,16,greenverival,a,70,20,Female,2021-02-17_11h24.38.873,exp11,2020.2.6,Win32,60,,,,,,,,,,,
,,,,,,,,,,,,,,a,1,0.910635,space,0.16863,0,50,50,103,1,0_targ_1_dist_green/trial4.png,,,0,1,greenverival,a,70,20,Female,2021-02-17_11h24.38.873,exp11,2020.2.6,Win32,60,,,,,,,,,,,
,,,,,,,,,,,,,,a,1,0.65934,space,0.18449,0,51,51,170,1,0_targ_10_dist_green/trial21.png,,,0,10,greenverival,a,70,20,Female,2021-02-17_11h24.38.873,exp11,2020.2.6,Win32,60,,,,,,,,,,,
,,,,,,,,,,,,,,p,1,0.7224,space,0.170825,0,52,52,68,1,9_dist_green/trial19.png,,,1,9,greenverival,p,70,20,Female,2021-02-17_11h24.38.873,exp11,2020.2.6,Win32,60,,,,,,,,,,,
,,,,,,,,,,,,,,p,1,0.691265,space,0.17429,0,53,53,91,1,15_dist_green/trial17.png,,,1,15,greenverival,p,70,20,Female,2021-02-17_11h24.38.873,exp11,2020.2.6,Win32,60,,,,,,,,,,,
,,,,,,,,,,,,,,p,1,0.57921,space,0.218055,0,54,54,58,1,9_dist_green/trial9.png,,,1,9,greenverival,p,70,20,Female,2021-02-17_11h24.38.873,exp11,2020.2.6,Win32,60,,,,,,,,,,,
,,,,,,,,,,,,,,p,1,1.120595,space,0.204165,0,55,55,82,1,15_dist_green/trial8.png,,,1,15,greenverival,p,70,20,Female,2021-02-17_11h24.38.873,exp11,2020.2.6,Win32,60,,,,,,,,,,,
,,,,,,,,,,,,,,p,1,0.556855,space,0.224695,0,56,56,94,1,15_dist_green/trial20.png,,,1,15,greenverival,p,70,20,Female,2021-02-17_11h24.38.873,exp11,2020.2.6,Win32,60,,,,,,,,,,,
,,,,,,,,,,,,,,a,1,0.694325,space,0.221305,0,57,57,107,1,0_targ_1_dist_green/trial8.png,,,0,1,greenverival,a,70,20,Female,2021-02-17_11h24.38.873,exp11,2020.2.6,Win32,60,,,,,,,,,,,
,,,,,,,,,,,,,,p,1,0.70964,space,0.135865,0,58,58,7,1,0_dist_green/trial8.png,,,1,0,greenverival,p,70,20,Female,2021-02-17_11h24.38.873,exp11,2020.2.6,Win32,60,,,,,,,,,,,
,,,,,,,,,,,,,,a,1,1.077615,space,0.188855,0,59,59,198,1,0_targ_16_dist_green/trial24.png,,,0,16,greenverival,a,70,20,Female,2021-02-17_11h24.38.873,exp11,2020.2.6,Win32,60,,,,,,,,,,,
,,,,,,,,,,,,,,p,1,0.627085,space,0.19018,0,60,60,8,1,0_dist_green/trial9.png,,,1,0,greenverival,p,70,20,Female,2021-02-17_11h24.38.873,exp11,2020.2.6,Win32,60,,,,,,,,,,,
,,,,,,,,,,,,,,p,1,0.65318,space,0.182965,0,61,61,53,1,9_dist_green/trial4.png,,,1,9,greenverival,p,70,20,Female,2021-02-17_11h24.38.873,exp11,2020.2.6,Win32,60,,,,,,,,,,,
,,,,,,,,,,,,,,a,1,0.89385,space,0.208735,0,62,62,121,1,0_targ_1_dist_green/trial22.png,,,0,1,greenverival,a,70,20,Female,2021-02-17_11h24.38.873,exp11,2020.2.6,Win32,60,,,,,,,,,,,
,,,,,,,,,,,,,,p,1,0.57466,space,0.15953,0,63,63,1,1,0_dist_green/trial2.png,,,1,0,greenverival,p,70,20,Female,2021-02-17_11h24.38.873,exp11,2020.2.6,Win32,60,,,,,,,,,,,
,,,,,,,,,,,,,,a,1,0.756055,space,0.18289,0,64,64,191,1,0_targ_16_dist_green/trial17.png,,,0,16,greenverival,a,70,20,Female,2021-02-17_11h24.38.873,exp11,2020.2.6,Win32,60,,,,,,,,,,,
,,,,,,,,,,,,,,a,1,0.62129,space,0.167855,0,65,65,133,1,0_targ_4_dist_green/trial9.png,,,0,4,greenverival,a,70,20,Female,2021-02-17_11h24.38.873,exp11,2020.2.6,Win32,60,,,,,,,,,,,
,,,,,,,,,,,,,,a,1,0.568905,space,0.159015,0,66,66,128,1,0_targ_4_dist_green/trial4.png,,,0,4,greenverival,a,70,20,Female,2021-02-17_11h24.38.873,exp11,2020.2.6,Win32,60,,,,,,,,,,,
,,,,,,,,,,,,,,a,1,0.717895,space,0.18105,0,67,67,190,1,0_targ_16_dist_green/trial16.png,,,0,16,greenverival,a,70,20,Female,2021-02-17_11h24.38.873,exp11,2020.2.6,Win32,60,,,,,,,,,,,
,,,,,,,,,,,,,,a,1,0.65839,space,0.14954,0,68,68,137,1,0_targ_4_dist_green/trial13.png,,,0,4,greenverival,a,70,20,Female,2021-02-17_11h24.38.873,exp11,2020.2.6,Win32,60,,,,,,,,,,,
,,,,,,,,,,,,,,p,1,0.7567,space,0.172345,0,69,69,69,1,9_dist_green/trial20.png,,,1,9,greenverival,p,70,20,Female,2021-02-17_11h24.38.873,exp11,2020.2.6,Win32,60,,,,,,,,,,,
,,,,,,,,,,,,,,a,1,0.731385,space,0.19544,0,70,70,157,1,0_targ_10_dist_green/trial8.png,,,0,10,greenverival,a,70,20,Female,2021-02-17_11h24.38.873,exp11,2020.2.6,Win32,60,,,,,,,,,,,
,,,,,,,,,,,,,,a,1,0.617565,space,0.20377,0,71,71,104,1,0_targ_1_dist_green/trial5.png,,,0,1,greenverival,a,70,20,Female,2021-02-17_11h24.38.873,exp11,2020.2.6,Win32,60,,,,,,,,,,,
,,,,,,,,,,,,,,a,1,0.61881,space,0.209465,0,72,72,158,1,0_targ_10_dist_green/trial9.png,,,0,10,greenverival,a,70,20,Female,2021-02-17_11h24.38.873,exp11,2020.2.6,Win32,60,,,,,,,,,,,
,,,,,,,,,,,,,,a,0,0.508745,space,0.67713,0,73,73,55,1,9_dist_green/trial6.png,,,1,9,greenverival,p,70,20,Female,2021-02-17_11h24.38.873,exp11,2020.2.6,Win32,60,,,,,,,,,,,
,,,,,,,,,,,,,,a,1,1.3828,space,0.12884,0,74,74,162,1,0_targ_10_dist_green/trial13.png,,,0,10,greenverival,a,70,20,Female,2021-02-17_11h24.38.873,exp11,2020.2.6,Win32,60,,,,,,,,,,,
,,,,,,,,,,,,,,p,1,1.004695,space,0.14322,0,75,75,70,1,9_dist_green/trial21.png,,,1,9,greenverival,p,70,20,Female,2021-02-17_11h24.38.873,exp11,2020.2.6,Win32,60,,,,,,,,,,,
,,,,,,,,,,,,,,p,1,0.77824,space,0.16961,0,76,76,50,1,9_dist_green/trial1.png,,,1,9,greenverival,p,70,20,Female,2021-02-17_11h24.38.873,exp11,2020.2.6,Win32,60,,,,,,,,,,,
,,,,,,,,,,,,,,a,1,0.801695,space,0.173255,0,77,77,168,1,0_targ_10_dist_green/trial19.png,,,0,10,greenverival,a,70,20,Female,2021-02-17_11h24.38.873,exp11,2020.2.6,Win32,60,,,,,,,,,,,
,,,,,,,,,,,,,,p,1,0.655675,space,0.158445,0,78,78,49,1,3_dist_green/trial25.png,,,1,3,greenverival,p,70,20,Female,2021-02-17_11h24.38.873,exp11,2020.2.6,Win32,60,,,,,,,,,,,
,,,,,,,,,,,,,,a,1,0.854225,space,0.20406,0,79,79,145,1,0_targ_4_dist_green/trial21.png,,,0,4,greenverival,a,70,20,Female,2021-02-17_11h24.38.873,exp11,2020.2.6,Win32,60,,,,,,,,,,,
,,,,,,,,,,,,,,p,1,0.68072,space,0.20241,0,80,80,37,1,3_dist_green/trial13.png,,,1,3,greenverival,p,70,20,Female,2021-02-17_11h24.38.873,exp11,2020.2.6,Win32,60,,,,,,,,,,,
,,,,,,,,,,,,,,a,1,1.33444,space,0.251515,0,81,81,106,1,0_targ_1_dist_green/trial7.png,,,0,1,greenverival,a,70,20,Female,2021-02-17_11h24.38.873,exp11,2020.2.6,Win32,60,,,,,,,,,,,
,,,,,,,,,,,,,,p,1,0.63008,space,0.156715,0,82,82,10,1,0_dist_green/trial11.png,,,1,0,greenverival,p,70,20,Female,2021-02-17_11h24.38.873,exp11,2020.2.6,Win32,60,,,,,,,,,,,
,,,,,,,,,,,,,,p,1,0.698575,space,0.252545,0,83,83,38,1,3_dist_green/trial14.png,,,1,3,greenverival,p,70,20,Female,2021-02-17_11h24.38.873,exp11,2020.2.6,Win32,60,,,,,,,,,,,
,,,,,,,,,,,,,,p,1,0.61446,space,0.237855,0,84,84,84,1,15_dist_green/trial10.png,,,1,15,greenverival,p,70,20,Female,2021-02-17_11h24.38.873,exp11,2020.2.6,Win32,60,,,,,,,,,,,
,,,,,,,,,,,,,,p,1,0.53697,space,0.23456,0,85,85,67,1,9_dist_green/trial18.png,,,1,9,greenverival,p,70,20,Female,2021-02-17_11h24.38.873,exp11,2020.2.6,Win32,60,,,,,,,,,,,
,,,,,,,,,,,,,,a,1,0.61789,space,0.192765,0,86,86,173,1,0_targ_10_dist_green/trial24.png,,,0,10,greenverival,a,70,20,Female,2021-02-17_11h24.38.873,exp11,2020.2.6,Win32,60,,,,,,,,,,,
,,,,,,,,,,,,,,a,1,0.91544,space,0.150585,0,87,87,151,1,0_targ_10_dist_green/trial2.png,,,0,10,greenverival,a,70,20,Female,2021-02-17_11h24.38.873,exp11,2020.2.6,Win32,60,,,,,,,,,,,
,,,,,,,,,,,,,,p,1,0.75876,space,0.18443,0,88,88,56,1,9_dist_green/trial7.png,,,1,9,greenverival,p,70,20,Female,2021-02-17_11h24.38.873,exp11,2020.2.6,Win32,60,,,,,,,,,,,
,,,,,,,,,,,,,,a,1,1.095785,space,0.15028,0,89,89,150,1,0_targ_10_dist_green/trial1.png,,,0,10,greenverival,a,70,20,Female,2021-02-17_11h24.38.873,exp11,2020.2.6,Win32,60,,,,,,,,,,,
,,,,,,,,,,,,,,a,1,0.64548,space,0.162265,0,90,90,183,1,0_targ_16_dist_green/trial9.png,,,0,16,greenverival,a,70,20,Female,2021-02-17_11h24.38.873,exp11,2020.2.6,Win32,60,,,,,,,,,,,
,,,,,,,,,,,,,,a,1,1.17244,space,0.1344,0,91,91,199,1,0_targ_16_dist_green/trial25.png,,,0,16,greenverival,a,70,20,Female,2021-02-17_11h24.38.873,exp11,2020.2.6,Win32,60,,,,,,,,,,,
,,,,,,,,,,,,,,p,1,1.406945,space,0.154255,0,92,92,97,1,15_dist_green/trial23.png,,,1,15,greenverival,p,70,20,Female,2021-02-17_11h24.38.873,exp11,2020.2.6,Win32,60,,,,,,,,,,,
,,,,,,,,,,,,,,a,1,0.680185,space,0.137365,0,93,93,111,1,0_targ_1_dist_green/trial12.png,,,0,1,greenverival,a,70,20,Female,2021-02-17_11h24.38.873,exp11,2020.2.6,Win32,60,,,,,,,,,,,
,,,,,,,,,,,,,,a,1,0.834285,space,0.12486,0,94,94,127,1,0_targ_4_dist_green/trial3.png,,,0,4,greenverival,a,70,20,Female,2021-02-17_11h24.38.873,exp11,2020.2.6,Win32,60,,,,,,,,,,,
,,,,,,,,,,,,,,p,1,0.72418,space,0.155605,0,95,95,66,1,9_dist_green/trial17.png,,,1,9,greenverival,p,70,20,Female,2021-02-17_11h24.38.873,exp11,2020.2.6,Win32,60,,,,,,,,,,,
,,,,,,,,,,,,,,a,1,0.813355,space,0.156735,0,96,96,166,1,0_targ_10_dist_green/trial17.png,,,0,10,greenverival,a,70,20,Female,2021-02-17_11h24.38.873,exp11,2020.2.6,Win32,60,,,,,,,,,,,
,,,,,,,,,,,,,,a,1,0.70147,space,0.140145,0,97,97,141,1,0_targ_4_dist_green/trial17.png,,,0,4,greenverival,a,70,20,Female,2021-02-17_11h24.38.873,exp11,2020.2.6,Win32,60,,,,,,,,,,,
,,,,,,,,,,,,,,p,1,0.681715,space,0.183925,0,98,98,76,1,15_dist_green/trial2.png,,,1,15,greenverival,p,70,20,Female,2021-02-17_11h24.38.873,exp11,2020.2.6,Win32,60,,,,,,,,,,,
,,,,,,,,,,,,,,p,1,0.702695,space,0.184835,0,99,99,80,1,15_dist_green/trial6.png,,,1,15,greenverival,p,70,20,Female,2021-02-17_11h24.38.873,exp11,2020.2.6,Win32,60,,,,,,,,,,,
,,,,,,,,,,,,,,p,1,0.541385,space,0.2042,0,100,100,6,1,0_dist_green/trial7.png,,,1,0,greenverival,p,70,20,Female,2021-02-17_11h24.38.873,exp11,2020.2.6,Win32,60,,,,,,,,,,,
,,,,,,,,,,,,,,a,1,1.2825,space,0.1213,0,101,101,186,1,0_targ_16_dist_green/trial12.png,,,0,16,greenverival,a,70,20,Female,2021-02-17_11h24.38.873,exp11,2020.2.6,Win32,60,,,,,,,,,,,
,,,,,,,,,,,,,,a,1,0.779125,space,0.138985,0,102,102,146,1,0_targ_4_dist_green/trial22.png,,,0,4,greenverival,a,70,20,Female,2021-02-17_11h24.38.873,exp11,2020.2.6,Win32,60,,,,,,,,,,,
,,,,,,,,,,,,,,p,1,1.463585,space,0.156105,0,103,103,48,1,3_dist_green/trial24.png,,,1,3,greenverival,p,70,20,Female,2021-02-17_11h24.38.873,exp11,2020.2.6,Win32,60,,,,,,,,,,,
,,,,,,,,,,,,,,p,1,0.67113,space,0.18541,0,104,104,25,1,3_dist_green/trial1.png,,,1,3,greenverival,p,70,20,Female,2021-02-17_11h24.38.873,exp11,2020.2.6,Win32,60,,,,,,,,,,,
,,,,,,,,,,,,,,a,1,0.63888,space,0.188195,0,105,105,108,1,0_targ_1_dist_green/trial9.png,,,0,1,greenverival,a,70,20,Female,2021-02-17_11h24.38.873,exp11,2020.2.6,Win32,60,,,,,,,,,,,
,,,,,,,,,,,,,,p,1,0.75411,space,0.138245,0,106,106,19,1,0_dist_green/trial20.png,,,1,0,greenverival,p,70,20,Female,2021-02-17_11h24.38.873,exp11,2020.2.6,Win32,60,,,,,,,,,,,
,,,,,,,,,,,,,,p,1,1.34716,space,0.1755,0,107,107,99,1,15_dist_green/trial25.png,,,1,15,greenverival,p,70,20,Female,2021-02-17_11h24.38.873,exp11,2020.2.6,Win32,60,,,,,,,,,,,
,,,,,,,,,,,,,,a,1,0.735525,space,0.17512,0,108,108,156,1,0_targ_10_dist_green/trial7.png,,,0,10,greenverival,a,70,20,Female,2021-02-17_11h24.38.873,exp11,2020.2.6,Win32,60,,,,,,,,,,,
,,,,,,,,,,,,,,a,1,1.148045,space,0.225685,0,109,109,113,1,0_targ_1_dist_green/trial14.png,,,0,1,greenverival,a,70,20,Female,2021-02-17_11h24.38.873,exp11,2020.2.6,Win32,60,,,,,,,,,,,
,,,,,,,,,,,,,,p,1,0.695525,space,0.199605,0,110,110,87,1,15_dist_green/trial13.png,,,1,15,greenverival,p,70,20,Female,2021-02-17_11h24.38.873,exp11,2020.2.6,Win32,60,,,,,,,,,,,
,,,,,,,,,,,,,,a,1,0.839185,space,0.18798,0,111,111,131,1,0_targ_4_dist_green/trial7.png,,,0,4,greenverival,a,70,20,Female,2021-02-17_11h24.38.873,exp11,2020.2.6,Win32,60,,,,,,,,,,,
,,,,,,,,,,,,,,a,1,0.6073,space,0.15661,0,112,112,117,1,0_targ_1_dist_green/trial18.png,,,0,1,greenverival,a,70,20,Female,2021-02-17_11h24.38.873,exp11,2020.2.6,Win32,60,,,,,,,,,,,
,,,,,,,,,,,,,,a,1,0.895075,space,0.200995,0,113,113,176,1,0_targ_16_dist_green/trial2.png,,,0,16,greenverival,a,70,20,Female,2021-02-17_11h24.38.873,exp11,2020.2.6,Win32,60,,,,,,,,,,,
,,,,,,,,,,,,,,a,1,0.68012,space,0.18896,0,114,114,153,1,0_targ_10_dist_green/trial4.png,,,0,10,greenverival,a,70,20,Female,2021-02-17_11h24.38.873,exp11,2020.2.6,Win32,60,,,,,,,,,,,
,,,,,,,,,,,,,,p,1,0.81028,space,0.176495,0,115,115,9,1,0_dist_green/trial10.png,,,1,0,greenverival,p,70,20,Female,2021-02-17_11h24.38.873,exp11,2020.2.6,Win32,60,,,,,,,,,,,
,,,,,,,,,,,,,,p,1,0.54899,space,0.35713,0,116,116,21,1,0_dist_green/trial22.png,,,1,0,greenverival,p,70,20,Female,2021-02-17_11h24.38.873,exp11,2020.2.6,Win32,60,,,,,,,,,,,
,,,,,,,,,,,,,,a,1,0.79262,space,0.182735,0,117,117,130,1,0_targ_4_dist_green/trial6.png,,,0,4,greenverival,a,70,20,Female,2021-02-17_11h24.38.873,exp11,2020.2.6,Win32,60,,,,,,,,,,,
,,,,,,,,,,,,,,a,1,0.856835,space,0.17563,0,118,118,139,1,0_targ_4_dist_green/trial15.png,,,0,4,greenverival,a,70,20,Female,2021-02-17_11h24.38.873,exp11,2020.2.6,Win32,60,,,,,,,,,,,
,,,,,,,,,,,,,,p,1,0.603595,space,0.17076,0,119,119,46,1,3_dist_green/trial22.png,,,1,3,greenverival,p,70,20,Female,2021-02-17_11h24.38.873,exp11,2020.2.6,Win32,60,,,,,,,,,,,
,,,,,,,,,,,,,,p,1,0.76026,space,0.41926,0,120,120,0,1,0_dist_green/trial1.png,,,1,0,greenverival,p,70,20,Female,2021-02-17_11h24.38.873,exp11,2020.2.6,Win32,60,,,,,,,,,,,
,,,,,,,,,,,,,,p,1,0.61827,space,0.18481,0,121,121,33,1,3_dist_green/trial9.png,,,1,3,greenverival,p,70,20,Female,2021-02-17_11h24.38.873,exp11,2020.2.6,Win32,60,,,,,,,,,,,
,,,,,,,,,,,,,,a,1,0.76798,space,0.15086,0,122,122,179,1,0_targ_16_dist_green/trial5.png,,,0,16,greenverival,a,70,20,Female,2021-02-17_11h24.38.873,exp11,2020.2.6,Win32,60,,,,,,,,,,,
,,,,,,,,,,,,,,a,1,0.845655,space,0.185115,0,123,123,123,1,0_targ_1_dist_green/trial24.png,,,0,1,greenverival,a,70,20,Female,2021-02-17_11h24.38.873,exp11,2020.2.6,Win32,60,,,,,,,,,,,
,,,,,,,,,,,,,,p,1,0.63854,space,0.15086,0,124,124,22,1,0_dist_green/trial23.png,,,1,0,greenverival,p,70,20,Female,2021-02-17_11h24.38.873,exp11,2020.2.6,Win32,60,,,,,,,,,,,
,,,,,,,,,,,,,,a,1,0.5784,space,0.182565,0,125,125,188,1,0_targ_16_dist_green/trial14.png,,,0,16,greenverival,a,70,20,Female,2021-02-17_11h24.38.873,exp11,2020.2.6,Win32,60,,,,,,,,,,,
,,,,,,,,,,,,,,p,1,0.72357,space,0.170155,0,126,126,34,1,3_dist_green/trial10.png,,,1,3,greenverival,p,70,20,Female,2021-02-17_11h24.38.873,exp11,2020.2.6,Win32,60,,,,,,,,,,,
,,,,,,,,,,,,,,p,1,0.589265,space,0.16756,0,127,127,13,1,0_dist_green/trial14.png,,,1,0,greenverival,p,70,20,Female,2021-02-17_11h24.38.873,exp11,2020.2.6,Win32,60,,,,,,,,,,,
,,,,,,,,,,,,,,a,1,1.205945,space,0.15728,0,128,128,114,1,0_targ_1_dist_green/trial15.png,,,0,1,greenverival,a,70,20,Female,2021-02-17_11h24.38.873,exp11,2020.2.6,Win32,60,,,,,,,,,,,
,,,,,,,,,,,,,,a,1,0.885315,space,0.15609,0,129,129,175,1,0_targ_16_dist_green/trial1.png,,,0,16,greenverival,a,70,20,Female,2021-02-17_11h24.38.873,exp11,2020.2.6,Win32,60,,,,,,,,,,,
,,,,,,,,,,,,,,a,1,2.100335,space,0.186715,0,130,130,163,1,0_targ_10_dist_green/trial14.png,,,0,10,greenverival,a,70,20,Female,2021-02-17_11h24.38.873,exp11,2020.2.6,Win32,60,,,,,,,,,,,
,,,,,,,,,,,,,,p,1,0.588925,space,0.15107,0,131,131,57,1,9_dist_green/trial8.png,,,1,9,greenverival,p,70,20,Female,2021-02-17_11h24.38.873,exp11,2020.2.6,Win32,60,,,,,,,,,,,
,,,,,,,,,,,,,,p,1,0.656785,space,0.17834,0,132,132,28,1,3_dist_green/trial4.png,,,1,3,greenverival,p,70,20,Female,2021-02-17_11h24.38.873,exp11,2020.2.6,Win32,60,,,,,,,,,,,
,,,,,,,,,,,,,,p,1,0.51147,space,0.232985,0,133,133,23,1,0_dist_green/trial24.png,,,1,0,greenverival,p,70,20,Female,2021-02-17_11h24.38.873,exp11,2020.2.6,Win32,60,,,,,,,,,,,
,,,,,,,,,,,,,,p,1,0.56943,space,0.191135,0,134,134,36,1,3_dist_green/trial12.png,,,1,3,greenverival,p,70,20,Female,2021-02-17_11h24.38.873,exp11,2020.2.6,Win32,60,,,,,,,,,,,
,,,,,,,,,,,,,,a,1,0.65751,space,0.22217,0,135,135,149,1,0_targ_4_dist_green/trial25.png,,,0,4,greenverival,a,70,20,Female,2021-02-17_11h24.38.873,exp11,2020.2.6,Win32,60,,,,,,,,,,,
,,,,,,,,,,,,,,a,1,0.72473,space,0.184225,0,136,136,122,1,0_targ_1_dist_green/trial23.png,,,0,1,greenverival,a,70,20,Female,2021-02-17_11h24.38.873,exp11,2020.2.6,Win32,60,,,,,,,,,,,
,,,,,,,,,,,,,,a,1,0.72352,space,0.150295,0,137,137,155,1,0_targ_10_dist_green/trial6.png,,,0,10,greenverival,a,70,20,Female,2021-02-17_11h24.38.873,exp11,2020.2.6,Win32,60,,,,,,,,,,,
,,,,,,,,,,,,,,p,1,0.68034,space,0.187555,0,138,138,60,1,9_dist_green/trial11.png,,,1,9,greenverival,p,70,20,Female,2021-02-17_11h24.38.873,exp11,2020.2.6,Win32,60,,,,,,,,,,,
,,,,,,,,,,,,,,a,1,0.78879,space,0.19966,0,139,139,115,1,0_targ_1_dist_green/trial6.png,,,0,1,greenverival,a,70,20,Female,2021-02-17_11h24.38.873,exp11,2020.2.6,Win32,60,,,,,,,,,,,
,,,,,,,,,,,,,,p,1,0.70717,space,0.16784,0,140,140,3,1,0_dist_green/trial4.png,,,1,0,greenverival,p,70,20,Female,2021-02-17_11h24.38.873,exp11,2020.2.6,Win32,60,,,,,,,,,,,
,,,,,,,,,,,,,,a,1,0.6385,space,0.16985,0,141,141,126,1,0_targ_4_dist_green/trial2.png,,,0,4,greenverival,a,70,20,Female,2021-02-17_11h24.38.873,exp11,2020.2.6,Win32,60,,,,,,,,,,,
,,,,,,,,,,,,,,a,1,0.773775,space,0.18335,0,142,142,160,1,0_targ_10_dist_green/trial11.png,,,0,10,greenverival,a,70,20,Female,2021-02-17_11h24.38.873,exp11,2020.2.6,Win32,60,,,,,,,,,,,
,,,,,,,,,,,,,,a,1,0.961775,space,0.151385,0,143,143,118,1,0_targ_1_dist_green/trial19.png,,,0,1,greenverival,a,70,20,Female,2021-02-17_11h24.38.873,exp11,2020.2.6,Win32,60,,,,,,,,,,,
,,,,,,,,,,,,,,p,1,0.6847,space,0.15278,0,144,144,83,1,15_dist_green/trial9.png,,,1,15,greenverival,p,70,20,Female,2021-02-17_11h24.38.873,exp11,2020.2.6,Win32,60,,,,,,,,,,,
,,,,,,,,,,,,,,p,1,0.525945,space,0.219155,0,145,145,44,1,3_dist_green/trial20.png,,,1,3,greenverival,p,70,20,Female,2021-02-17_11h24.38.873,exp11,2020.2.6,Win32,60,,,,,,,,,,,
,,,,,,,,,,,,,,a,1,0.700415,space,0.183345,0,146,146,187,1,0_targ_16_dist_green/trial13.png,,,0,16,greenverival,a,70,20,Female,2021-02-17_11h24.38.873,exp11,2020.2.6,Win32,60,,,,,,,,,,,
,,,,,,,,,,,,,,a,1,0.65872,space,0.1342,0,147,147,124,1,0_targ_1_dist_green/trial25.png,,,0,1,greenverival,a,70,20,Female,2021-02-17_11h24.38.873,exp11,2020.2.6,Win32,60,,,,,,,,,,,
,,,,,,,,,,,,,,p,1,0.867615,space,0.18202,0,148,148,98,1,15_dist_green/trial24.png,,,1,15,greenverival,p,70,20,Female,2021-02-17_11h24.38.873,exp11,2020.2.6,Win32,60,,,,,,,,,,,
,,,,,,,,,,,,,,a,1,0.780235,space,0.26842,0,149,149,182,1,0_targ_16_dist_green/trial8.png,,,0,16,greenverival,a,70,20,Female,2021-02-17_11h24.38.873,exp11,2020.2.6,Win32,60,,,,,,,,,,,
,,,,,,,,,,,,,,a,1,0.651735,space,0.183415,0,150,150,180,1,0_targ_16_dist_green/trial6.png,,,0,16,greenverival,a,70,20,Female,2021-02-17_11h24.38.873,exp11,2020.2.6,Win32,60,,,,,,,,,,,
,,,,,,,,,,,,,,p,1,0.786735,space,0.20211,0,151,151,75,1,15_dist_green/trial1.png,,,1,15,greenverival,p,70,20,Female,2021-02-17_11h24.38.873,exp11,2020.2.6,Win32,60,,,,,,,,,,,
,,,,,,,,,,,,,,a,1,1.072825,space,0.21511,0,152,152,119,1,0_targ_1_dist_green/trial20.png,,,0,1,greenverival,a,70,20,Female,2021-02-17_11h24.38.873,exp11,2020.2.6,Win32,60,,,,,,,,,,,
,,,,,,,,,,,,,,a,1,1.077605,space,0.169215,0,153,153,142,1,0_targ_4_dist_green/trial18.png,,,0,4,greenverival,a,70,20,Female,2021-02-17_11h24.38.873,exp11,2020.2.6,Win32,60,,,,,,,,,,,
,,,,,,,,,,,,,,p,1,0.638545,space,0.149335,0,154,154,14,1,0_dist_green/trial15.png,,,1,0,greenverival,p,70,20,Female,2021-02-17_11h24.38.873,exp11,2020.2.6,Win32,60,,,,,,,,,,,
,,,,,,,,,,,,,,p,1,0.58818,space,0.249035,0,155,155,41,1,3_dist_green/trial17.png,,,1,3,greenverival,p,70,20,Female,2021-02-17_11h24.38.873,exp11,2020.2.6,Win32,60,,,,,,,,,,,
,,,,,,,,,,,,,,a,1,0.66689,space,0.172315,0,156,156,193,1,0_targ_16_dist_green/trial19.png,,,0,16,greenverival,a,70,20,Female,2021-02-17_11h24.38.873,exp11,2020.2.6,Win32,60,,,,,,,,,,,
,,,,,,,,,,,,,,a,1,0.806445,space,0.118415,0,157,157,110,1,0_targ_1_dist_green/trial11.png,,,0,1,greenverival,a,70,20,Female,2021-02-17_11h24.38.873,exp11,2020.2.6,Win32,60,,,,,,,,,,,
,,,,,,,,,,,,,,a,1,0.57082,space,0.1486,0,158,158,101,1,0_targ_1_dist_green/trial2.png,,,0,1,greenverival,a,70,20,Female,2021-02-17_11h24.38.873,exp11,2020.2.6,Win32,60,,,,,,,,,,,
,,,,,,,,,,,,,,a,1,0.524825,space,0.141715,0,159,159,109,1,0_targ_1_dist_green/trial10.png,,,0,1,greenverival,a,70,20,Female,2021-02-17_11h24.38.873,exp11,2020.2.6,Win32,60,,,,,,,,,,,
,,,,,,,,,,,,,,a,1,0.536215,space,0.13432,0,160,160,174,1,0_targ_10_dist_green/trial25.png,,,0,10,greenverival,a,70,20,Female,2021-02-17_11h24.38.873,exp11,2020.2.6,Win32,60,,,,,,,,,,,
,,,,,,,,,,,,,,p,1,0.691165,space,0.132885,0,161,161,27,1,3_dist_green/trial3.png,,,1,3,greenverival,p,70,20,Female,2021-02-17_11h24.38.873,exp11,2020.2.6,Win32,60,,,,,,,,,,,
,,,,,,,,,,,,,,a,1,0.6255,space,0.233975,0,162,162,152,1,0_targ_10_dist_green/trial3.png,,,0,10,greenverival,a,70,20,Female,2021-02-17_11h24.38.873,exp11,2020.2.6,Win32,60,,,,,,,,,,,
,,,,,,,,,,,,,,p,1,0.70927,space,0.150695,0,163,163,81,1,15_dist_green/trial7.png,,,1,15,greenverival,p,70,20,Female,2021-02-17_11h24.38.873,exp11,2020.2.6,Win32,60,,,,,,,,,,,
,,,,,,,,,,,,,,p,1,0.690235,space,0.20122,0,164,164,31,1,3_dist_green/trial7.png,,,1,3,greenverival,p,70,20,Female,2021-02-17_11h24.38.873,exp11,2020.2.6,Win32,60,,,,,,,,,,,
,,,,,,,,,,,,,,p,1,0.92478,space,0.159065,0,165,165,43,1,3_dist_green/trial19.png,,,1,3,greenverival,p,70,20,Female,2021-02-17_11h24.38.873,exp11,2020.2.6,Win32,60,,,,,,,,,,,
,,,,,,,,,,,,,,a,1,1.492245,space,0.164935,0,166,166,159,1,0_targ_10_dist_green/trial10.png,,,0,10,greenverival,a,70,20,Female,2021-02-17_11h24.38.873,exp11,2020.2.6,Win32,60,,,,,,,,,,,
,,,,,,,,,,,,,,p,1,0.54118,space,0.1491,0,167,167,12,1,0_dist_green/trial13.png,,,1,0,greenverival,p,70,20,Female,2021-02-17_11h24.38.873,exp11,2020.2.6,Win32,60,,,,,,,,,,,
,,,,,,,,,,,,,,a,1,0.804975,space,0.225725,0,168,168,165,1,0_targ_10_dist_green/trial16.png,,,0,10,greenverival,a,70,20,Female,2021-02-17_11h24.38.873,exp11,2020.2.6,Win32,60,,,,,,,,,,,
,,,,,,,,,,,,,,p,1,0.88898,space,0.173735,0,169,169,92,1,15_dist_green/trial18.png,,,1,15,greenverival,p,70,20,Female,2021-02-17_11h24.38.873,exp11,2020.2.6,Win32,60,,,,,,,,,,,
,,,,,,,,,,,,,,p,1,0.94242,space,0.156055,0,170,170,95,1,15_dist_green/trial21.png,,,1,15,greenverival,p,70,20,Female,2021-02-17_11h24.38.873,exp11,2020.2.6,Win32,60,,,,,,,,,,,
,,,,,,,,,,,,,,p,1,0.686495,space,0.170455,0,171,171,90,1,15_dist_green/trial16.png,,,1,15,greenverival,p,70,20,Female,2021-02-17_11h24.38.873,exp11,2020.2.6,Win32,60,,,,,,,,,,,
,,,,,,,,,,,,,,a,1,0.813545,space,0.186305,0,172,172,195,1,0_targ_16_dist_green/trial21.png,,,0,16,greenverival,a,70,20,Female,2021-02-17_11h24.38.873,exp11,2020.2.6,Win32,60,,,,,,,,,,,
,,,,,,,,,,,,,,p,1,1.02348,space,0.15178,0,173,173,51,1,9_dist_green/trial2.png,,,1,9,greenverival,p,70,20,Female,2021-02-17_11h24.38.873,exp11,2020.2.6,Win32,60,,,,,,,,,,,
,,,,,,,,,,,,,,a,1,1.02299,space,0.18818,0,174,174,197,1,0_targ_16_dist_green/trial23.png,,,0,16,greenverival,a,70,20,Female,2021-02-17_11h24.38.873,exp11,2020.2.6,Win32,60,,,,,,,,,,,
,,,,,,,,,,,,,,a,1,0.99235,space,0.16931,0,175,175,134,1,0_targ_4_dist_green/trial10.png,,,0,4,greenverival,a,70,20,Female,2021-02-17_11h24.38.873,exp11,2020.2.6,Win32,60,,,,,,,,,,,
,,,,,,,,,,,,,,p,1,0.708125,space,0.13267,0,176,176,35,1,3_dist_green/trial11.png,,,1,3,greenverival,p,70,20,Female,2021-02-17_11h24.38.873,exp11,2020.2.6,Win32,60,,,,,,,,,,,
,,,,,,,,,,,,,,a,1,1.272035,space,0.075805,0,177,177,171,1,0_targ_10_dist_green/trial22.png,,,0,10,greenverival,a,70,20,Female,2021-02-17_11h24.38.873,exp11,2020.2.6,Win32,60,,,,,,,,,,,
,,,,,,,,,,,,,,p,1,0.772675,space,0.154305,0,178,178,30,1,3_dist_green/trial6.png,,,1,3,greenverival,p,70,20,Female,2021-02-17_11h24.38.873,exp11,2020.2.6,Win32,60,,,,,,,,,,,
,,,,,,,,,,,,,,a,1,0.64153,space,0.285045,0,179,179,167,1,0_targ_10_dist_green/trial18.png,,,0,10,greenverival,a,70,20,Female,2021-02-17_11h24.38.873,exp11,2020.2.6,Win32,60,,,,,,,,,,,
,,,,,,,,,,,,,,a,1,0.895885,space,0.16599,0,180,180,105,1,0_targ_1_dist_green/trial6.png,,,0,1,greenverival,a,70,20,Female,2021-02-17_11h24.38.873,exp11,2020.2.6,Win32,60,,,,,,,,,,,
,,,,,,,,,,,,,,p,1,0.70389,space,0.16734,0,181,181,88,1,15_dist_green/trial14.png,,,1,15,greenverival,p,70,20,Female,2021-02-17_11h24.38.873,exp11,2020.2.6,Win32,60,,,,,,,,,,,
,,,,,,,,,,,,,,p,1,0.849185,space,0.239765,0,182,182,39,1,3_dist_green/trial15.png,,,1,3,greenverival,p,70,20,Female,2021-02-17_11h24.38.873,exp11,2020.2.6,Win32,60,,,,,,,,,,,
,,,,,,,,,,,,,,a,1,0.69338,space,0.20238,0,183,183,135,1,0_targ_4_dist_green/trial11.png,,,0,4,greenverival,a,70,20,Female,2021-02-17_11h24.38.873,exp11,2020.2.6,Win32,60,,,,,,,,,,,
,,,,,,,,,,,,,,p,1,0.771625,space,0.17587,0,184,184,73,1,9_dist_green/trial24.png,,,1,9,greenverival,p,70,20,Female,2021-02-17_11h24.38.873,exp11,2020.2.6,Win32,60,,,,,,,,,,,
,,,,,,,,,,,,,,a,1,0.648225,space,0.23435,0,185,185,172,1,0_targ_10_dist_green/trial23.png,,,0,10,greenverival,a,70,20,Female,2021-02-17_11h24.38.873,exp11,2020.2.6,Win32,60,,,,,,,,,,,
,,,,,,,,,,,,,,p,1,0.78515,space,0.13618,0,186,186,96,1,15_dist_green/trial22.png,,,1,15,greenverival,p,70,20,Female,2021-02-17_11h24.38.873,exp11,2020.2.6,Win32,60,,,,,,,,,,,
,,,,,,,,,,,,,,p,1,0.851125,space,0.20648,0,187,187,86,1,15_dist_green/trial12.png,,,1,15,greenverival,p,70,20,Female,2021-02-17_11h24.38.873,exp11,2020.2.6,Win32,60,,,,,,,,,,,
,,,,,,,,,,,,,,p,1,0.51813,space,0.189665,0,188,188,62,1,9_dist_green/trial13.png,,,1,9,greenverival,p,70,20,Female,2021-02-17_11h24.38.873,exp11,2020.2.6,Win32,60,,,,,,,,,,,
,,,,,,,,,,,,,,a,1,0.6877,space,0.200805,0,189,189,132,1,0_targ_4_dist_green/trial8.png,,,0,4,greenverival,a,70,20,Female,2021-02-17_11h24.38.873,exp11,2020.2.6,Win32,60,,,,,,,,,,,
,,,,,,,,,,,,,,p,1,0.67697,space,0.13453,0,190,190,40,1,3_dist_green/trial16.png,,,1,3,greenverival,p,70,20,Female,2021-02-17_11h24.38.873,exp11,2020.2.6,Win32,60,,,,,,,,,,,
,,,,,,,,,,,,,,p,1,0.80598,space,0.188075,0,191,191,59,1,9_dist_green/trial10.png,,,1,9,greenverival,p,70,20,Female,2021-02-17_11h24.38.873,exp11,2020.2.6,Win32,60,,,,,,,,,,,
,,,,,,,,,,,,,,p,1,0.56179,space,0.19106,0,192,192,15,1,0_dist_green/trial16.png,,,1,0,greenverival,p,70,20,Female,2021-02-17_11h24.38.873,exp11,2020.2.6,Win32,60,,,,,,,,,,,
,,,,,,,,,,,,,,p,1,0.536425,space,0.173955,0,193,193,78,1,15_dist_green/trial4.png,,,1,15,greenverival,p,70,20,Female,2021-02-17_11h24.38.873,exp11,2020.2.6,Win32,60,,,,,,,,,,,
,,,,,,,,,,,,,,p,1,0.587245,space,0.164605,0,194,194,77,1,15_dist_green/trial3.png,,,1,15,greenverival,p,70,20,Female,2021-02-17_11h24.38.873,exp11,2020.2.6,Win32,60,,,,,,,,,,,
,,,,,,,,,,,,,,a,1,0.702545,space,0.185905,0,195,195,138,1,0_targ_4_dist_green/trial14.png,,,0,4,greenverival,a,70,20,Female,2021-02-17_11h24.38.873,exp11,2020.2.6,Win32,60,,,,,,,,,,,
,,,,,,,,,,,,,,a,1,0.809435,space,0.171365,0,196,196,100,1,0_targ_1_dist_green/trial1.png,,,0,1,greenverival,a,70,20,Female,2021-02-17_11h24.38.873,exp11,2020.2.6,Win32,60,,,,,,,,,,,
,,,,,,,,,,,,,,a,1,0.979445,space,0.199785,0,197,197,116,1,0_targ_1_dist_green/trial17.png,,,0,1,greenverival,a,70,20,Female,2021-02-17_11h24.38.873,exp11,2020.2.6,Win32,60,,,,,,,,,,,
,,,,,,,,,,,,,,a,1,0.968735,space,0.14128,0,198,198,196,1,0_targ_16_dist_green/trial22.png,,,0,16,greenverival,a,70,20,Female,2021-02-17_11h24.38.873,exp11,2020.2.6,Win32,60,,,,,,,,,,,
,,,,,,,,,,,,,,p,1,0.6793,space,0.11112,0,199,199,11,1,0_dist_green/trial12.png,,,1,0,greenverival,p,70,20,Female,2021-02-17_11h24.38.873,exp11,2020.2.6,Win32,60,,,,,,,,,,,
,,,,,,,,,,,,,,,,,,,,,,,,,,,,,,,70,20,Female,2021-02-17_11h24.38.873,exp11,2020.2.6,Win32,60,0,1,1,0,1,conGreen.xlsx,green vertical,Look for green vertical bar (target) and indicate if it is present or absent in the array. If green vertical target is present press 'p' and if absent press 'a'. Press SPACE to start.,,,
