key_resp_6.keys,key_resp_6.rt,key_resp_7.keys,key_resp_7.rt,key_resp_8.keys,key_resp_8.rt,key_resp_10.keys,key_resp_10.rt,key_resp_9.keys,key_resp_9.rt,key_resp_3.keys,key_resp_3.rt,key_resp_5.keys,key_resp_5.rt,key_resp.keys,key_resp.corr,key_resp.rt,key_resp_4.keys,key_resp_4.rt,trials.thisRepN,trials.thisTrialN,trials.thisN,trials.thisIndex,trials.ran,ImageFile,tarPos,tarSize,targPres,numDist,targetName,correctAns,participant,age,sex,date,expName,psychopyVersion,OS,frameRate,trials_2.thisRepN,trials_2.thisTrialN,trials_2.thisN,trials_2.thisIndex,trials_2.ran,condsFile,targName,instructionText,colTarget,sizeTarg,posit
space,1.7495,space,9.276,space,5.3469,space,11.4772,space,3.0584,space,13.0908,space,9.0572,p,0,1.3283,space,3.2602,0,0,0,100,1,0_targ_1_dist_red/trial1.png,,,0,1,redHorizontal,a,80,31,female,2021-03-02_13h34.38.016,exp11,2020.2.6,Linux armv8l,60,,,,,,,,,,,
,,,,,,,,,,,,,,a,1,1.2143,space,4.9279,0,1,1,194,1,0_targ_16_dist_red/trial20.png,,,0,16,redHorizontal,a,80,31,female,2021-03-02_13h34.38.016,exp11,2020.2.6,Linux armv8l,60,,,,,,,,,,,
,,,,,,,,,,,,,,a,1,0.854,space,3.35,0,2,2,107,1,0_targ_1_dist_red/trial8.png,,,0,1,redHorizontal,a,80,31,female,2021-03-02_13h34.38.016,exp11,2020.2.6,Linux armv8l,60,,,,,,,,,,,
,,,,,,,,,,,,,,a,1,0.7261,space,1.2868,0,3,3,145,1,0_targ_4_dist_red/trial21.png,,,0,4,redHorizontal,a,80,31,female,2021-03-02_13h34.38.016,exp11,2020.2.6,Linux armv8l,60,,,,,,,,,,,
,,,,,,,,,,,,,,p,1,0.7096,space,0.6825,0,4,4,9,1,0_dist_red/trial10.png,,,1,0,redHorizontal,p,80,31,female,2021-03-02_13h34.38.016,exp11,2020.2.6,Linux armv8l,60,,,,,,,,,,,
,,,,,,,,,,,,,,p,1,1.0539,space,0.7082,0,5,5,49,1,3_dist_red/trial25.png,,,1,3,redHorizontal,p,80,31,female,2021-03-02_13h34.38.016,exp11,2020.2.6,Linux armv8l,60,,,,,,,,,,,
,,,,,,,,,,,,,,p,1,0.9338,space,0.6513,0,6,6,74,1,9_dist_red/trial25.png,,,1,9,redHorizontal,p,80,31,female,2021-03-02_13h34.38.016,exp11,2020.2.6,Linux armv8l,60,,,,,,,,,,,
,,,,,,,,,,,,,,p,1,1.29,space,0.4511,0,7,7,86,1,15_dist_red/trial12.png,,,1,15,redHorizontal,p,80,31,female,2021-03-02_13h34.38.016,exp11,2020.2.6,Linux armv8l,60,,,,,,,,,,,
,,,,,,,,,,,,,,p,1,1.4011,space,0.393,0,8,8,98,1,15_dist_red/trial24.png,,,1,15,redHorizontal,p,80,31,female,2021-03-02_13h34.38.016,exp11,2020.2.6,Linux armv8l,60,,,,,,,,,,,
,,,,,,,,,,,,,,p,1,0.6231,space,0.4196,0,9,9,5,1,0_dist_red/trial6.png,,,1,0,redHorizontal,p,80,31,female,2021-03-02_13h34.38.016,exp11,2020.2.6,Linux armv8l,60,,,,,,,,,,,
,,,,,,,,,,,,,,p,1,0.8035,space,0.4276,0,10,10,52,1,9_dist_red/trial3.png,,,1,9,redHorizontal,p,80,31,female,2021-03-02_13h34.38.016,exp11,2020.2.6,Linux armv8l,60,,,,,,,,,,,
,,,,,,,,,,,,,,a,1,1.0261,space,0.5805,0,11,11,167,1,0_targ_10_dist_red/trial18.png,,,0,10,redHorizontal,a,80,31,female,2021-03-02_13h34.38.016,exp11,2020.2.6,Linux armv8l,60,,,,,,,,,,,
,,,,,,,,,,,,,,a,1,0.9571,space,0.4272,0,12,12,186,1,0_targ_16_dist_red/trial12.png,,,0,16,redHorizontal,a,80,31,female,2021-03-02_13h34.38.016,exp11,2020.2.6,Linux armv8l,60,,,,,,,,,,,
,,,,,,,,,,,,,,a,1,0.967,space,0.41,0,13,13,143,1,0_targ_4_dist_red/trial19.png,,,0,4,redHorizontal,a,80,31,female,2021-03-02_13h34.38.016,exp11,2020.2.6,Linux armv8l,60,,,,,,,,,,,
,,,,,,,,,,,,,,a,1,1.3142,space,0.3631,0,14,14,103,1,0_targ_1_dist_red/trial4.png,,,0,1,redHorizontal,a,80,31,female,2021-03-02_13h34.38.016,exp11,2020.2.6,Linux armv8l,60,,,,,,,,,,,
,,,,,,,,,,,,,,a,1,1.3473,space,0.4226,0,15,15,185,1,0_targ_16_dist_red/trial11.png,,,0,16,redHorizontal,a,80,31,female,2021-03-02_13h34.38.016,exp11,2020.2.6,Linux armv8l,60,,,,,,,,,,,
,,,,,,,,,,,,,,a,1,1.1229,space,0.1666,0,16,16,127,1,0_targ_4_dist_red/trial3.png,,,0,4,redHorizontal,a,80,31,female,2021-03-02_13h34.38.016,exp11,2020.2.6,Linux armv8l,60,,,,,,,,,,,
,,,,,,,,,,,,,,p,1,1.1216,space,0.1277,0,17,17,46,1,3_dist_red/trial22.png,,,1,3,redHorizontal,p,80,31,female,2021-03-02_13h34.38.016,exp11,2020.2.6,Linux armv8l,60,,,,,,,,,,,
,,,,,,,,,,,,,,a,1,1.2354,space,0.208,0,18,18,174,1,0_targ_10_dist_red/trial25.png,,,0,10,redHorizontal,a,80,31,female,2021-03-02_13h34.38.016,exp11,2020.2.6,Linux armv8l,60,,,,,,,,,,,
,,,,,,,,,,,,,,a,1,0.7651,space,0.2816,0,19,19,183,1,0_targ_16_dist_red/trial9.png,,,0,16,redHorizontal,a,80,31,female,2021-03-02_13h34.38.016,exp11,2020.2.6,Linux armv8l,60,,,,,,,,,,,
,,,,,,,,,,,,,,p,1,1.0835,space,0.237,0,20,20,96,1,15_dist_red/trial22.png,,,1,15,redHorizontal,p,80,31,female,2021-03-02_13h34.38.016,exp11,2020.2.6,Linux armv8l,60,,,,,,,,,,,
,,,,,,,,,,,,,,p,1,0.8302,space,0.1978,0,21,21,42,1,3_dist_red/trial18.png,,,1,3,redHorizontal,p,80,31,female,2021-03-02_13h34.38.016,exp11,2020.2.6,Linux armv8l,60,,,,,,,,,,,
,,,,,,,,,,,,,,a,0,0.8082,space,0.5953,0,22,22,65,1,9_dist_red/trial16.png,,,1,9,redHorizontal,p,80,31,female,2021-03-02_13h34.38.016,exp11,2020.2.6,Linux armv8l,60,,,,,,,,,,,
,,,,,,,,,,,,,,p,1,0.8212,space,0.2028,0,23,23,18,1,0_dist_red/trial19.png,,,1,0,redHorizontal,p,80,31,female,2021-03-02_13h34.38.016,exp11,2020.2.6,Linux armv8l,60,,,,,,,,,,,
,,,,,,,,,,,,,,a,1,1.4484,space,0.2781,0,24,24,188,1,0_targ_16_dist_red/trial14.png,,,0,16,redHorizontal,a,80,31,female,2021-03-02_13h34.38.016,exp11,2020.2.6,Linux armv8l,60,,,,,,,,,,,
,,,,,,,,,,,,,,p,1,1.0142,space,0.2483,0,25,25,56,1,9_dist_red/trial7.png,,,1,9,redHorizontal,p,80,31,female,2021-03-02_13h34.38.016,exp11,2020.2.6,Linux armv8l,60,,,,,,,,,,,
,,,,,,,,,,,,,,a,1,1.0599,space,0.2647,0,26,26,193,1,0_targ_16_dist_red/trial19.png,,,0,16,redHorizontal,a,80,31,female,2021-03-02_13h34.38.016,exp11,2020.2.6,Linux armv8l,60,,,,,,,,,,,
,,,,,,,,,,,,,,a,1,0.8353,space,0.316,0,27,27,101,1,0_targ_1_dist_red/trial2.png,,,0,1,redHorizontal,a,80,31,female,2021-03-02_13h34.38.016,exp11,2020.2.6,Linux armv8l,60,,,,,,,,,,,
,,,,,,,,,,,,,,p,1,0.8959,space,0.28,0,28,28,57,1,9_dist_red/trial8.png,,,1,9,redHorizontal,p,80,31,female,2021-03-02_13h34.38.016,exp11,2020.2.6,Linux armv8l,60,,,,,,,,,,,
,,,,,,,,,,,,,,p,1,0.9038,space,0.1554,0,29,29,60,1,9_dist_red/trial11.png,,,1,9,redHorizontal,p,80,31,female,2021-03-02_13h34.38.016,exp11,2020.2.6,Linux armv8l,60,,,,,,,,,,,
,,,,,,,,,,,,,,p,1,0.7262,space,0.2104,0,30,30,66,1,9_dist_red/trial17.png,,,1,9,redHorizontal,p,80,31,female,2021-03-02_13h34.38.016,exp11,2020.2.6,Linux armv8l,60,,,,,,,,,,,
,,,,,,,,,,,,,,a,1,1.1514,space,0.2296,0,31,31,163,1,0_targ_10_dist_red/trial14.png,,,0,10,redHorizontal,a,80,31,female,2021-03-02_13h34.38.016,exp11,2020.2.6,Linux armv8l,60,,,,,,,,,,,
,,,,,,,,,,,,,,p,1,1.3309,space,0.1366,0,32,32,90,1,15_dist_red/trial16.png,,,1,15,redHorizontal,p,80,31,female,2021-03-02_13h34.38.016,exp11,2020.2.6,Linux armv8l,60,,,,,,,,,,,
,,,,,,,,,,,,,,a,1,0.9214,space,0.1822,0,33,33,170,1,0_targ_10_dist_red/trial21.png,,,0,10,redHorizontal,a,80,31,female,2021-03-02_13h34.38.016,exp11,2020.2.6,Linux armv8l,60,,,,,,,,,,,
,,,,,,,,,,,,,,p,1,1.1927,space,0.1163,0,34,34,69,1,9_dist_red/trial20.png,,,1,9,redHorizontal,p,80,31,female,2021-03-02_13h34.38.016,exp11,2020.2.6,Linux armv8l,60,,,,,,,,,,,
,,,,,,,,,,,,,,a,1,0.9503,space,0.1352,0,35,35,135,1,0_targ_4_dist_red/trial11.png,,,0,4,redHorizontal,a,80,31,female,2021-03-02_13h34.38.016,exp11,2020.2.6,Linux armv8l,60,,,,,,,,,,,
,,,,,,,,,,,,,,p,1,0.7905,space,0.1174,0,36,36,7,1,0_dist_red/trial8.png,,,1,0,redHorizontal,p,80,31,female,2021-03-02_13h34.38.016,exp11,2020.2.6,Linux armv8l,60,,,,,,,,,,,
,,,,,,,,,,,,,,a,1,0.803,space,0.1809,0,37,37,129,1,0_targ_4_dist_red/trial5.png,,,0,4,redHorizontal,a,80,31,female,2021-03-02_13h34.38.016,exp11,2020.2.6,Linux armv8l,60,,,,,,,,,,,
,,,,,,,,,,,,,,a,1,0.9325,space,0.1898,0,38,38,176,1,0_targ_16_dist_red/trial2.png,,,0,16,redHorizontal,a,80,31,female,2021-03-02_13h34.38.016,exp11,2020.2.6,Linux armv8l,60,,,,,,,,,,,
,,,,,,,,,,,,,,a,1,0.8148,space,0.2038,0,39,39,169,1,0_targ_10_dist_red/trial20.png,,,0,10,redHorizontal,a,80,31,female,2021-03-02_13h34.38.016,exp11,2020.2.6,Linux armv8l,60,,,,,,,,,,,
,,,,,,,,,,,,,,p,1,0.9045,space,0.1468,0,40,40,29,1,3_dist_red/trial5.png,,,1,3,redHorizontal,p,80,31,female,2021-03-02_13h34.38.016,exp11,2020.2.6,Linux armv8l,60,,,,,,,,,,,
,,,,,,,,,,,,,,a,1,1.9356,space,0.2204,0,41,41,149,1,0_targ_4_dist_red/trial25.png,,,0,4,redHorizontal,a,80,31,female,2021-03-02_13h34.38.016,exp11,2020.2.6,Linux armv8l,60,,,,,,,,,,,
,,,,,,,,,,,,,,a,1,0.9908,space,0.2191,0,42,42,175,1,0_targ_16_dist_red/trial1.png,,,0,16,redHorizontal,a,80,31,female,2021-03-02_13h34.38.016,exp11,2020.2.6,Linux armv8l,60,,,,,,,,,,,
,,,,,,,,,,,,,,p,1,0.785,space,0.0814,0,43,43,47,1,3_dist_red/trial23.png,,,1,3,redHorizontal,p,80,31,female,2021-03-02_13h34.38.016,exp11,2020.2.6,Linux armv8l,60,,,,,,,,,,,
,,,,,,,,,,,,,,a,1,0.7276,space,0.197,0,44,44,125,1,0_targ_4_dist_red/trial1.png,,,0,4,redHorizontal,a,80,31,female,2021-03-02_13h34.38.016,exp11,2020.2.6,Linux armv8l,60,,,,,,,,,,,
,,,,,,,,,,,,,,a,1,1.5697,space,0.3197,0,45,45,124,1,0_targ_1_dist_red/trial25.png,,,0,1,redHorizontal,a,80,31,female,2021-03-02_13h34.38.016,exp11,2020.2.6,Linux armv8l,60,,,,,,,,,,,
,,,,,,,,,,,,,,p,1,1.0722,space,0.1235,0,46,46,68,1,9_dist_red/trial19.png,,,1,9,redHorizontal,p,80,31,female,2021-03-02_13h34.38.016,exp11,2020.2.6,Linux armv8l,60,,,,,,,,,,,
,,,,,,,,,,,,,,a,1,0.8136,space,0.2055,0,47,47,190,1,0_targ_16_dist_red/trial16.png,,,0,16,redHorizontal,a,80,31,female,2021-03-02_13h34.38.016,exp11,2020.2.6,Linux armv8l,60,,,,,,,,,,,
,,,,,,,,,,,,,,a,1,0.7355,space,0.2161,0,48,48,156,1,0_targ_10_dist_red/trial7.png,,,0,10,redHorizontal,a,80,31,female,2021-03-02_13h34.38.016,exp11,2020.2.6,Linux armv8l,60,,,,,,,,,,,
,,,,,,,,,,,,,,a,1,1.2184,space,0.1848,0,49,49,117,1,0_targ_1_dist_red/trial18.png,,,0,1,redHorizontal,a,80,31,female,2021-03-02_13h34.38.016,exp11,2020.2.6,Linux armv8l,60,,,,,,,,,,,
,,,,,,,,,,,,,,a,1,0.6041,space,0.2555,0,50,50,118,1,0_targ_1_dist_red/trial19.png,,,0,1,redHorizontal,a,80,31,female,2021-03-02_13h34.38.016,exp11,2020.2.6,Linux armv8l,60,,,,,,,,,,,
,,,,,,,,,,,,,,p,1,1.4837,space,0.1708,0,51,51,79,1,15_dist_red/trial5.png,,,1,15,redHorizontal,p,80,31,female,2021-03-02_13h34.38.016,exp11,2020.2.6,Linux armv8l,60,,,,,,,,,,,
,,,,,,,,,,,,,,p,1,0.9993,space,0.0871,0,52,52,20,1,0_dist_red/trial21.png,,,1,0,redHorizontal,p,80,31,female,2021-03-02_13h34.38.016,exp11,2020.2.6,Linux armv8l,60,,,,,,,,,,,
,,,,,,,,,,,,,,a,1,0.8095,space,0.2238,0,53,53,162,1,0_targ_10_dist_red/trial13.png,,,0,10,redHorizontal,a,80,31,female,2021-03-02_13h34.38.016,exp11,2020.2.6,Linux armv8l,60,,,,,,,,,,,
,,,,,,,,,,,,,,p,1,1.1313,space,0.1094,0,54,54,45,1,3_dist_red/trial21.png,,,1,3,redHorizontal,p,80,31,female,2021-03-02_13h34.38.016,exp11,2020.2.6,Linux armv8l,60,,,,,,,,,,,
,,,,,,,,,,,,,,a,1,0.8464,space,0.1861,0,55,55,115,1,0_targ_1_dist_red/trial6.png,,,0,1,redHorizontal,a,80,31,female,2021-03-02_13h34.38.016,exp11,2020.2.6,Linux armv8l,60,,,,,,,,,,,
,,,,,,,,,,,,,,p,1,0.824,space,0.1823,0,56,56,6,1,0_dist_red/trial7.png,,,1,0,redHorizontal,p,80,31,female,2021-03-02_13h34.38.016,exp11,2020.2.6,Linux armv8l,60,,,,,,,,,,,
,,,,,,,,,,,,,,p,1,0.9743,space,0.0961,0,57,57,91,1,15_dist_red/trial17.png,,,1,15,redHorizontal,p,80,31,female,2021-03-02_13h34.38.016,exp11,2020.2.6,Linux armv8l,60,,,,,,,,,,,
,,,,,,,,,,,,,,p,1,0.8733,space,0.0472,0,58,58,55,1,9_dist_red/trial6.png,,,1,9,redHorizontal,p,80,31,female,2021-03-02_13h34.38.016,exp11,2020.2.6,Linux armv8l,60,,,,,,,,,,,
,,,,,,,,,,,,,,a,1,1.1985,space,0.2025,0,59,59,180,1,0_targ_16_dist_red/trial6.png,,,0,16,redHorizontal,a,80,31,female,2021-03-02_13h34.38.016,exp11,2020.2.6,Linux armv8l,60,,,,,,,,,,,
,,,,,,,,,,,,,,a,1,0.9035,space,0.203,0,60,60,160,1,0_targ_10_dist_red/trial11.png,,,0,10,redHorizontal,a,80,31,female,2021-03-02_13h34.38.016,exp11,2020.2.6,Linux armv8l,60,,,,,,,,,,,
,,,,,,,,,,,,,,a,1,0.8896,space,0.2303,0,61,61,182,1,0_targ_16_dist_red/trial8.png,,,0,16,redHorizontal,a,80,31,female,2021-03-02_13h34.38.016,exp11,2020.2.6,Linux armv8l,60,,,,,,,,,,,
,,,,,,,,,,,,,,p,1,0.6874,space,0.1011,0,62,62,8,1,0_dist_red/trial9.png,,,1,0,redHorizontal,p,80,31,female,2021-03-02_13h34.38.016,exp11,2020.2.6,Linux armv8l,60,,,,,,,,,,,
,,,,,,,,,,,,,,p,1,0.8229,space,0.1348,0,63,63,25,1,3_dist_red/trial1.png,,,1,3,redHorizontal,p,80,31,female,2021-03-02_13h34.38.016,exp11,2020.2.6,Linux armv8l,60,,,,,,,,,,,
,,,,,,,,,,,,,,a,1,1.131,space,0.2007,0,64,64,147,1,0_targ_4_dist_red/trial23.png,,,0,4,redHorizontal,a,80,31,female,2021-03-02_13h34.38.016,exp11,2020.2.6,Linux armv8l,60,,,,,,,,,,,
,,,,,,,,,,,,,,a,1,0.8202,space,0.1866,0,65,65,102,1,0_targ_1_dist_red/trial3.png,,,0,1,redHorizontal,a,80,31,female,2021-03-02_13h34.38.016,exp11,2020.2.6,Linux armv8l,60,,,,,,,,,,,
,,,,,,,,,,,,,,a,1,0.645,space,0.2107,0,66,66,130,1,0_targ_4_dist_red/trial6.png,,,0,4,redHorizontal,a,80,31,female,2021-03-02_13h34.38.016,exp11,2020.2.6,Linux armv8l,60,,,,,,,,,,,
,,,,,,,,,,,,,,p,1,0.9319,space,0.1732,0,67,67,39,1,3_dist_red/trial15.png,,,1,3,redHorizontal,p,80,31,female,2021-03-02_13h34.38.016,exp11,2020.2.6,Linux armv8l,60,,,,,,,,,,,
,,,,,,,,,,,,,,a,1,1.7392,space,0.2112,0,68,68,119,1,0_targ_1_dist_red/trial20.png,,,0,1,redHorizontal,a,80,31,female,2021-03-02_13h34.38.016,exp11,2020.2.6,Linux armv8l,60,,,,,,,,,,,
,,,,,,,,,,,,,,p,1,1.2541,space,0.0949,0,69,69,62,1,9_dist_red/trial13.png,,,1,9,redHorizontal,p,80,31,female,2021-03-02_13h34.38.016,exp11,2020.2.6,Linux armv8l,60,,,,,,,,,,,
,,,,,,,,,,,,,,a,1,0.9534,space,0.1642,0,70,70,113,1,0_targ_1_dist_red/trial14.png,,,0,1,redHorizontal,a,80,31,female,2021-03-02_13h34.38.016,exp11,2020.2.6,Linux armv8l,60,,,,,,,,,,,
,,,,,,,,,,,,,,p,1,0.7471,space,0.0993,0,71,71,16,1,0_dist_red/trial17.png,,,1,0,redHorizontal,p,80,31,female,2021-03-02_13h34.38.016,exp11,2020.2.6,Linux armv8l,60,,,,,,,,,,,
,,,,,,,,,,,,,,a,1,0.6133,space,0.203,0,72,72,150,1,0_targ_10_dist_red/trial1.png,,,0,10,redHorizontal,a,80,31,female,2021-03-02_13h34.38.016,exp11,2020.2.6,Linux armv8l,60,,,,,,,,,,,
,,,,,,,,,,,,,,a,1,1.3795,space,0.825,0,73,73,166,1,0_targ_10_dist_red/trial17.png,,,0,10,redHorizontal,a,80,31,female,2021-03-02_13h34.38.016,exp11,2020.2.6,Linux armv8l,60,,,,,,,,,,,
,,,,,,,,,,,,,,a,1,1.2741,space,0.1344,0,74,74,197,1,0_targ_16_dist_red/trial23.png,,,0,16,redHorizontal,a,80,31,female,2021-03-02_13h34.38.016,exp11,2020.2.6,Linux armv8l,60,,,,,,,,,,,
,,,,,,,,,,,,,,p,1,1.4327,space,0.1472,0,75,75,10,1,0_dist_red/trial11.png,,,1,0,redHorizontal,p,80,31,female,2021-03-02_13h34.38.016,exp11,2020.2.6,Linux armv8l,60,,,,,,,,,,,
,,,,,,,,,,,,,,a,1,0.9876,space,0.1996,0,76,76,155,1,0_targ_10_dist_red/trial6.png,,,0,10,redHorizontal,a,80,31,female,2021-03-02_13h34.38.016,exp11,2020.2.6,Linux armv8l,60,,,,,,,,,,,
,,,,,,,,,,,,,,a,1,0.658,space,0.2186,0,77,77,108,1,0_targ_1_dist_red/trial9.png,,,0,1,redHorizontal,a,80,31,female,2021-03-02_13h34.38.016,exp11,2020.2.6,Linux armv8l,60,,,,,,,,,,,
,,,,,,,,,,,,,,a,1,0.6659,space,0.2169,0,78,78,192,1,0_targ_16_dist_red/trial18.png,,,0,16,redHorizontal,a,80,31,female,2021-03-02_13h34.38.016,exp11,2020.2.6,Linux armv8l,60,,,,,,,,,,,
,,,,,,,,,,,,,,p,1,0.6078,space,0.1887,0,79,79,28,1,3_dist_red/trial4.png,,,1,3,redHorizontal,p,80,31,female,2021-03-02_13h34.38.016,exp11,2020.2.6,Linux armv8l,60,,,,,,,,,,,
,,,,,,,,,,,,,,a,0,0.5474,space,0.4039,0,80,80,75,1,15_dist_red/trial1.png,,,1,15,redHorizontal,p,80,31,female,2021-03-02_13h34.38.016,exp11,2020.2.6,Linux armv8l,60,,,,,,,,,,,
,,,,,,,,,,,,,,a,1,0.9357,space,0.2156,0,81,81,140,1,0_targ_4_dist_red/trial6.png,,,0,4,redHorizontal,a,80,31,female,2021-03-02_13h34.38.016,exp11,2020.2.6,Linux armv8l,60,,,,,,,,,,,
,,,,,,,,,,,,,,p,1,0.9374,space,0.1452,0,82,82,77,1,15_dist_red/trial3.png,,,1,15,redHorizontal,p,80,31,female,2021-03-02_13h34.38.016,exp11,2020.2.6,Linux armv8l,60,,,,,,,,,,,
,,,,,,,,,,,,,,p,1,0.6595,space,2.0908,0,83,83,17,1,0_dist_red/trial18.png,,,1,0,redHorizontal,p,80,31,female,2021-03-02_13h34.38.016,exp11,2020.2.6,Linux armv8l,60,,,,,,,,,,,
,,,,,,,,,,,,,,p,1,0.6687,space,0.2283,0,84,84,4,1,0_dist_red/trial5.png,,,1,0,redHorizontal,p,80,31,female,2021-03-02_13h34.38.016,exp11,2020.2.6,Linux armv8l,60,,,,,,,,,,,
,,,,,,,,,,,,,,p,1,0.7564,space,0.2198,0,85,85,53,1,9_dist_red/trial4.png,,,1,9,redHorizontal,p,80,31,female,2021-03-02_13h34.38.016,exp11,2020.2.6,Linux armv8l,60,,,,,,,,,,,
,,,,,,,,,,,,,,a,1,0.9941,space,0.1882,0,86,86,151,1,0_targ_10_dist_red/trial2.png,,,0,10,redHorizontal,a,80,31,female,2021-03-02_13h34.38.016,exp11,2020.2.6,Linux armv8l,60,,,,,,,,,,,
,,,,,,,,,,,,,,p,1,0.8025,space,0.1222,0,87,87,24,1,0_dist_red/trial25.png,,,1,0,redHorizontal,p,80,31,female,2021-03-02_13h34.38.016,exp11,2020.2.6,Linux armv8l,60,,,,,,,,,,,
,,,,,,,,,,,,,,a,1,0.8552,space,0.211,0,88,88,181,1,0_targ_16_dist_red/trial7.png,,,0,16,redHorizontal,a,80,31,female,2021-03-02_13h34.38.016,exp11,2020.2.6,Linux armv8l,60,,,,,,,,,,,
,,,,,,,,,,,,,,p,1,0.8569,space,0.1417,0,89,89,73,1,9_dist_red/trial24.png,,,1,9,redHorizontal,p,80,31,female,2021-03-02_13h34.38.016,exp11,2020.2.6,Linux armv8l,60,,,,,,,,,,,
,,,,,,,,,,,,,,a,1,0.8658,space,0.1896,0,90,90,177,1,0_targ_16_dist_red/trial3.png,,,0,16,redHorizontal,a,80,31,female,2021-03-02_13h34.38.016,exp11,2020.2.6,Linux armv8l,60,,,,,,,,,,,
,,,,,,,,,,,,,,p,1,0.7367,space,0.1135,0,91,91,48,1,3_dist_red/trial24.png,,,1,3,redHorizontal,p,80,31,female,2021-03-02_13h34.38.016,exp11,2020.2.6,Linux armv8l,60,,,,,,,,,,,
,,,,,,,,,,,,,,p,1,0.9731,space,0.1053,0,92,92,37,1,3_dist_red/trial13.png,,,1,3,redHorizontal,p,80,31,female,2021-03-02_13h34.38.016,exp11,2020.2.6,Linux armv8l,60,,,,,,,,,,,
,,,,,,,,,,,,,,p,1,1.2131,space,0.1031,0,93,93,84,1,15_dist_red/trial10.png,,,1,15,redHorizontal,p,80,31,female,2021-03-02_13h34.38.016,exp11,2020.2.6,Linux armv8l,60,,,,,,,,,,,
,,,,,,,,,,,,,,a,1,1.1826,space,0.1739,0,94,94,120,1,0_targ_1_dist_red/trial21.png,,,0,1,redHorizontal,a,80,31,female,2021-03-02_13h34.38.016,exp11,2020.2.6,Linux armv8l,60,,,,,,,,,,,
,,,,,,,,,,,,,,a,1,1.0342,space,0.3885,0,95,95,110,1,0_targ_1_dist_red/trial11.png,,,0,1,redHorizontal,a,80,31,female,2021-03-02_13h34.38.016,exp11,2020.2.6,Linux armv8l,60,,,,,,,,,,,
,,,,,,,,,,,,,,p,0,1.9404,space,1.5473,0,96,96,146,1,0_targ_4_dist_red/trial22.png,,,0,4,redHorizontal,a,80,31,female,2021-03-02_13h34.38.016,exp11,2020.2.6,Linux armv8l,60,,,,,,,,,,,
,,,,,,,,,,,,,,p,1,1.5125,space,3.1479,0,97,97,72,1,9_dist_red/trial23.png,,,1,9,redHorizontal,p,80,31,female,2021-03-02_13h34.38.016,exp11,2020.2.6,Linux armv8l,60,,,,,,,,,,,
,,,,,,,,,,,,,,a,1,1.7063,space,0.3889,0,98,98,191,1,0_targ_16_dist_red/trial17.png,,,0,16,redHorizontal,a,80,31,female,2021-03-02_13h34.38.016,exp11,2020.2.6,Linux armv8l,60,,,,,,,,,,,
,,,,,,,,,,,,,,a,1,0.9045,space,0.312,0,99,99,189,1,0_targ_16_dist_red/trial15.png,,,0,16,redHorizontal,a,80,31,female,2021-03-02_13h34.38.016,exp11,2020.2.6,Linux armv8l,60,,,,,,,,,,,
,,,,,,,,,,,,,,p,1,1.204,space,4.463,0,100,100,58,1,9_dist_red/trial9.png,,,1,9,redHorizontal,p,80,31,female,2021-03-02_13h34.38.016,exp11,2020.2.6,Linux armv8l,60,,,,,,,,,,,
,,,,,,,,,,,,,,a,1,0.6953,space,0.3942,0,101,101,164,1,0_targ_10_dist_red/trial15.png,,,0,10,redHorizontal,a,80,31,female,2021-03-02_13h34.38.016,exp11,2020.2.6,Linux armv8l,60,,,,,,,,,,,
,,,,,,,,,,,,,,a,1,0.9105,space,1.7438,0,102,102,139,1,0_targ_4_dist_red/trial15.png,,,0,4,redHorizontal,a,80,31,female,2021-03-02_13h34.38.016,exp11,2020.2.6,Linux armv8l,60,,,,,,,,,,,
,,,,,,,,,,,,,,a,1,0.8408,space,0.2875,0,103,103,112,1,0_targ_1_dist_red/trial13.png,,,0,1,redHorizontal,a,80,31,female,2021-03-02_13h34.38.016,exp11,2020.2.6,Linux armv8l,60,,,,,,,,,,,
,,,,,,,,,,,,,,a,1,0.6622,space,0.3334,0,104,104,199,1,0_targ_16_dist_red/trial25.png,,,0,16,redHorizontal,a,80,31,female,2021-03-02_13h34.38.016,exp11,2020.2.6,Linux armv8l,60,,,,,,,,,,,
,,,,,,,,,,,,,,p,1,0.9431,space,0.2102,0,105,105,40,1,3_dist_red/trial16.png,,,1,3,redHorizontal,p,80,31,female,2021-03-02_13h34.38.016,exp11,2020.2.6,Linux armv8l,60,,,,,,,,,,,
,,,,,,,,,,,,,,p,1,1.2214,space,0.8264,0,106,106,27,1,3_dist_red/trial3.png,,,1,3,redHorizontal,p,80,31,female,2021-03-02_13h34.38.016,exp11,2020.2.6,Linux armv8l,60,,,,,,,,,,,
,,,,,,,,,,,,,,p,1,0.6499,space,0.2484,0,107,107,14,1,0_dist_red/trial15.png,,,1,0,redHorizontal,p,80,31,female,2021-03-02_13h34.38.016,exp11,2020.2.6,Linux armv8l,60,,,,,,,,,,,
,,,,,,,,,,,,,,a,1,0.9656,space,0.2916,0,108,108,142,1,0_targ_4_dist_red/trial18.png,,,0,4,redHorizontal,a,80,31,female,2021-03-02_13h34.38.016,exp11,2020.2.6,Linux armv8l,60,,,,,,,,,,,
,,,,,,,,,,,,,,a,1,0.875,space,0.5004,0,109,109,131,1,0_targ_4_dist_red/trial7.png,,,0,4,redHorizontal,a,80,31,female,2021-03-02_13h34.38.016,exp11,2020.2.6,Linux armv8l,60,,,,,,,,,,,
,,,,,,,,,,,,,,p,1,0.8159,space,0.2521,0,110,110,38,1,3_dist_red/trial14.png,,,1,3,redHorizontal,p,80,31,female,2021-03-02_13h34.38.016,exp11,2020.2.6,Linux armv8l,60,,,,,,,,,,,
,,,,,,,,,,,,,,p,1,1.1671,space,0.2381,0,111,111,94,1,15_dist_red/trial20.png,,,1,15,redHorizontal,p,80,31,female,2021-03-02_13h34.38.016,exp11,2020.2.6,Linux armv8l,60,,,,,,,,,,,
,,,,,,,,,,,,,,p,1,0.9323,space,0.1842,0,112,112,92,1,15_dist_red/trial18.png,,,1,15,redHorizontal,p,80,31,female,2021-03-02_13h34.38.016,exp11,2020.2.6,Linux armv8l,60,,,,,,,,,,,
,,,,,,,,,,,,,,p,1,0.812,space,0.1776,0,113,113,59,1,9_dist_red/trial10.png,,,1,9,redHorizontal,p,80,31,female,2021-03-02_13h34.38.016,exp11,2020.2.6,Linux armv8l,60,,,,,,,,,,,
,,,,,,,,,,,,,,a,1,1.0385,space,0.2405,0,114,114,165,1,0_targ_10_dist_red/trial16.png,,,0,10,redHorizontal,a,80,31,female,2021-03-02_13h34.38.016,exp11,2020.2.6,Linux armv8l,60,,,,,,,,,,,
,,,,,,,,,,,,,,p,1,0.706,space,0.1302,0,115,115,36,1,3_dist_red/trial12.png,,,1,3,redHorizontal,p,80,31,female,2021-03-02_13h34.38.016,exp11,2020.2.6,Linux armv8l,60,,,,,,,,,,,
,,,,,,,,,,,,,,a,1,1.6299,space,0.1998,0,116,116,168,1,0_targ_10_dist_red/trial19.png,,,0,10,redHorizontal,a,80,31,female,2021-03-02_13h34.38.016,exp11,2020.2.6,Linux armv8l,60,,,,,,,,,,,
,,,,,,,,,,,,,,a,1,0.749,space,0.1745,0,117,117,132,1,0_targ_4_dist_red/trial8.png,,,0,4,redHorizontal,a,80,31,female,2021-03-02_13h34.38.016,exp11,2020.2.6,Linux armv8l,60,,,,,,,,,,,
,,,,,,,,,,,,,,a,1,0.6682,space,0.2012,0,118,118,141,1,0_targ_4_dist_red/trial17.png,,,0,4,redHorizontal,a,80,31,female,2021-03-02_13h34.38.016,exp11,2020.2.6,Linux armv8l,60,,,,,,,,,,,
,,,,,,,,,,,,,,a,1,0.8889,space,0.2353,0,119,119,198,1,0_targ_16_dist_red/trial24.png,,,0,16,redHorizontal,a,80,31,female,2021-03-02_13h34.38.016,exp11,2020.2.6,Linux armv8l,60,,,,,,,,,,,
,,,,,,,,,,,,,,a,1,0.7415,space,0.1849,0,120,120,126,1,0_targ_4_dist_red/trial2.png,,,0,4,redHorizontal,a,80,31,female,2021-03-02_13h34.38.016,exp11,2020.2.6,Linux armv8l,60,,,,,,,,,,,
,,,,,,,,,,,,,,a,1,0.8054,space,0.1748,0,121,121,154,1,0_targ_10_dist_red/trial5.png,,,0,10,redHorizontal,a,80,31,female,2021-03-02_13h34.38.016,exp11,2020.2.6,Linux armv8l,60,,,,,,,,,,,
,,,,,,,,,,,,,,a,1,0.6491,space,0.2277,0,122,122,138,1,0_targ_4_dist_red/trial14.png,,,0,4,redHorizontal,a,80,31,female,2021-03-02_13h34.38.016,exp11,2020.2.6,Linux armv8l,60,,,,,,,,,,,
,,,,,,,,,,,,,,a,0,1.066,space,0.4935,0,123,123,97,1,15_dist_red/trial23.png,,,1,15,redHorizontal,p,80,31,female,2021-03-02_13h34.38.016,exp11,2020.2.6,Linux armv8l,60,,,,,,,,,,,
,,,,,,,,,,,,,,p,1,0.9127,space,1.1657,0,124,124,51,1,9_dist_red/trial2.png,,,1,9,redHorizontal,p,80,31,female,2021-03-02_13h34.38.016,exp11,2020.2.6,Linux armv8l,60,,,,,,,,,,,
,,,,,,,,,,,,,,a,1,0.9633,space,0.267,0,125,125,159,1,0_targ_10_dist_red/trial10.png,,,0,10,redHorizontal,a,80,31,female,2021-03-02_13h34.38.016,exp11,2020.2.6,Linux armv8l,60,,,,,,,,,,,
,,,,,,,,,,,,,,p,1,0.8616,space,1.2542,0,126,126,21,1,0_dist_red/trial22.png,,,1,0,redHorizontal,p,80,31,female,2021-03-02_13h34.38.016,exp11,2020.2.6,Linux armv8l,60,,,,,,,,,,,
,,,,,,,,,,,,,,p,1,1.1193,space,0.6425,0,127,127,78,1,15_dist_red/trial4.png,,,1,15,redHorizontal,p,80,31,female,2021-03-02_13h34.38.016,exp11,2020.2.6,Linux armv8l,60,,,,,,,,,,,
,,,,,,,,,,,,,,p,1,0.7445,space,0.5377,0,128,128,85,1,15_dist_red/trial11.png,,,1,15,redHorizontal,p,80,31,female,2021-03-02_13h34.38.016,exp11,2020.2.6,Linux armv8l,60,,,,,,,,,,,
,,,,,,,,,,,,,,p,1,0.7064,space,0.604,0,129,129,95,1,15_dist_red/trial21.png,,,1,15,redHorizontal,p,80,31,female,2021-03-02_13h34.38.016,exp11,2020.2.6,Linux armv8l,60,,,,,,,,,,,
,,,,,,,,,,,,,,p,1,0.7517,space,0.5908,0,130,130,41,1,3_dist_red/trial17.png,,,1,3,redHorizontal,p,80,31,female,2021-03-02_13h34.38.016,exp11,2020.2.6,Linux armv8l,60,,,,,,,,,,,
,,,,,,,,,,,,,,p,1,0.707,space,0.5659,0,131,131,76,1,15_dist_red/trial2.png,,,1,15,redHorizontal,p,80,31,female,2021-03-02_13h34.38.016,exp11,2020.2.6,Linux armv8l,60,,,,,,,,,,,
,,,,,,,,,,,,,,a,1,0.8815,space,0.4118,0,132,132,136,1,0_targ_4_dist_red/trial12.png,,,0,4,redHorizontal,a,80,31,female,2021-03-02_13h34.38.016,exp11,2020.2.6,Linux armv8l,60,,,,,,,,,,,
,,,,,,,,,,,,,,p,1,0.9049,space,0.528,0,133,133,82,1,15_dist_red/trial8.png,,,1,15,redHorizontal,p,80,31,female,2021-03-02_13h34.38.016,exp11,2020.2.6,Linux armv8l,60,,,,,,,,,,,
,,,,,,,,,,,,,,a,1,0.8993,space,1.6841,0,134,134,109,1,0_targ_1_dist_red/trial10.png,,,0,1,redHorizontal,a,80,31,female,2021-03-02_13h34.38.016,exp11,2020.2.6,Linux armv8l,60,,,,,,,,,,,
,,,,,,,,,,,,,,p,1,0.6821,space,0.2162,0,135,135,30,1,3_dist_red/trial6.png,,,1,3,redHorizontal,p,80,31,female,2021-03-02_13h34.38.016,exp11,2020.2.6,Linux armv8l,60,,,,,,,,,,,
,,,,,,,,,,,,,,p,1,0.5057,space,0.2474,0,136,136,15,1,0_dist_red/trial16.png,,,1,0,redHorizontal,p,80,31,female,2021-03-02_13h34.38.016,exp11,2020.2.6,Linux armv8l,60,,,,,,,,,,,
,,,,,,,,,,,,,,a,1,0.8695,space,0.302,0,137,137,116,1,0_targ_1_dist_red/trial17.png,,,0,1,redHorizontal,a,80,31,female,2021-03-02_13h34.38.016,exp11,2020.2.6,Linux armv8l,60,,,,,,,,,,,
,,,,,,,,,,,,,,a,1,1.2103,space,0.2146,0,138,138,161,1,0_targ_10_dist_red/trial12.png,,,0,10,redHorizontal,a,80,31,female,2021-03-02_13h34.38.016,exp11,2020.2.6,Linux armv8l,60,,,,,,,,,,,
,,,,,,,,,,,,,,p,1,0.8909,space,0.2755,0,139,139,70,1,9_dist_red/trial21.png,,,1,9,redHorizontal,p,80,31,female,2021-03-02_13h34.38.016,exp11,2020.2.6,Linux armv8l,60,,,,,,,,,,,
,,,,,,,,,,,,,,p,1,0.8125,space,0.1468,0,140,140,81,1,15_dist_red/trial7.png,,,1,15,redHorizontal,p,80,31,female,2021-03-02_13h34.38.016,exp11,2020.2.6,Linux armv8l,60,,,,,,,,,,,
,,,,,,,,,,,,,,p,1,0.8073,space,0.1456,0,141,141,93,1,15_dist_red/trial19.png,,,1,15,redHorizontal,p,80,31,female,2021-03-02_13h34.38.016,exp11,2020.2.6,Linux armv8l,60,,,,,,,,,,,
,,,,,,,,,,,,,,p,1,0.9929,space,0.0857,0,142,142,63,1,9_dist_red/trial14.png,,,1,9,redHorizontal,p,80,31,female,2021-03-02_13h34.38.016,exp11,2020.2.6,Linux armv8l,60,,,,,,,,,,,
,,,,,,,,,,,,,,a,1,1.0337,space,0.3557,0,143,143,184,1,0_targ_16_dist_red/trial10.png,,,0,16,redHorizontal,a,80,31,female,2021-03-02_13h34.38.016,exp11,2020.2.6,Linux armv8l,60,,,,,,,,,,,
,,,,,,,,,,,,,,p,1,0.8045,space,0.2016,0,144,144,83,1,15_dist_red/trial9.png,,,1,15,redHorizontal,p,80,31,female,2021-03-02_13h34.38.016,exp11,2020.2.6,Linux armv8l,60,,,,,,,,,,,
,,,,,,,,,,,,,,a,1,0.9508,space,0.2473,0,145,145,179,1,0_targ_16_dist_red/trial5.png,,,0,16,redHorizontal,a,80,31,female,2021-03-02_13h34.38.016,exp11,2020.2.6,Linux armv8l,60,,,,,,,,,,,
,,,,,,,,,,,,,,p,1,1.3649,space,0.1778,0,146,146,89,1,15_dist_red/trial15.png,,,1,15,redHorizontal,p,80,31,female,2021-03-02_13h34.38.016,exp11,2020.2.6,Linux armv8l,60,,,,,,,,,,,
,,,,,,,,,,,,,,p,1,0.7404,space,0.1545,0,147,147,35,1,3_dist_red/trial11.png,,,1,3,redHorizontal,p,80,31,female,2021-03-02_13h34.38.016,exp11,2020.2.6,Linux armv8l,60,,,,,,,,,,,
,,,,,,,,,,,,,,p,1,1.2379,space,0.1317,0,148,148,99,1,15_dist_red/trial25.png,,,1,15,redHorizontal,p,80,31,female,2021-03-02_13h34.38.016,exp11,2020.2.6,Linux armv8l,60,,,,,,,,,,,
,,,,,,,,,,,,,,p,1,0.6675,space,0.125,0,149,149,44,1,3_dist_red/trial20.png,,,1,3,redHorizontal,p,80,31,female,2021-03-02_13h34.38.016,exp11,2020.2.6,Linux armv8l,60,,,,,,,,,,,
,,,,,,,,,,,,,,a,1,0.8688,space,0.2199,0,150,150,123,1,0_targ_1_dist_red/trial24.png,,,0,1,redHorizontal,a,80,31,female,2021-03-02_13h34.38.016,exp11,2020.2.6,Linux armv8l,60,,,,,,,,,,,
,,,,,,,,,,,,,,a,1,0.9433,space,0.2682,0,151,151,122,1,0_targ_1_dist_red/trial23.png,,,0,1,redHorizontal,a,80,31,female,2021-03-02_13h34.38.016,exp11,2020.2.6,Linux armv8l,60,,,,,,,,,,,
,,,,,,,,,,,,,,p,1,1.0978,space,0.1602,0,152,152,11,1,0_dist_red/trial12.png,,,1,0,redHorizontal,p,80,31,female,2021-03-02_13h34.38.016,exp11,2020.2.6,Linux armv8l,60,,,,,,,,,,,
,,,,,,,,,,,,,,p,1,1.0559,space,0.2506,0,153,153,1,1,0_dist_red/trial2.png,,,1,0,redHorizontal,p,80,31,female,2021-03-02_13h34.38.016,exp11,2020.2.6,Linux armv8l,60,,,,,,,,,,,
,,,,,,,,,,,,,,p,1,0.5244,space,0.2302,0,154,154,3,1,0_dist_red/trial4.png,,,1,0,redHorizontal,p,80,31,female,2021-03-02_13h34.38.016,exp11,2020.2.6,Linux armv8l,60,,,,,,,,,,,
,,,,,,,,,,,,,,p,1,0.6788,space,0.2421,0,155,155,50,1,9_dist_red/trial1.png,,,1,9,redHorizontal,p,80,31,female,2021-03-02_13h34.38.016,exp11,2020.2.6,Linux armv8l,60,,,,,,,,,,,
,,,,,,,,,,,,,,a,1,1.0053,space,0.258,0,156,156,133,1,0_targ_4_dist_red/trial9.png,,,0,4,redHorizontal,a,80,31,female,2021-03-02_13h34.38.016,exp11,2020.2.6,Linux armv8l,60,,,,,,,,,,,
,,,,,,,,,,,,,,a,1,1.6027,space,0.1857,0,157,157,121,1,0_targ_1_dist_red/trial22.png,,,0,1,redHorizontal,a,80,31,female,2021-03-02_13h34.38.016,exp11,2020.2.6,Linux armv8l,60,,,,,,,,,,,
,,,,,,,,,,,,,,a,1,0.976,space,0.197,0,158,158,106,1,0_targ_1_dist_red/trial7.png,,,0,1,redHorizontal,a,80,31,female,2021-03-02_13h34.38.016,exp11,2020.2.6,Linux armv8l,60,,,,,,,,,,,
,,,,,,,,,,,,,,a,1,1.0624,space,0.255,0,159,159,196,1,0_targ_16_dist_red/trial22.png,,,0,16,redHorizontal,a,80,31,female,2021-03-02_13h34.38.016,exp11,2020.2.6,Linux armv8l,60,,,,,,,,,,,
,,,,,,,,,,,,,,a,1,0.9249,space,0.1768,0,160,160,178,1,0_targ_16_dist_red/trial4.png,,,0,16,redHorizontal,a,80,31,female,2021-03-02_13h34.38.016,exp11,2020.2.6,Linux armv8l,60,,,,,,,,,,,
,,,,,,,,,,,,,,p,1,1.3018,space,0.2399,0,161,161,34,1,3_dist_red/trial10.png,,,1,3,redHorizontal,p,80,31,female,2021-03-02_13h34.38.016,exp11,2020.2.6,Linux armv8l,60,,,,,,,,,,,
,,,,,,,,,,,,,,p,1,0.8584,space,0.225,0,162,162,32,1,3_dist_red/trial8.png,,,1,3,redHorizontal,p,80,31,female,2021-03-02_13h34.38.016,exp11,2020.2.6,Linux armv8l,60,,,,,,,,,,,
,,,,,,,,,,,,,,a,1,0.9265,space,0.5356,0,163,163,187,1,0_targ_16_dist_red/trial13.png,,,0,16,redHorizontal,a,80,31,female,2021-03-02_13h34.38.016,exp11,2020.2.6,Linux armv8l,60,,,,,,,,,,,
,,,,,,,,,,,,,,p,1,1.3061,space,0.6997,0,164,164,88,1,15_dist_red/trial14.png,,,1,15,redHorizontal,p,80,31,female,2021-03-02_13h34.38.016,exp11,2020.2.6,Linux armv8l,60,,,,,,,,,,,
,,,,,,,,,,,,,,a,1,1.2262,space,0.842,0,165,165,172,1,0_targ_10_dist_red/trial23.png,,,0,10,redHorizontal,a,80,31,female,2021-03-02_13h34.38.016,exp11,2020.2.6,Linux armv8l,60,,,,,,,,,,,
,,,,,,,,,,,,,,p,1,0.7702,space,0.3916,0,166,166,33,1,3_dist_red/trial9.png,,,1,3,redHorizontal,p,80,31,female,2021-03-02_13h34.38.016,exp11,2020.2.6,Linux armv8l,60,,,,,,,,,,,
,,,,,,,,,,,,,,p,1,1.3019,space,0.408,0,167,167,64,1,9_dist_red/trial15.png,,,1,9,redHorizontal,p,80,31,female,2021-03-02_13h34.38.016,exp11,2020.2.6,Linux armv8l,60,,,,,,,,,,,
,,,,,,,,,,,,,,p,1,0.801,space,0.3364,0,168,168,22,1,0_dist_red/trial23.png,,,1,0,redHorizontal,p,80,31,female,2021-03-02_13h34.38.016,exp11,2020.2.6,Linux armv8l,60,,,,,,,,,,,
,,,,,,,,,,,,,,p,1,0.8231,space,0.3267,0,169,169,54,1,9_dist_red/trial5.png,,,1,9,redHorizontal,p,80,31,female,2021-03-02_13h34.38.016,exp11,2020.2.6,Linux armv8l,60,,,,,,,,,,,
,,,,,,,,,,,,,,p,1,0.4738,space,0.3646,0,170,170,19,1,0_dist_red/trial20.png,,,1,0,redHorizontal,p,80,31,female,2021-03-02_13h34.38.016,exp11,2020.2.6,Linux armv8l,60,,,,,,,,,,,
,,,,,,,,,,,,,,a,1,1.0122,space,1.0779,0,171,171,171,1,0_targ_10_dist_red/trial22.png,,,0,10,redHorizontal,a,80,31,female,2021-03-02_13h34.38.016,exp11,2020.2.6,Linux armv8l,60,,,,,,,,,,,
,,,,,,,,,,,,,,a,1,1.3465,space,0.396,0,172,172,158,1,0_targ_10_dist_red/trial9.png,,,0,10,redHorizontal,a,80,31,female,2021-03-02_13h34.38.016,exp11,2020.2.6,Linux armv8l,60,,,,,,,,,,,
,,,,,,,,,,,,,,p,1,1.0477,space,2.263,0,173,173,80,1,15_dist_red/trial6.png,,,1,15,redHorizontal,p,80,31,female,2021-03-02_13h34.38.016,exp11,2020.2.6,Linux armv8l,60,,,,,,,,,,,
,,,,,,,,,,,,,,a,1,1.61,space,0.3607,0,174,174,144,1,0_targ_4_dist_red/trial20.png,,,0,4,redHorizontal,a,80,31,female,2021-03-02_13h34.38.016,exp11,2020.2.6,Linux armv8l,60,,,,,,,,,,,
,,,,,,,,,,,,,,p,1,1.0434,space,0.1511,0,175,175,13,1,0_dist_red/trial14.png,,,1,0,redHorizontal,p,80,31,female,2021-03-02_13h34.38.016,exp11,2020.2.6,Linux armv8l,60,,,,,,,,,,,
,,,,,,,,,,,,,,a,1,1.2365,space,0.2035,0,176,176,153,1,0_targ_10_dist_red/trial4.png,,,0,10,redHorizontal,a,80,31,female,2021-03-02_13h34.38.016,exp11,2020.2.6,Linux armv8l,60,,,,,,,,,,,
,,,,,,,,,,,,,,a,1,0.9495,space,0.2531,0,177,177,105,1,0_targ_1_dist_red/trial6.png,,,0,1,redHorizontal,a,80,31,female,2021-03-02_13h34.38.016,exp11,2020.2.6,Linux armv8l,60,,,,,,,,,,,
,,,,,,,,,,,,,,a,1,0.9028,space,0.187,0,178,178,173,1,0_targ_10_dist_red/trial24.png,,,0,10,redHorizontal,a,80,31,female,2021-03-02_13h34.38.016,exp11,2020.2.6,Linux armv8l,60,,,,,,,,,,,
,,,,,,,,,,,,,,p,1,1.0488,space,0.112,0,179,179,67,1,9_dist_red/trial18.png,,,1,9,redHorizontal,p,80,31,female,2021-03-02_13h34.38.016,exp11,2020.2.6,Linux armv8l,60,,,,,,,,,,,
,,,,,,,,,,,,,,a,1,0.8795,space,0.1504,0,180,180,134,1,0_targ_4_dist_red/trial10.png,,,0,4,redHorizontal,a,80,31,female,2021-03-02_13h34.38.016,exp11,2020.2.6,Linux armv8l,60,,,,,,,,,,,
,,,,,,,,,,,,,,p,1,0.7981,space,0.1455,0,181,181,87,1,15_dist_red/trial13.png,,,1,15,redHorizontal,p,80,31,female,2021-03-02_13h34.38.016,exp11,2020.2.6,Linux armv8l,60,,,,,,,,,,,
,,,,,,,,,,,,,,a,1,0.8718,space,0.172,0,182,182,114,1,0_targ_1_dist_red/trial15.png,,,0,1,redHorizontal,a,80,31,female,2021-03-02_13h34.38.016,exp11,2020.2.6,Linux armv8l,60,,,,,,,,,,,
,,,,,,,,,,,,,,a,1,0.9436,space,0.1846,0,183,183,152,1,0_targ_10_dist_red/trial3.png,,,0,10,redHorizontal,a,80,31,female,2021-03-02_13h34.38.016,exp11,2020.2.6,Linux armv8l,60,,,,,,,,,,,
,,,,,,,,,,,,,,p,1,0.8744,space,0.1512,0,184,184,61,1,9_dist_red/trial12.png,,,1,9,redHorizontal,p,80,31,female,2021-03-02_13h34.38.016,exp11,2020.2.6,Linux armv8l,60,,,,,,,,,,,
,,,,,,,,,,,,,,a,1,0.9009,space,0.1935,0,185,185,157,1,0_targ_10_dist_red/trial8.png,,,0,10,redHorizontal,a,80,31,female,2021-03-02_13h34.38.016,exp11,2020.2.6,Linux armv8l,60,,,,,,,,,,,
,,,,,,,,,,,,,,p,1,0.8622,space,0.129,0,186,186,0,1,0_dist_red/trial1.png,,,1,0,redHorizontal,p,80,31,female,2021-03-02_13h34.38.016,exp11,2020.2.6,Linux armv8l,60,,,,,,,,,,,
,,,,,,,,,,,,,,a,1,0.9878,space,0.2124,0,187,187,195,1,0_targ_16_dist_red/trial21.png,,,0,16,redHorizontal,a,80,31,female,2021-03-02_13h34.38.016,exp11,2020.2.6,Linux armv8l,60,,,,,,,,,,,
,,,,,,,,,,,,,,p,1,0.9815,space,0.1358,0,188,188,31,1,3_dist_red/trial7.png,,,1,3,redHorizontal,p,80,31,female,2021-03-02_13h34.38.016,exp11,2020.2.6,Linux armv8l,60,,,,,,,,,,,
,,,,,,,,,,,,,,a,1,0.855,space,0.1866,0,189,189,148,1,0_targ_4_dist_red/trial24.png,,,0,4,redHorizontal,a,80,31,female,2021-03-02_13h34.38.016,exp11,2020.2.6,Linux armv8l,60,,,,,,,,,,,
,,,,,,,,,,,,,,p,1,1.0117,space,0.1146,0,190,190,71,1,9_dist_red/trial22.png,,,1,9,redHorizontal,p,80,31,female,2021-03-02_13h34.38.016,exp11,2020.2.6,Linux armv8l,60,,,,,,,,,,,
,,,,,,,,,,,,,,p,1,0.9786,space,1.8825,0,191,191,12,1,0_dist_red/trial13.png,,,1,0,redHorizontal,p,80,31,female,2021-03-02_13h34.38.016,exp11,2020.2.6,Linux armv8l,60,,,,,,,,,,,
,,,,,,,,,,,,,,p,1,0.7466,space,0.3499,0,192,192,26,1,3_dist_red/trial2.png,,,1,3,redHorizontal,p,80,31,female,2021-03-02_13h34.38.016,exp11,2020.2.6,Linux armv8l,60,,,,,,,,,,,
,,,,,,,,,,,,,,p,1,0.6151,space,0.2597,0,193,193,43,1,3_dist_red/trial19.png,,,1,3,redHorizontal,p,80,31,female,2021-03-02_13h34.38.016,exp11,2020.2.6,Linux armv8l,60,,,,,,,,,,,
,,,,,,,,,,,,,,a,1,0.9144,space,0.3539,0,194,194,111,1,0_targ_1_dist_red/trial12.png,,,0,1,redHorizontal,a,80,31,female,2021-03-02_13h34.38.016,exp11,2020.2.6,Linux armv8l,60,,,,,,,,,,,
,,,,,,,,,,,,,,a,1,0.9035,space,0.5247,0,195,195,104,1,0_targ_1_dist_red/trial5.png,,,0,1,redHorizontal,a,80,31,female,2021-03-02_13h34.38.016,exp11,2020.2.6,Linux armv8l,60,,,,,,,,,,,
,,,,,,,,,,,,,,p,1,0.8028,space,0.2753,0,196,196,2,1,0_dist_red/trial3.png,,,1,0,redHorizontal,p,80,31,female,2021-03-02_13h34.38.016,exp11,2020.2.6,Linux armv8l,60,,,,,,,,,,,
,,,,,,,,,,,,,,a,1,1.15,space,0.1881,0,197,197,137,1,0_targ_4_dist_red/trial13.png,,,0,4,redHorizontal,a,80,31,female,2021-03-02_13h34.38.016,exp11,2020.2.6,Linux armv8l,60,,,,,,,,,,,
,,,,,,,,,,,,,,p,1,1.0116,space,0.1774,0,198,198,23,1,0_dist_red/trial24.png,,,1,0,redHorizontal,p,80,31,female,2021-03-02_13h34.38.016,exp11,2020.2.6,Linux armv8l,60,,,,,,,,,,,
,,,,,,,,,,,,,,a,1,1.0082,space,0.1751,0,199,199,128,1,0_targ_4_dist_red/trial4.png,,,0,4,redHorizontal,a,80,31,female,2021-03-02_13h34.38.016,exp11,2020.2.6,Linux armv8l,60,,,,,,,,,,,
,,,,,,,,,,,,,,,,,,,,,,,,,,,,,,,80,31,female,2021-03-02_13h34.38.016,exp11,2020.2.6,Linux armv8l,60,0,0,0,1,1,conRed.xlsx,red horizontal,Look for red horizontal bar (target) and indicate if it is present or absent in the array. If red horizontal target is present press 'p' and if absent press 'a'. Press SPACE to start.,,,
,,,,,,,,,,space,27.519,space,5.1735,a,1,1.1684,space,1.1089,0,0,0,119,1,0_targ_1_dist_green/trial20.png,,,0,1,greenverival,a,80,31,female,2021-03-02_13h34.38.016,exp11,2020.2.6,Linux armv8l,60,,,,,,,,,,,
,,,,,,,,,,,,,,a,1,2.2372,space,0.4233,0,1,1,198,1,0_targ_16_dist_green/trial24.png,,,0,16,greenverival,a,80,31,female,2021-03-02_13h34.38.016,exp11,2020.2.6,Linux armv8l,60,,,,,,,,,,,
,,,,,,,,,,,,,,a,1,0.8691,space,0.362,0,2,2,165,1,0_targ_10_dist_green/trial16.png,,,0,10,greenverival,a,80,31,female,2021-03-02_13h34.38.016,exp11,2020.2.6,Linux armv8l,60,,,,,,,,,,,
,,,,,,,,,,,,,,a,1,0.7222,space,0.3823,0,3,3,110,1,0_targ_1_dist_green/trial11.png,,,0,1,greenverival,a,80,31,female,2021-03-02_13h34.38.016,exp11,2020.2.6,Linux armv8l,60,,,,,,,,,,,
,,,,,,,,,,,,,,a,1,0.7223,space,0.2749,0,4,4,118,1,0_targ_1_dist_green/trial19.png,,,0,1,greenverival,a,80,31,female,2021-03-02_13h34.38.016,exp11,2020.2.6,Linux armv8l,60,,,,,,,,,,,
,,,,,,,,,,,,,,a,1,0.6501,space,0.238,0,5,5,112,1,0_targ_1_dist_green/trial13.png,,,0,1,greenverival,a,80,31,female,2021-03-02_13h34.38.016,exp11,2020.2.6,Linux armv8l,60,,,,,,,,,,,
,,,,,,,,,,,,,,a,1,1.1236,space,0.1886,0,6,6,183,1,0_targ_16_dist_green/trial9.png,,,0,16,greenverival,a,80,31,female,2021-03-02_13h34.38.016,exp11,2020.2.6,Linux armv8l,60,,,,,,,,,,,
,,,,,,,,,,,,,,a,1,0.9011,space,0.1884,0,7,7,180,1,0_targ_16_dist_green/trial6.png,,,0,16,greenverival,a,80,31,female,2021-03-02_13h34.38.016,exp11,2020.2.6,Linux armv8l,60,,,,,,,,,,,
,,,,,,,,,,,,,,p,1,0.9957,space,0.2337,0,8,8,84,1,15_dist_green/trial10.png,,,1,15,greenverival,p,80,31,female,2021-03-02_13h34.38.016,exp11,2020.2.6,Linux armv8l,60,,,,,,,,,,,
,,,,,,,,,,,,,,p,1,1.1191,space,0.2202,0,9,9,60,1,9_dist_green/trial11.png,,,1,9,greenverival,p,80,31,female,2021-03-02_13h34.38.016,exp11,2020.2.6,Linux armv8l,60,,,,,,,,,,,
,,,,,,,,,,,,,,p,1,0.8941,space,0.119,0,10,10,27,1,3_dist_green/trial3.png,,,1,3,greenverival,p,80,31,female,2021-03-02_13h34.38.016,exp11,2020.2.6,Linux armv8l,60,,,,,,,,,,,
,,,,,,,,,,,,,,p,1,1.1483,space,0.0938,0,11,11,16,1,0_dist_green/trial17.png,,,1,0,greenverival,p,80,31,female,2021-03-02_13h34.38.016,exp11,2020.2.6,Linux armv8l,60,,,,,,,,,,,
,,,,,,,,,,,,,,p,1,1.1239,space,0.1096,0,12,12,80,1,15_dist_green/trial6.png,,,1,15,greenverival,p,80,31,female,2021-03-02_13h34.38.016,exp11,2020.2.6,Linux armv8l,60,,,,,,,,,,,
,,,,,,,,,,,,,,p,1,1.0139,space,0.1198,0,13,13,93,1,15_dist_green/trial19.png,,,1,15,greenverival,p,80,31,female,2021-03-02_13h34.38.016,exp11,2020.2.6,Linux armv8l,60,,,,,,,,,,,
,,,,,,,,,,,,,,p,1,1.1593,space,0.086,0,14,14,1,1,0_dist_green/trial2.png,,,1,0,greenverival,p,80,31,female,2021-03-02_13h34.38.016,exp11,2020.2.6,Linux armv8l,60,,,,,,,,,,,
,,,,,,,,,,,,,,a,1,1.1131,space,0.0882,0,15,15,196,1,0_targ_16_dist_green/trial22.png,,,0,16,greenverival,a,80,31,female,2021-03-02_13h34.38.016,exp11,2020.2.6,Linux armv8l,60,,,,,,,,,,,
,,,,,,,,,,,,,,a,1,0.9558,space,0.115,0,16,16,115,1,0_targ_1_dist_green/trial6.png,,,0,1,greenverival,a,80,31,female,2021-03-02_13h34.38.016,exp11,2020.2.6,Linux armv8l,60,,,,,,,,,,,
,,,,,,,,,,,,,,a,1,0.8644,space,0.1198,0,17,17,121,1,0_targ_1_dist_green/trial22.png,,,0,1,greenverival,a,80,31,female,2021-03-02_13h34.38.016,exp11,2020.2.6,Linux armv8l,60,,,,,,,,,,,
,,,,,,,,,,,,,,p,1,0.9417,space,0.1434,0,18,18,26,1,3_dist_green/trial2.png,,,1,3,greenverival,p,80,31,female,2021-03-02_13h34.38.016,exp11,2020.2.6,Linux armv8l,60,,,,,,,,,,,
,,,,,,,,,,,,,,p,1,1.1952,space,0.1181,0,19,19,36,1,3_dist_green/trial12.png,,,1,3,greenverival,p,80,31,female,2021-03-02_13h34.38.016,exp11,2020.2.6,Linux armv8l,60,,,,,,,,,,,
,,,,,,,,,,,,,,a,1,1.1624,space,0.1168,0,20,20,153,1,0_targ_10_dist_green/trial4.png,,,0,10,greenverival,a,80,31,female,2021-03-02_13h34.38.016,exp11,2020.2.6,Linux armv8l,60,,,,,,,,,,,
,,,,,,,,,,,,,,p,1,0.9658,space,0.133,0,21,21,10,1,0_dist_green/trial11.png,,,1,0,greenverival,p,80,31,female,2021-03-02_13h34.38.016,exp11,2020.2.6,Linux armv8l,60,,,,,,,,,,,
,,,,,,,,,,,,,,a,1,0.8432,space,0.0946,0,22,22,106,1,0_targ_1_dist_green/trial7.png,,,0,1,greenverival,a,80,31,female,2021-03-02_13h34.38.016,exp11,2020.2.6,Linux armv8l,60,,,,,,,,,,,
,,,,,,,,,,,,,,p,1,0.8672,space,0.1018,0,23,23,18,1,0_dist_green/trial19.png,,,1,0,greenverival,p,80,31,female,2021-03-02_13h34.38.016,exp11,2020.2.6,Linux armv8l,60,,,,,,,,,,,
,,,,,,,,,,,,,,a,1,1.7475,space,1.4271,0,24,24,111,1,0_targ_1_dist_green/trial12.png,,,0,1,greenverival,a,80,31,female,2021-03-02_13h34.38.016,exp11,2020.2.6,Linux armv8l,60,,,,,,,,,,,
,,,,,,,,,,,,,,p,1,1.0833,space,0.1079,0,25,25,78,1,15_dist_green/trial4.png,,,1,15,greenverival,p,80,31,female,2021-03-02_13h34.38.016,exp11,2020.2.6,Linux armv8l,60,,,,,,,,,,,
,,,,,,,,,,,,,,a,1,0.8964,space,0.125,0,26,26,130,1,0_targ_4_dist_green/trial6.png,,,0,4,greenverival,a,80,31,female,2021-03-02_13h34.38.016,exp11,2020.2.6,Linux armv8l,60,,,,,,,,,,,
,,,,,,,,,,,,,,p,1,0.9532,space,0.1455,0,27,27,66,1,9_dist_green/trial17.png,,,1,9,greenverival,p,80,31,female,2021-03-02_13h34.38.016,exp11,2020.2.6,Linux armv8l,60,,,,,,,,,,,
,,,,,,,,,,,,,,p,1,0.8431,space,0.1374,0,28,28,29,1,3_dist_green/trial5.png,,,1,3,greenverival,p,80,31,female,2021-03-02_13h34.38.016,exp11,2020.2.6,Linux armv8l,60,,,,,,,,,,,
,,,,,,,,,,,,,,p,1,0.8084,space,0.1402,0,29,29,17,1,0_dist_green/trial18.png,,,1,0,greenverival,p,80,31,female,2021-03-02_13h34.38.016,exp11,2020.2.6,Linux armv8l,60,,,,,,,,,,,
,,,,,,,,,,,,,,a,1,1.415,space,0.1756,0,30,30,168,1,0_targ_10_dist_green/trial19.png,,,0,10,greenverival,a,80,31,female,2021-03-02_13h34.38.016,exp11,2020.2.6,Linux armv8l,60,,,,,,,,,,,
,,,,,,,,,,,,,,a,1,1.0279,space,0.134,0,31,31,164,1,0_targ_10_dist_green/trial15.png,,,0,10,greenverival,a,80,31,female,2021-03-02_13h34.38.016,exp11,2020.2.6,Linux armv8l,60,,,,,,,,,,,
,,,,,,,,,,,,,,a,1,1.041,space,0.1563,0,32,32,122,1,0_targ_1_dist_green/trial23.png,,,0,1,greenverival,a,80,31,female,2021-03-02_13h34.38.016,exp11,2020.2.6,Linux armv8l,60,,,,,,,,,,,
,,,,,,,,,,,,,,p,1,1.0773,space,0.1223,0,33,33,77,1,15_dist_green/trial3.png,,,1,15,greenverival,p,80,31,female,2021-03-02_13h34.38.016,exp11,2020.2.6,Linux armv8l,60,,,,,,,,,,,
,,,,,,,,,,,,,,p,1,0.9945,space,0.0787,0,34,34,88,1,15_dist_green/trial14.png,,,1,15,greenverival,p,80,31,female,2021-03-02_13h34.38.016,exp11,2020.2.6,Linux armv8l,60,,,,,,,,,,,
,,,,,,,,,,,,,,a,1,0.9423,space,0.1061,0,35,35,143,1,0_targ_4_dist_green/trial19.png,,,0,4,greenverival,a,80,31,female,2021-03-02_13h34.38.016,exp11,2020.2.6,Linux armv8l,60,,,,,,,,,,,
,,,,,,,,,,,,,,p,1,1.0593,space,0.0745,0,36,36,3,1,0_dist_green/trial4.png,,,1,0,greenverival,p,80,31,female,2021-03-02_13h34.38.016,exp11,2020.2.6,Linux armv8l,60,,,,,,,,,,,
,,,,,,,,,,,,,,a,1,0.9276,space,0.1018,0,37,37,188,1,0_targ_16_dist_green/trial14.png,,,0,16,greenverival,a,80,31,female,2021-03-02_13h34.38.016,exp11,2020.2.6,Linux armv8l,60,,,,,,,,,,,
,,,,,,,,,,,,,,a,1,1.0614,space,0.1279,0,38,38,161,1,0_targ_10_dist_green/trial12.png,,,0,10,greenverival,a,80,31,female,2021-03-02_13h34.38.016,exp11,2020.2.6,Linux armv8l,60,,,,,,,,,,,
,,,,,,,,,,,,,,a,1,0.9366,space,0.1124,0,39,39,158,1,0_targ_10_dist_green/trial9.png,,,0,10,greenverival,a,80,31,female,2021-03-02_13h34.38.016,exp11,2020.2.6,Linux armv8l,60,,,,,,,,,,,
,,,,,,,,,,,,,,p,1,0.8509,space,0.1773,0,40,40,5,1,0_dist_green/trial6.png,,,1,0,greenverival,p,80,31,female,2021-03-02_13h34.38.016,exp11,2020.2.6,Linux armv8l,60,,,,,,,,,,,
,,,,,,,,,,,,,,a,1,0.9456,space,0.1724,0,41,41,171,1,0_targ_10_dist_green/trial22.png,,,0,10,greenverival,a,80,31,female,2021-03-02_13h34.38.016,exp11,2020.2.6,Linux armv8l,60,,,,,,,,,,,
,,,,,,,,,,,,,,p,1,0.8648,space,0.11,0,42,42,59,1,9_dist_green/trial10.png,,,1,9,greenverival,p,80,31,female,2021-03-02_13h34.38.016,exp11,2020.2.6,Linux armv8l,60,,,,,,,,,,,
,,,,,,,,,,,,,,a,1,0.8572,space,0.1512,0,43,43,131,1,0_targ_4_dist_green/trial7.png,,,0,4,greenverival,a,80,31,female,2021-03-02_13h34.38.016,exp11,2020.2.6,Linux armv8l,60,,,,,,,,,,,
,,,,,,,,,,,,,,p,1,0.8624,space,0.1386,0,44,44,33,1,3_dist_green/trial9.png,,,1,3,greenverival,p,80,31,female,2021-03-02_13h34.38.016,exp11,2020.2.6,Linux armv8l,60,,,,,,,,,,,
,,,,,,,,,,,,,,p,1,0.8798,space,0.152,0,45,45,0,1,0_dist_green/trial1.png,,,1,0,greenverival,p,80,31,female,2021-03-02_13h34.38.016,exp11,2020.2.6,Linux armv8l,60,,,,,,,,,,,
,,,,,,,,,,,,,,a,1,0.8501,space,0.1568,0,46,46,147,1,0_targ_4_dist_green/trial23.png,,,0,4,greenverival,a,80,31,female,2021-03-02_13h34.38.016,exp11,2020.2.6,Linux armv8l,60,,,,,,,,,,,
,,,,,,,,,,,,,,a,1,1.1431,space,0.1348,0,47,47,157,1,0_targ_10_dist_green/trial8.png,,,0,10,greenverival,a,80,31,female,2021-03-02_13h34.38.016,exp11,2020.2.6,Linux armv8l,60,,,,,,,,,,,
,,,,,,,,,,,,,,a,1,1.4405,space,0.1092,0,48,48,152,1,0_targ_10_dist_green/trial3.png,,,0,10,greenverival,a,80,31,female,2021-03-02_13h34.38.016,exp11,2020.2.6,Linux armv8l,60,,,,,,,,,,,
,,,,,,,,,,,,,,p,1,1.4014,space,0.0991,0,49,49,81,1,15_dist_green/trial7.png,,,1,15,greenverival,p,80,31,female,2021-03-02_13h34.38.016,exp11,2020.2.6,Linux armv8l,60,,,,,,,,,,,
,,,,,,,,,,,,,,a,1,1.0924,space,0.1263,0,50,50,141,1,0_targ_4_dist_green/trial17.png,,,0,4,greenverival,a,80,31,female,2021-03-02_13h34.38.016,exp11,2020.2.6,Linux armv8l,60,,,,,,,,,,,
,,,,,,,,,,,,,,a,1,0.9387,space,0.1432,0,51,51,177,1,0_targ_16_dist_green/trial3.png,,,0,16,greenverival,a,80,31,female,2021-03-02_13h34.38.016,exp11,2020.2.6,Linux armv8l,60,,,,,,,,,,,
,,,,,,,,,,,,,,a,1,0.873,space,0.1649,0,52,52,129,1,0_targ_4_dist_green/trial5.png,,,0,4,greenverival,a,80,31,female,2021-03-02_13h34.38.016,exp11,2020.2.6,Linux armv8l,60,,,,,,,,,,,
,,,,,,,,,,,,,,a,1,0.6248,space,0.1889,0,53,53,160,1,0_targ_10_dist_green/trial11.png,,,0,10,greenverival,a,80,31,female,2021-03-02_13h34.38.016,exp11,2020.2.6,Linux armv8l,60,,,,,,,,,,,
,,,,,,,,,,,,,,p,1,0.8979,space,0.1714,0,54,54,4,1,0_dist_green/trial5.png,,,1,0,greenverival,p,80,31,female,2021-03-02_13h34.38.016,exp11,2020.2.6,Linux armv8l,60,,,,,,,,,,,
,,,,,,,,,,,,,,p,1,0.7726,space,0.1576,0,55,55,94,1,15_dist_green/trial20.png,,,1,15,greenverival,p,80,31,female,2021-03-02_13h34.38.016,exp11,2020.2.6,Linux armv8l,60,,,,,,,,,,,
,,,,,,,,,,,,,,p,1,0.8617,space,0.205,0,56,56,30,1,3_dist_green/trial6.png,,,1,3,greenverival,p,80,31,female,2021-03-02_13h34.38.016,exp11,2020.2.6,Linux armv8l,60,,,,,,,,,,,
,,,,,,,,,,,,,,p,1,0.6612,space,0.2019,0,57,57,21,1,0_dist_green/trial22.png,,,1,0,greenverival,p,80,31,female,2021-03-02_13h34.38.016,exp11,2020.2.6,Linux armv8l,60,,,,,,,,,,,
,,,,,,,,,,,,,,a,1,1.2844,space,0.1186,0,58,58,186,1,0_targ_16_dist_green/trial12.png,,,0,16,greenverival,a,80,31,female,2021-03-02_13h34.38.016,exp11,2020.2.6,Linux armv8l,60,,,,,,,,,,,
,,,,,,,,,,,,,,p,1,0.9145,space,0.1324,0,59,59,49,1,3_dist_green/trial25.png,,,1,3,greenverival,p,80,31,female,2021-03-02_13h34.38.016,exp11,2020.2.6,Linux armv8l,60,,,,,,,,,,,
,,,,,,,,,,,,,,a,1,1.0475,space,0.1179,0,60,60,108,1,0_targ_1_dist_green/trial9.png,,,0,1,greenverival,a,80,31,female,2021-03-02_13h34.38.016,exp11,2020.2.6,Linux armv8l,60,,,,,,,,,,,
,,,,,,,,,,,,,,a,1,0.7628,space,0.1451,0,61,61,127,1,0_targ_4_dist_green/trial3.png,,,0,4,greenverival,a,80,31,female,2021-03-02_13h34.38.016,exp11,2020.2.6,Linux armv8l,60,,,,,,,,,,,
,,,,,,,,,,,,,,a,1,0.5395,space,0.1325,0,62,62,104,1,0_targ_1_dist_green/trial5.png,,,0,1,greenverival,a,80,31,female,2021-03-02_13h34.38.016,exp11,2020.2.6,Linux armv8l,60,,,,,,,,,,,
,,,,,,,,,,,,,,p,1,0.8694,space,0.1063,0,63,63,55,1,9_dist_green/trial6.png,,,1,9,greenverival,p,80,31,female,2021-03-02_13h34.38.016,exp11,2020.2.6,Linux armv8l,60,,,,,,,,,,,
,,,,,,,,,,,,,,a,1,0.9423,space,0.1061,0,64,64,135,1,0_targ_4_dist_green/trial11.png,,,0,4,greenverival,a,80,31,female,2021-03-02_13h34.38.016,exp11,2020.2.6,Linux armv8l,60,,,,,,,,,,,
,,,,,,,,,,,,,,a,1,0.8932,space,0.1189,0,65,65,173,1,0_targ_10_dist_green/trial24.png,,,0,10,greenverival,a,80,31,female,2021-03-02_13h34.38.016,exp11,2020.2.6,Linux armv8l,60,,,,,,,,,,,
,,,,,,,,,,,,,,p,1,0.8197,space,0.0985,0,66,66,12,1,0_dist_green/trial13.png,,,1,0,greenverival,p,80,31,female,2021-03-02_13h34.38.016,exp11,2020.2.6,Linux armv8l,60,,,,,,,,,,,
,,,,,,,,,,,,,,p,0,0.9216,space,1.014,0,67,67,126,1,0_targ_4_dist_green/trial2.png,,,0,4,greenverival,a,80,31,female,2021-03-02_13h34.38.016,exp11,2020.2.6,Linux armv8l,60,,,,,,,,,,,
,,,,,,,,,,,,,,p,1,1.3022,space,0.1176,0,68,68,96,1,15_dist_green/trial22.png,,,1,15,greenverival,p,80,31,female,2021-03-02_13h34.38.016,exp11,2020.2.6,Linux armv8l,60,,,,,,,,,,,
,,,,,,,,,,,,,,a,1,1.0262,space,0.1034,0,69,69,155,1,0_targ_10_dist_green/trial6.png,,,0,10,greenverival,a,80,31,female,2021-03-02_13h34.38.016,exp11,2020.2.6,Linux armv8l,60,,,,,,,,,,,
,,,,,,,,,,,,,,p,1,0.9391,space,0.1412,0,70,70,7,1,0_dist_green/trial8.png,,,1,0,greenverival,p,80,31,female,2021-03-02_13h34.38.016,exp11,2020.2.6,Linux armv8l,60,,,,,,,,,,,
,,,,,,,,,,,,,,a,1,1.0208,space,0.1226,0,71,71,120,1,0_targ_1_dist_green/trial21.png,,,0,1,greenverival,a,80,31,female,2021-03-02_13h34.38.016,exp11,2020.2.6,Linux armv8l,60,,,,,,,,,,,
,,,,,,,,,,,,,,p,1,0.8199,space,0.1551,0,72,72,19,1,0_dist_green/trial20.png,,,1,0,greenverival,p,80,31,female,2021-03-02_13h34.38.016,exp11,2020.2.6,Linux armv8l,60,,,,,,,,,,,
,,,,,,,,,,,,,,p,1,1.3976,space,0.1091,0,73,73,47,1,3_dist_green/trial23.png,,,1,3,greenverival,p,80,31,female,2021-03-02_13h34.38.016,exp11,2020.2.6,Linux armv8l,60,,,,,,,,,,,
,,,,,,,,,,,,,,a,1,1.4736,space,0.1302,0,74,74,199,1,0_targ_16_dist_green/trial25.png,,,0,16,greenverival,a,80,31,female,2021-03-02_13h34.38.016,exp11,2020.2.6,Linux armv8l,60,,,,,,,,,,,
,,,,,,,,,,,,,,p,1,1.0135,space,0.1334,0,75,75,92,1,15_dist_green/trial18.png,,,1,15,greenverival,p,80,31,female,2021-03-02_13h34.38.016,exp11,2020.2.6,Linux armv8l,60,,,,,,,,,,,
,,,,,,,,,,,,,,p,1,0.8443,space,0.1218,0,76,76,15,1,0_dist_green/trial16.png,,,1,0,greenverival,p,80,31,female,2021-03-02_13h34.38.016,exp11,2020.2.6,Linux armv8l,60,,,,,,,,,,,
,,,,,,,,,,,,,,a,1,1.3032,space,0.1096,0,77,77,176,1,0_targ_16_dist_green/trial2.png,,,0,16,greenverival,a,80,31,female,2021-03-02_13h34.38.016,exp11,2020.2.6,Linux armv8l,60,,,,,,,,,,,
,,,,,,,,,,,,,,a,1,1.4593,space,0.1299,0,78,78,169,1,0_targ_10_dist_green/trial20.png,,,0,10,greenverival,a,80,31,female,2021-03-02_13h34.38.016,exp11,2020.2.6,Linux armv8l,60,,,,,,,,,,,
,,,,,,,,,,,,,,a,1,1.2383,space,0.0957,0,79,79,114,1,0_targ_1_dist_green/trial15.png,,,0,1,greenverival,a,80,31,female,2021-03-02_13h34.38.016,exp11,2020.2.6,Linux armv8l,60,,,,,,,,,,,
,,,,,,,,,,,,,,p,1,1.2488,space,0.1061,0,80,80,97,1,15_dist_green/trial23.png,,,1,15,greenverival,p,80,31,female,2021-03-02_13h34.38.016,exp11,2020.2.6,Linux armv8l,60,,,,,,,,,,,
,,,,,,,,,,,,,,p,1,1.2227,space,0.0758,0,81,81,56,1,9_dist_green/trial7.png,,,1,9,greenverival,p,80,31,female,2021-03-02_13h34.38.016,exp11,2020.2.6,Linux armv8l,60,,,,,,,,,,,
,,,,,,,,,,,,,,p,1,0.8705,space,0.1168,0,82,82,6,1,0_dist_green/trial7.png,,,1,0,greenverival,p,80,31,female,2021-03-02_13h34.38.016,exp11,2020.2.6,Linux armv8l,60,,,,,,,,,,,
,,,,,,,,,,,,,,a,1,0.9325,space,0.0846,0,83,83,137,1,0_targ_4_dist_green/trial13.png,,,0,4,greenverival,a,80,31,female,2021-03-02_13h34.38.016,exp11,2020.2.6,Linux armv8l,60,,,,,,,,,,,
,,,,,,,,,,,,,,a,1,0.7935,space,0.1193,0,84,84,145,1,0_targ_4_dist_green/trial21.png,,,0,4,greenverival,a,80,31,female,2021-03-02_13h34.38.016,exp11,2020.2.6,Linux armv8l,60,,,,,,,,,,,
,,,,,,,,,,,,,,p,1,1.2144,space,0.0847,0,85,85,40,1,3_dist_green/trial16.png,,,1,3,greenverival,p,80,31,female,2021-03-02_13h34.38.016,exp11,2020.2.6,Linux armv8l,60,,,,,,,,,,,
,,,,,,,,,,,,,,a,1,0.9758,space,0.0895,0,86,86,163,1,0_targ_10_dist_green/trial14.png,,,0,10,greenverival,a,80,31,female,2021-03-02_13h34.38.016,exp11,2020.2.6,Linux armv8l,60,,,,,,,,,,,
,,,,,,,,,,,,,,a,1,0.8064,space,0.106,0,87,87,107,1,0_targ_1_dist_green/trial8.png,,,0,1,greenverival,a,80,31,female,2021-03-02_13h34.38.016,exp11,2020.2.6,Linux armv8l,60,,,,,,,,,,,
,,,,,,,,,,,,,,a,1,1.0384,space,0.0971,0,88,88,191,1,0_targ_16_dist_green/trial17.png,,,0,16,greenverival,a,80,31,female,2021-03-02_13h34.38.016,exp11,2020.2.6,Linux armv8l,60,,,,,,,,,,,
,,,,,,,,,,,,,,a,1,0.7332,space,0.0966,0,89,89,144,1,0_targ_4_dist_green/trial20.png,,,0,4,greenverival,a,80,31,female,2021-03-02_13h34.38.016,exp11,2020.2.6,Linux armv8l,60,,,,,,,,,,,
,,,,,,,,,,,,,,a,1,0.8793,space,0.1258,0,90,90,156,1,0_targ_10_dist_green/trial7.png,,,0,10,greenverival,a,80,31,female,2021-03-02_13h34.38.016,exp11,2020.2.6,Linux armv8l,60,,,,,,,,,,,
,,,,,,,,,,,,,,p,1,1.0988,space,1.2384,0,91,91,83,1,15_dist_green/trial9.png,,,1,15,greenverival,p,80,31,female,2021-03-02_13h34.38.016,exp11,2020.2.6,Linux armv8l,60,,,,,,,,,,,
,,,,,,,,,,,,,,a,1,1.1132,space,0.1256,0,92,92,195,1,0_targ_16_dist_green/trial21.png,,,0,16,greenverival,a,80,31,female,2021-03-02_13h34.38.016,exp11,2020.2.6,Linux armv8l,60,,,,,,,,,,,
,,,,,,,,,,,,,,p,1,1.0609,space,0.1541,0,93,93,54,1,9_dist_green/trial5.png,,,1,9,greenverival,p,80,31,female,2021-03-02_13h34.38.016,exp11,2020.2.6,Linux armv8l,60,,,,,,,,,,,
,,,,,,,,,,,,,,p,1,1.2241,space,0.1333,0,94,94,53,1,9_dist_green/trial4.png,,,1,9,greenverival,p,80,31,female,2021-03-02_13h34.38.016,exp11,2020.2.6,Linux armv8l,60,,,,,,,,,,,
,,,,,,,,,,,,,,p,1,0.9726,space,0.1214,0,95,95,85,1,15_dist_green/trial11.png,,,1,15,greenverival,p,80,31,female,2021-03-02_13h34.38.016,exp11,2020.2.6,Linux armv8l,60,,,,,,,,,,,
,,,,,,,,,,,,,,a,1,0.7864,space,0.1427,0,96,96,117,1,0_targ_1_dist_green/trial18.png,,,0,1,greenverival,a,80,31,female,2021-03-02_13h34.38.016,exp11,2020.2.6,Linux armv8l,60,,,,,,,,,,,
,,,,,,,,,,,,,,p,1,0.9312,space,0.111,0,97,97,48,1,3_dist_green/trial24.png,,,1,3,greenverival,p,80,31,female,2021-03-02_13h34.38.016,exp11,2020.2.6,Linux armv8l,60,,,,,,,,,,,
,,,,,,,,,,,,,,a,1,0.8501,space,0.1413,0,98,98,134,1,0_targ_4_dist_green/trial10.png,,,0,4,greenverival,a,80,31,female,2021-03-02_13h34.38.016,exp11,2020.2.6,Linux armv8l,60,,,,,,,,,,,
,,,,,,,,,,,,,,a,1,0.7985,space,0.164,0,99,99,101,1,0_targ_1_dist_green/trial2.png,,,0,1,greenverival,a,80,31,female,2021-03-02_13h34.38.016,exp11,2020.2.6,Linux armv8l,60,,,,,,,,,,,
,,,,,,,,,,,,,,a,1,0.7377,space,0.1525,0,100,100,154,1,0_targ_10_dist_green/trial5.png,,,0,10,greenverival,a,80,31,female,2021-03-02_13h34.38.016,exp11,2020.2.6,Linux armv8l,60,,,,,,,,,,,
,,,,,,,,,,,,,,a,1,0.751,space,0.1474,0,101,101,125,1,0_targ_4_dist_green/trial1.png,,,0,4,greenverival,a,80,31,female,2021-03-02_13h34.38.016,exp11,2020.2.6,Linux armv8l,60,,,,,,,,,,,
,,,,,,,,,,,,,,p,1,0.9053,space,0.1091,0,102,102,99,1,15_dist_green/trial25.png,,,1,15,greenverival,p,80,31,female,2021-03-02_13h34.38.016,exp11,2020.2.6,Linux armv8l,60,,,,,,,,,,,
,,,,,,,,,,,,,,a,1,0.8647,space,0.1162,0,103,103,105,1,0_targ_1_dist_green/trial6.png,,,0,1,greenverival,a,80,31,female,2021-03-02_13h34.38.016,exp11,2020.2.6,Linux armv8l,60,,,,,,,,,,,
,,,,,,,,,,,,,,p,1,0.8425,space,0.1299,0,104,104,8,1,0_dist_green/trial9.png,,,1,0,greenverival,p,80,31,female,2021-03-02_13h34.38.016,exp11,2020.2.6,Linux armv8l,60,,,,,,,,,,,
,,,,,,,,,,,,,,a,1,1.5231,space,0.1149,0,105,105,179,1,0_targ_16_dist_green/trial5.png,,,0,16,greenverival,a,80,31,female,2021-03-02_13h34.38.016,exp11,2020.2.6,Linux armv8l,60,,,,,,,,,,,
,,,,,,,,,,,,,,p,1,0.996,space,0.1384,0,106,106,52,1,9_dist_green/trial3.png,,,1,9,greenverival,p,80,31,female,2021-03-02_13h34.38.016,exp11,2020.2.6,Linux armv8l,60,,,,,,,,,,,
,,,,,,,,,,,,,,p,1,0.9268,space,0.1023,0,107,107,62,1,9_dist_green/trial13.png,,,1,9,greenverival,p,80,31,female,2021-03-02_13h34.38.016,exp11,2020.2.6,Linux armv8l,60,,,,,,,,,,,
,,,,,,,,,,,,,,a,1,0.9245,space,0.1018,0,108,108,190,1,0_targ_16_dist_green/trial16.png,,,0,16,greenverival,a,80,31,female,2021-03-02_13h34.38.016,exp11,2020.2.6,Linux armv8l,60,,,,,,,,,,,
,,,,,,,,,,,,,,a,1,0.9857,space,0.1246,0,109,109,123,1,0_targ_1_dist_green/trial24.png,,,0,1,greenverival,a,80,31,female,2021-03-02_13h34.38.016,exp11,2020.2.6,Linux armv8l,60,,,,,,,,,,,
,,,,,,,,,,,,,,p,1,1.0046,space,0.1285,0,110,110,90,1,15_dist_green/trial16.png,,,1,15,greenverival,p,80,31,female,2021-03-02_13h34.38.016,exp11,2020.2.6,Linux armv8l,60,,,,,,,,,,,
,,,,,,,,,,,,,,a,1,1.3854,space,0.1089,0,111,111,151,1,0_targ_10_dist_green/trial2.png,,,0,10,greenverival,a,80,31,female,2021-03-02_13h34.38.016,exp11,2020.2.6,Linux armv8l,60,,,,,,,,,,,
,,,,,,,,,,,,,,a,1,0.7965,space,0.1132,0,112,112,138,1,0_targ_4_dist_green/trial14.png,,,0,4,greenverival,a,80,31,female,2021-03-02_13h34.38.016,exp11,2020.2.6,Linux armv8l,60,,,,,,,,,,,
,,,,,,,,,,,,,,p,1,0.9163,space,0.1563,0,113,113,73,1,9_dist_green/trial24.png,,,1,9,greenverival,p,80,31,female,2021-03-02_13h34.38.016,exp11,2020.2.6,Linux armv8l,60,,,,,,,,,,,
,,,,,,,,,,,,,,p,1,0.9894,space,0.0963,0,114,114,65,1,9_dist_green/trial16.png,,,1,9,greenverival,p,80,31,female,2021-03-02_13h34.38.016,exp11,2020.2.6,Linux armv8l,60,,,,,,,,,,,
,,,,,,,,,,,,,,p,1,0.9708,space,0.1225,0,115,115,46,1,3_dist_green/trial22.png,,,1,3,greenverival,p,80,31,female,2021-03-02_13h34.38.016,exp11,2020.2.6,Linux armv8l,60,,,,,,,,,,,
,,,,,,,,,,,,,,a,1,0.9174,space,0.1263,0,116,116,172,1,0_targ_10_dist_green/trial23.png,,,0,10,greenverival,a,80,31,female,2021-03-02_13h34.38.016,exp11,2020.2.6,Linux armv8l,60,,,,,,,,,,,
,,,,,,,,,,,,,,p,1,0.8388,space,0.1604,0,117,117,22,1,0_dist_green/trial23.png,,,1,0,greenverival,p,80,31,female,2021-03-02_13h34.38.016,exp11,2020.2.6,Linux armv8l,60,,,,,,,,,,,
,,,,,,,,,,,,,,p,1,0.8126,space,0.0998,0,118,118,2,1,0_dist_green/trial3.png,,,1,0,greenverival,p,80,31,female,2021-03-02_13h34.38.016,exp11,2020.2.6,Linux armv8l,60,,,,,,,,,,,
,,,,,,,,,,,,,,p,1,0.8257,space,0.0998,0,119,119,41,1,3_dist_green/trial17.png,,,1,3,greenverival,p,80,31,female,2021-03-02_13h34.38.016,exp11,2020.2.6,Linux armv8l,60,,,,,,,,,,,
,,,,,,,,,,,,,,a,1,0.8976,space,0.1107,0,120,120,132,1,0_targ_4_dist_green/trial8.png,,,0,4,greenverival,a,80,31,female,2021-03-02_13h34.38.016,exp11,2020.2.6,Linux armv8l,60,,,,,,,,,,,
,,,,,,,,,,,,,,a,1,0.8282,space,0.122,0,121,121,139,1,0_targ_4_dist_green/trial15.png,,,0,4,greenverival,a,80,31,female,2021-03-02_13h34.38.016,exp11,2020.2.6,Linux armv8l,60,,,,,,,,,,,
,,,,,,,,,,,,,,p,1,0.9846,space,0.1004,0,122,122,74,1,9_dist_green/trial25.png,,,1,9,greenverival,p,80,31,female,2021-03-02_13h34.38.016,exp11,2020.2.6,Linux armv8l,60,,,,,,,,,,,
,,,,,,,,,,,,,,a,1,1.2594,space,0.112,0,123,123,192,1,0_targ_16_dist_green/trial18.png,,,0,16,greenverival,a,80,31,female,2021-03-02_13h34.38.016,exp11,2020.2.6,Linux armv8l,60,,,,,,,,,,,
,,,,,,,,,,,,,,p,1,0.986,space,0.1506,0,124,124,39,1,3_dist_green/trial15.png,,,1,3,greenverival,p,80,31,female,2021-03-02_13h34.38.016,exp11,2020.2.6,Linux armv8l,60,,,,,,,,,,,
,,,,,,,,,,,,,,a,1,1.2996,space,0.124,0,125,125,182,1,0_targ_16_dist_green/trial8.png,,,0,16,greenverival,a,80,31,female,2021-03-02_13h34.38.016,exp11,2020.2.6,Linux armv8l,60,,,,,,,,,,,
,,,,,,,,,,,,,,a,1,0.5546,space,0.1277,0,126,126,170,1,0_targ_10_dist_green/trial21.png,,,0,10,greenverival,a,80,31,female,2021-03-02_13h34.38.016,exp11,2020.2.6,Linux armv8l,60,,,,,,,,,,,
,,,,,,,,,,,,,,p,1,1.0716,space,0.1019,0,127,127,98,1,15_dist_green/trial24.png,,,1,15,greenverival,p,80,31,female,2021-03-02_13h34.38.016,exp11,2020.2.6,Linux armv8l,60,,,,,,,,,,,
,,,,,,,,,,,,,,a,1,1.1203,space,0.1322,0,128,128,189,1,0_targ_16_dist_green/trial15.png,,,0,16,greenverival,a,80,31,female,2021-03-02_13h34.38.016,exp11,2020.2.6,Linux armv8l,60,,,,,,,,,,,
,,,,,,,,,,,,,,a,1,0.9006,space,0.1014,0,129,129,184,1,0_targ_16_dist_green/trial10.png,,,0,16,greenverival,a,80,31,female,2021-03-02_13h34.38.016,exp11,2020.2.6,Linux armv8l,60,,,,,,,,,,,
,,,,,,,,,,,,,,p,1,0.8924,space,0.1146,0,130,130,70,1,9_dist_green/trial21.png,,,1,9,greenverival,p,80,31,female,2021-03-02_13h34.38.016,exp11,2020.2.6,Linux armv8l,60,,,,,,,,,,,
,,,,,,,,,,,,,,p,1,0.924,space,0.0982,0,131,131,58,1,9_dist_green/trial9.png,,,1,9,greenverival,p,80,31,female,2021-03-02_13h34.38.016,exp11,2020.2.6,Linux armv8l,60,,,,,,,,,,,
,,,,,,,,,,,,,,a,1,1.0113,space,0.0873,0,132,132,124,1,0_targ_1_dist_green/trial25.png,,,0,1,greenverival,a,80,31,female,2021-03-02_13h34.38.016,exp11,2020.2.6,Linux armv8l,60,,,,,,,,,,,
,,,,,,,,,,,,,,a,1,0.8326,space,0.1023,0,133,133,166,1,0_targ_10_dist_green/trial17.png,,,0,10,greenverival,a,80,31,female,2021-03-02_13h34.38.016,exp11,2020.2.6,Linux armv8l,60,,,,,,,,,,,
,,,,,,,,,,,,,,p,1,0.7708,space,0.1041,0,134,134,13,1,0_dist_green/trial14.png,,,1,0,greenverival,p,80,31,female,2021-03-02_13h34.38.016,exp11,2020.2.6,Linux armv8l,60,,,,,,,,,,,
,,,,,,,,,,,,,,a,1,0.8053,space,0.1146,0,135,135,100,1,0_targ_1_dist_green/trial1.png,,,0,1,greenverival,a,80,31,female,2021-03-02_13h34.38.016,exp11,2020.2.6,Linux armv8l,60,,,,,,,,,,,
,,,,,,,,,,,,,,a,1,1.0265,space,0.068,0,136,136,162,1,0_targ_10_dist_green/trial13.png,,,0,10,greenverival,a,80,31,female,2021-03-02_13h34.38.016,exp11,2020.2.6,Linux armv8l,60,,,,,,,,,,,
,,,,,,,,,,,,,,p,1,1.3296,space,0.1032,0,137,137,76,1,15_dist_green/trial2.png,,,1,15,greenverival,p,80,31,female,2021-03-02_13h34.38.016,exp11,2020.2.6,Linux armv8l,60,,,,,,,,,,,
,,,,,,,,,,,,,,a,1,1.1912,space,0.0998,0,138,138,185,1,0_targ_16_dist_green/trial11.png,,,0,16,greenverival,a,80,31,female,2021-03-02_13h34.38.016,exp11,2020.2.6,Linux armv8l,60,,,,,,,,,,,
,,,,,,,,,,,,,,a,1,1.0152,space,0.1294,0,139,139,187,1,0_targ_16_dist_green/trial13.png,,,0,16,greenverival,a,80,31,female,2021-03-02_13h34.38.016,exp11,2020.2.6,Linux armv8l,60,,,,,,,,,,,
,,,,,,,,,,,,,,p,1,0.9087,space,0.1102,0,140,140,28,1,3_dist_green/trial4.png,,,1,3,greenverival,p,80,31,female,2021-03-02_13h34.38.016,exp11,2020.2.6,Linux armv8l,60,,,,,,,,,,,
,,,,,,,,,,,,,,p,1,1.0064,space,0.1077,0,141,141,34,1,3_dist_green/trial10.png,,,1,3,greenverival,p,80,31,female,2021-03-02_13h34.38.016,exp11,2020.2.6,Linux armv8l,60,,,,,,,,,,,
,,,,,,,,,,,,,,a,1,1.2887,space,0.1321,0,142,142,136,1,0_targ_4_dist_green/trial12.png,,,0,4,greenverival,a,80,31,female,2021-03-02_13h34.38.016,exp11,2020.2.6,Linux armv8l,60,,,,,,,,,,,
,,,,,,,,,,,,,,p,1,1.0341,space,0.1254,0,143,143,69,1,9_dist_green/trial20.png,,,1,9,greenverival,p,80,31,female,2021-03-02_13h34.38.016,exp11,2020.2.6,Linux armv8l,60,,,,,,,,,,,
,,,,,,,,,,,,,,p,1,1.7399,space,0.1899,0,144,144,57,1,9_dist_green/trial8.png,,,1,9,greenverival,p,80,31,female,2021-03-02_13h34.38.016,exp11,2020.2.6,Linux armv8l,60,,,,,,,,,,,
,,,,,,,,,,,,,,p,1,1.0004,space,0.1056,0,145,145,64,1,9_dist_green/trial15.png,,,1,9,greenverival,p,80,31,female,2021-03-02_13h34.38.016,exp11,2020.2.6,Linux armv8l,60,,,,,,,,,,,
,,,,,,,,,,,,,,a,1,0.8334,space,1.0391,0,146,146,128,1,0_targ_4_dist_green/trial4.png,,,0,4,greenverival,a,80,31,female,2021-03-02_13h34.38.016,exp11,2020.2.6,Linux armv8l,60,,,,,,,,,,,
,,,,,,,,,,,,,,p,1,0.8359,space,0.102,0,147,147,14,1,0_dist_green/trial15.png,,,1,0,greenverival,p,80,31,female,2021-03-02_13h34.38.016,exp11,2020.2.6,Linux armv8l,60,,,,,,,,,,,
,,,,,,,,,,,,,,p,1,0.7554,space,0.1065,0,148,148,9,1,0_dist_green/trial10.png,,,1,0,greenverival,p,80,31,female,2021-03-02_13h34.38.016,exp11,2020.2.6,Linux armv8l,60,,,,,,,,,,,
,,,,,,,,,,,,,,p,1,1.3699,space,0.127,0,149,149,51,1,9_dist_green/trial2.png,,,1,9,greenverival,p,80,31,female,2021-03-02_13h34.38.016,exp11,2020.2.6,Linux armv8l,60,,,,,,,,,,,
,,,,,,,,,,,,,,a,1,1.0399,space,0.127,0,150,150,103,1,0_targ_1_dist_green/trial4.png,,,0,1,greenverival,a,80,31,female,2021-03-02_13h34.38.016,exp11,2020.2.6,Linux armv8l,60,,,,,,,,,,,
,,,,,,,,,,,,,,a,1,0.763,space,0.1699,0,151,151,146,1,0_targ_4_dist_green/trial22.png,,,0,4,greenverival,a,80,31,female,2021-03-02_13h34.38.016,exp11,2020.2.6,Linux armv8l,60,,,,,,,,,,,
,,,,,,,,,,,,,,a,1,0.6561,space,0.1273,0,152,152,174,1,0_targ_10_dist_green/trial25.png,,,0,10,greenverival,a,80,31,female,2021-03-02_13h34.38.016,exp11,2020.2.6,Linux armv8l,60,,,,,,,,,,,
,,,,,,,,,,,,,,a,1,1.0232,space,0.1414,0,153,153,175,1,0_targ_16_dist_green/trial1.png,,,0,16,greenverival,a,80,31,female,2021-03-02_13h34.38.016,exp11,2020.2.6,Linux armv8l,60,,,,,,,,,,,
,,,,,,,,,,,,,,p,1,0.9953,space,0.2078,0,154,154,87,1,15_dist_green/trial13.png,,,1,15,greenverival,p,80,31,female,2021-03-02_13h34.38.016,exp11,2020.2.6,Linux armv8l,60,,,,,,,,,,,
,,,,,,,,,,,,,,a,1,0.7166,space,0.1082,0,155,155,148,1,0_targ_4_dist_green/trial24.png,,,0,4,greenverival,a,80,31,female,2021-03-02_13h34.38.016,exp11,2020.2.6,Linux armv8l,60,,,,,,,,,,,
,,,,,,,,,,,,,,p,1,1.0094,space,0.1961,0,156,156,25,1,3_dist_green/trial1.png,,,1,3,greenverival,p,80,31,female,2021-03-02_13h34.38.016,exp11,2020.2.6,Linux armv8l,60,,,,,,,,,,,
,,,,,,,,,,,,,,a,1,1.1881,space,0.0905,0,157,157,159,1,0_targ_10_dist_green/trial10.png,,,0,10,greenverival,a,80,31,female,2021-03-02_13h34.38.016,exp11,2020.2.6,Linux armv8l,60,,,,,,,,,,,
,,,,,,,,,,,,,,a,1,0.7309,space,0.126,0,158,158,194,1,0_targ_16_dist_green/trial20.png,,,0,16,greenverival,a,80,31,female,2021-03-02_13h34.38.016,exp11,2020.2.6,Linux armv8l,60,,,,,,,,,,,
,,,,,,,,,,,,,,p,1,0.8145,space,0.1507,0,159,159,44,1,3_dist_green/trial20.png,,,1,3,greenverival,p,80,31,female,2021-03-02_13h34.38.016,exp11,2020.2.6,Linux armv8l,60,,,,,,,,,,,
,,,,,,,,,,,,,,p,1,1.0385,space,0.1632,0,160,160,61,1,9_dist_green/trial12.png,,,1,9,greenverival,p,80,31,female,2021-03-02_13h34.38.016,exp11,2020.2.6,Linux armv8l,60,,,,,,,,,,,
,,,,,,,,,,,,,,a,1,0.598,space,0.17,0,161,161,133,1,0_targ_4_dist_green/trial9.png,,,0,4,greenverival,a,80,31,female,2021-03-02_13h34.38.016,exp11,2020.2.6,Linux armv8l,60,,,,,,,,,,,
,,,,,,,,,,,,,,a,1,0.6755,space,0.1274,0,162,162,140,1,0_targ_4_dist_green/trial6.png,,,0,4,greenverival,a,80,31,female,2021-03-02_13h34.38.016,exp11,2020.2.6,Linux armv8l,60,,,,,,,,,,,
,,,,,,,,,,,,,,p,1,0.873,space,0.1879,0,163,163,50,1,9_dist_green/trial1.png,,,1,9,greenverival,p,80,31,female,2021-03-02_13h34.38.016,exp11,2020.2.6,Linux armv8l,60,,,,,,,,,,,
,,,,,,,,,,,,,,p,1,0.8218,space,0.1465,0,164,164,63,1,9_dist_green/trial14.png,,,1,9,greenverival,p,80,31,female,2021-03-02_13h34.38.016,exp11,2020.2.6,Linux armv8l,60,,,,,,,,,,,
,,,,,,,,,,,,,,a,1,0.777,space,0.1096,0,165,165,181,1,0_targ_16_dist_green/trial7.png,,,0,16,greenverival,a,80,31,female,2021-03-02_13h34.38.016,exp11,2020.2.6,Linux armv8l,60,,,,,,,,,,,
,,,,,,,,,,,,,,a,1,0.6659,space,0.0979,0,166,166,109,1,0_targ_1_dist_green/trial10.png,,,0,1,greenverival,a,80,31,female,2021-03-02_13h34.38.016,exp11,2020.2.6,Linux armv8l,60,,,,,,,,,,,
,,,,,,,,,,,,,,a,1,0.6471,space,0.1466,0,167,167,149,1,0_targ_4_dist_green/trial25.png,,,0,4,greenverival,a,80,31,female,2021-03-02_13h34.38.016,exp11,2020.2.6,Linux armv8l,60,,,,,,,,,,,
,,,,,,,,,,,,,,p,1,1.041,space,0.1659,0,168,168,95,1,15_dist_green/trial21.png,,,1,15,greenverival,p,80,31,female,2021-03-02_13h34.38.016,exp11,2020.2.6,Linux armv8l,60,,,,,,,,,,,
,,,,,,,,,,,,,,p,1,0.8864,space,0.1704,0,169,169,32,1,3_dist_green/trial8.png,,,1,3,greenverival,p,80,31,female,2021-03-02_13h34.38.016,exp11,2020.2.6,Linux armv8l,60,,,,,,,,,,,
,,,,,,,,,,,,,,p,1,0.6535,space,0.1998,0,170,170,67,1,9_dist_green/trial18.png,,,1,9,greenverival,p,80,31,female,2021-03-02_13h34.38.016,exp11,2020.2.6,Linux armv8l,60,,,,,,,,,,,
,,,,,,,,,,,,,,p,1,0.8621,space,0.1675,0,171,171,11,1,0_dist_green/trial12.png,,,1,0,greenverival,p,80,31,female,2021-03-02_13h34.38.016,exp11,2020.2.6,Linux armv8l,60,,,,,,,,,,,
,,,,,,,,,,,,,,p,1,0.9756,space,0.2243,0,172,172,71,1,9_dist_green/trial22.png,,,1,9,greenverival,p,80,31,female,2021-03-02_13h34.38.016,exp11,2020.2.6,Linux armv8l,60,,,,,,,,,,,
,,,,,,,,,,,,,,p,1,0.9307,space,0.1982,0,173,173,72,1,9_dist_green/trial23.png,,,1,9,greenverival,p,80,31,female,2021-03-02_13h34.38.016,exp11,2020.2.6,Linux armv8l,60,,,,,,,,,,,
,,,,,,,,,,,,,,p,1,1.1131,space,0.1178,0,174,174,31,1,3_dist_green/trial7.png,,,1,3,greenverival,p,80,31,female,2021-03-02_13h34.38.016,exp11,2020.2.6,Linux armv8l,60,,,,,,,,,,,
,,,,,,,,,,,,,,p,1,0.7933,space,0.1237,0,175,175,38,1,3_dist_green/trial14.png,,,1,3,greenverival,p,80,31,female,2021-03-02_13h34.38.016,exp11,2020.2.6,Linux armv8l,60,,,,,,,,,,,
,,,,,,,,,,,,,,a,1,0.924,space,0.0985,0,176,176,113,1,0_targ_1_dist_green/trial14.png,,,0,1,greenverival,a,80,31,female,2021-03-02_13h34.38.016,exp11,2020.2.6,Linux armv8l,60,,,,,,,,,,,
,,,,,,,,,,,,,,p,1,0.8166,space,0.2121,0,177,177,20,1,0_dist_green/trial21.png,,,1,0,greenverival,p,80,31,female,2021-03-02_13h34.38.016,exp11,2020.2.6,Linux armv8l,60,,,,,,,,,,,
,,,,,,,,,,,,,,p,1,0.7798,space,0.2022,0,178,178,24,1,0_dist_green/trial25.png,,,1,0,greenverival,p,80,31,female,2021-03-02_13h34.38.016,exp11,2020.2.6,Linux armv8l,60,,,,,,,,,,,
,,,,,,,,,,,,,,a,1,1.0621,space,0.0823,0,179,179,193,1,0_targ_16_dist_green/trial19.png,,,0,16,greenverival,a,80,31,female,2021-03-02_13h34.38.016,exp11,2020.2.6,Linux armv8l,60,,,,,,,,,,,
,,,,,,,,,,,,,,p,1,0.9364,space,0.2064,0,180,180,42,1,3_dist_green/trial18.png,,,1,3,greenverival,p,80,31,female,2021-03-02_13h34.38.016,exp11,2020.2.6,Linux armv8l,60,,,,,,,,,,,
,,,,,,,,,,,,,,p,1,0.7802,space,0.1947,0,181,181,43,1,3_dist_green/trial19.png,,,1,3,greenverival,p,80,31,female,2021-03-02_13h34.38.016,exp11,2020.2.6,Linux armv8l,60,,,,,,,,,,,
,,,,,,,,,,,,,,p,1,1.0272,space,0.2012,0,182,182,75,1,15_dist_green/trial1.png,,,1,15,greenverival,p,80,31,female,2021-03-02_13h34.38.016,exp11,2020.2.6,Linux armv8l,60,,,,,,,,,,,
,,,,,,,,,,,,,,p,1,1.0097,space,0.205,0,183,183,86,1,15_dist_green/trial12.png,,,1,15,greenverival,p,80,31,female,2021-03-02_13h34.38.016,exp11,2020.2.6,Linux armv8l,60,,,,,,,,,,,
,,,,,,,,,,,,,,a,1,1.2003,space,0.0838,0,184,184,197,1,0_targ_16_dist_green/trial23.png,,,0,16,greenverival,a,80,31,female,2021-03-02_13h34.38.016,exp11,2020.2.6,Linux armv8l,60,,,,,,,,,,,
,,,,,,,,,,,,,,a,1,0.7891,space,0.1251,0,185,185,167,1,0_targ_10_dist_green/trial18.png,,,0,10,greenverival,a,80,31,female,2021-03-02_13h34.38.016,exp11,2020.2.6,Linux armv8l,60,,,,,,,,,,,
,,,,,,,,,,,,,,a,1,0.9682,space,0.1292,0,186,186,150,1,0_targ_10_dist_green/trial1.png,,,0,10,greenverival,a,80,31,female,2021-03-02_13h34.38.016,exp11,2020.2.6,Linux armv8l,60,,,,,,,,,,,
,,,,,,,,,,,,,,a,1,0.84,space,0.0994,0,187,187,142,1,0_targ_4_dist_green/trial18.png,,,0,4,greenverival,a,80,31,female,2021-03-02_13h34.38.016,exp11,2020.2.6,Linux armv8l,60,,,,,,,,,,,
,,,,,,,,,,,,,,a,1,0.7435,space,0.1238,0,188,188,102,1,0_targ_1_dist_green/trial3.png,,,0,1,greenverival,a,80,31,female,2021-03-02_13h34.38.016,exp11,2020.2.6,Linux armv8l,60,,,,,,,,,,,
,,,,,,,,,,,,,,p,1,0.9014,space,0.1341,0,189,189,35,1,3_dist_green/trial11.png,,,1,3,greenverival,p,80,31,female,2021-03-02_13h34.38.016,exp11,2020.2.6,Linux armv8l,60,,,,,,,,,,,
,,,,,,,,,,,,,,a,1,0.7349,space,0.1068,0,190,190,178,1,0_targ_16_dist_green/trial4.png,,,0,16,greenverival,a,80,31,female,2021-03-02_13h34.38.016,exp11,2020.2.6,Linux armv8l,60,,,,,,,,,,,
,,,,,,,,,,,,,,p,1,0.8159,space,0.1892,0,191,191,68,1,9_dist_green/trial19.png,,,1,9,greenverival,p,80,31,female,2021-03-02_13h34.38.016,exp11,2020.2.6,Linux armv8l,60,,,,,,,,,,,
,,,,,,,,,,,,,,p,1,0.8357,space,0.1715,0,192,192,37,1,3_dist_green/trial13.png,,,1,3,greenverival,p,80,31,female,2021-03-02_13h34.38.016,exp11,2020.2.6,Linux armv8l,60,,,,,,,,,,,
,,,,,,,,,,,,,,p,1,0.8961,space,0.2144,0,193,193,89,1,15_dist_green/trial15.png,,,1,15,greenverival,p,80,31,female,2021-03-02_13h34.38.016,exp11,2020.2.6,Linux armv8l,60,,,,,,,,,,,
,,,,,,,,,,,,,,p,1,0.7099,space,0.196,0,194,194,91,1,15_dist_green/trial17.png,,,1,15,greenverival,p,80,31,female,2021-03-02_13h34.38.016,exp11,2020.2.6,Linux armv8l,60,,,,,,,,,,,
,,,,,,,,,,,,,,p,1,0.9944,space,0.1777,0,195,195,79,1,15_dist_green/trial5.png,,,1,15,greenverival,p,80,31,female,2021-03-02_13h34.38.016,exp11,2020.2.6,Linux armv8l,60,,,,,,,,,,,
,,,,,,,,,,,,,,p,1,0.5621,space,0.2652,0,196,196,45,1,3_dist_green/trial21.png,,,1,3,greenverival,p,80,31,female,2021-03-02_13h34.38.016,exp11,2020.2.6,Linux armv8l,60,,,,,,,,,,,
,,,,,,,,,,,,,,p,1,0.667,space,0.1831,0,197,197,82,1,15_dist_green/trial8.png,,,1,15,greenverival,p,80,31,female,2021-03-02_13h34.38.016,exp11,2020.2.6,Linux armv8l,60,,,,,,,,,,,
,,,,,,,,,,,,,,a,1,0.6055,space,0.1429,0,198,198,116,1,0_targ_1_dist_green/trial17.png,,,0,1,greenverival,a,80,31,female,2021-03-02_13h34.38.016,exp11,2020.2.6,Linux armv8l,60,,,,,,,,,,,
,,,,,,,,,,,,,,p,1,0.7353,space,1.7751,0,199,199,23,1,0_dist_green/trial24.png,,,1,0,greenverival,p,80,31,female,2021-03-02_13h34.38.016,exp11,2020.2.6,Linux armv8l,60,,,,,,,,,,,
,,,,,,,,,,,,,,,,,,,,,,,,,,,,,,,80,31,female,2021-03-02_13h34.38.016,exp11,2020.2.6,Linux armv8l,60,0,1,1,0,1,conGreen.xlsx,green vertical,Look for green vertical bar (target) and indicate if it is present or absent in the array. If green vertical target is present press 'p' and if absent press 'a'. Press SPACE to start.,,,
