key_resp_6.keys,key_resp_6.rt,key_resp_7.keys,key_resp_7.rt,key_resp_8.keys,key_resp_8.rt,key_resp_10.keys,key_resp_10.rt,key_resp_9.keys,key_resp_9.rt,key_resp_3.keys,key_resp_3.rt,key_resp_5.keys,key_resp_5.rt,key_resp.keys,key_resp.corr,key_resp.rt,key_resp_4.keys,key_resp_4.rt,trials.thisRepN,trials.thisTrialN,trials.thisN,trials.thisIndex,trials.ran,ImageFile,tarPos,tarSize,targPres,numDist,targetName,correctAns,participant,age,sex,date,expName,psychopyVersion,OS,frameRate,fbclid,trials_2.thisRepN,trials_2.thisTrialN,trials_2.thisN,trials_2.thisIndex,trials_2.ran,condsFile,targName,instructionText,colTarget,sizeTarg,posit
space,2.82073,space,1.336015,space,1.088375,space,0.559735,space,0.595505,space,1.88062,space,7.617035,p,1,1.341975,space,1.1821,0,0,0,71,1,9_dist_green/trial22.png,,,1,9,greenverival,p,99,27,F,2021-02-25_22h23.59.839,exp11,2020.2.6,Win32,60,IwAR09v922AcZJCm0CH6ccaCUYaKo0m5SZsDy_MAa_u1cta1FWwMWoMLFCNxc,,,,,,,,,,,
,,,,,,,,,,,,,,a,1,0.79074,space,0.4951,0,1,1,140,1,0_targ_4_dist_green/trial6.png,,,0,4,greenverival,a,99,27,F,2021-02-25_22h23.59.839,exp11,2020.2.6,Win32,60,IwAR09v922AcZJCm0CH6ccaCUYaKo0m5SZsDy_MAa_u1cta1FWwMWoMLFCNxc,,,,,,,,,,,
,,,,,,,,,,,,,,p,1,0.82491,space,0.537465,0,2,2,75,1,15_dist_green/trial1.png,,,1,15,greenverival,p,99,27,F,2021-02-25_22h23.59.839,exp11,2020.2.6,Win32,60,IwAR09v922AcZJCm0CH6ccaCUYaKo0m5SZsDy_MAa_u1cta1FWwMWoMLFCNxc,,,,,,,,,,,
,,,,,,,,,,,,,,a,1,0.833015,space,0.54914,0,3,3,179,1,0_targ_16_dist_green/trial5.png,,,0,16,greenverival,a,99,27,F,2021-02-25_22h23.59.839,exp11,2020.2.6,Win32,60,IwAR09v922AcZJCm0CH6ccaCUYaKo0m5SZsDy_MAa_u1cta1FWwMWoMLFCNxc,,,,,,,,,,,
,,,,,,,,,,,,,,p,1,0.635265,space,0.48477,0,4,4,93,1,15_dist_green/trial19.png,,,1,15,greenverival,p,99,27,F,2021-02-25_22h23.59.839,exp11,2020.2.6,Win32,60,IwAR09v922AcZJCm0CH6ccaCUYaKo0m5SZsDy_MAa_u1cta1FWwMWoMLFCNxc,,,,,,,,,,,
,,,,,,,,,,,,,,a,1,0.862845,space,0.36755,0,5,5,141,1,0_targ_4_dist_green/trial17.png,,,0,4,greenverival,a,99,27,F,2021-02-25_22h23.59.839,exp11,2020.2.6,Win32,60,IwAR09v922AcZJCm0CH6ccaCUYaKo0m5SZsDy_MAa_u1cta1FWwMWoMLFCNxc,,,,,,,,,,,
,,,,,,,,,,,,,,a,1,0.675645,space,0.351125,0,6,6,100,1,0_targ_1_dist_green/trial1.png,,,0,1,greenverival,a,99,27,F,2021-02-25_22h23.59.839,exp11,2020.2.6,Win32,60,IwAR09v922AcZJCm0CH6ccaCUYaKo0m5SZsDy_MAa_u1cta1FWwMWoMLFCNxc,,,,,,,,,,,
,,,,,,,,,,,,,,p,1,0.582695,space,0.32898,0,7,7,68,1,9_dist_green/trial19.png,,,1,9,greenverival,p,99,27,F,2021-02-25_22h23.59.839,exp11,2020.2.6,Win32,60,IwAR09v922AcZJCm0CH6ccaCUYaKo0m5SZsDy_MAa_u1cta1FWwMWoMLFCNxc,,,,,,,,,,,
,,,,,,,,,,,,,,p,1,0.72546,space,0.377275,0,8,8,61,1,9_dist_green/trial12.png,,,1,9,greenverival,p,99,27,F,2021-02-25_22h23.59.839,exp11,2020.2.6,Win32,60,IwAR09v922AcZJCm0CH6ccaCUYaKo0m5SZsDy_MAa_u1cta1FWwMWoMLFCNxc,,,,,,,,,,,
,,,,,,,,,,,,,,p,1,0.550755,space,0.269895,0,9,9,41,1,3_dist_green/trial17.png,,,1,3,greenverival,p,99,27,F,2021-02-25_22h23.59.839,exp11,2020.2.6,Win32,60,IwAR09v922AcZJCm0CH6ccaCUYaKo0m5SZsDy_MAa_u1cta1FWwMWoMLFCNxc,,,,,,,,,,,
,,,,,,,,,,,,,,p,1,0.772155,space,0.309435,0,10,10,47,1,3_dist_green/trial23.png,,,1,3,greenverival,p,99,27,F,2021-02-25_22h23.59.839,exp11,2020.2.6,Win32,60,IwAR09v922AcZJCm0CH6ccaCUYaKo0m5SZsDy_MAa_u1cta1FWwMWoMLFCNxc,,,,,,,,,,,
,,,,,,,,,,,,,,p,1,0.67239,space,0.352495,0,11,11,31,1,3_dist_green/trial7.png,,,1,3,greenverival,p,99,27,F,2021-02-25_22h23.59.839,exp11,2020.2.6,Win32,60,IwAR09v922AcZJCm0CH6ccaCUYaKo0m5SZsDy_MAa_u1cta1FWwMWoMLFCNxc,,,,,,,,,,,
,,,,,,,,,,,,,,a,1,0.96355,space,0.387005,0,12,12,196,1,0_targ_16_dist_green/trial22.png,,,0,16,greenverival,a,99,27,F,2021-02-25_22h23.59.839,exp11,2020.2.6,Win32,60,IwAR09v922AcZJCm0CH6ccaCUYaKo0m5SZsDy_MAa_u1cta1FWwMWoMLFCNxc,,,,,,,,,,,
,,,,,,,,,,,,,,p,1,0.429425,space,0.399175,0,13,13,39,1,3_dist_green/trial15.png,,,1,3,greenverival,p,99,27,F,2021-02-25_22h23.59.839,exp11,2020.2.6,Win32,60,IwAR09v922AcZJCm0CH6ccaCUYaKo0m5SZsDy_MAa_u1cta1FWwMWoMLFCNxc,,,,,,,,,,,
,,,,,,,,,,,,,,a,1,0.78057,space,0.4014,0,14,14,150,1,0_targ_10_dist_green/trial1.png,,,0,10,greenverival,a,99,27,F,2021-02-25_22h23.59.839,exp11,2020.2.6,Win32,60,IwAR09v922AcZJCm0CH6ccaCUYaKo0m5SZsDy_MAa_u1cta1FWwMWoMLFCNxc,,,,,,,,,,,
,,,,,,,,,,,,,,a,0,0.87589,space,0.43426,0,15,15,27,1,3_dist_green/trial3.png,,,1,3,greenverival,p,99,27,F,2021-02-25_22h23.59.839,exp11,2020.2.6,Win32,60,IwAR09v922AcZJCm0CH6ccaCUYaKo0m5SZsDy_MAa_u1cta1FWwMWoMLFCNxc,,,,,,,,,,,
,,,,,,,,,,,,,,a,1,1.510125,space,0.3459,0,16,16,185,1,0_targ_16_dist_green/trial11.png,,,0,16,greenverival,a,99,27,F,2021-02-25_22h23.59.839,exp11,2020.2.6,Win32,60,IwAR09v922AcZJCm0CH6ccaCUYaKo0m5SZsDy_MAa_u1cta1FWwMWoMLFCNxc,,,,,,,,,,,
,,,,,,,,,,,,,,p,1,0.505465,space,0.318405,0,17,17,10,1,0_dist_green/trial11.png,,,1,0,greenverival,p,99,27,F,2021-02-25_22h23.59.839,exp11,2020.2.6,Win32,60,IwAR09v922AcZJCm0CH6ccaCUYaKo0m5SZsDy_MAa_u1cta1FWwMWoMLFCNxc,,,,,,,,,,,
,,,,,,,,,,,,,,a,1,0.6086,space,0.319075,0,18,18,104,1,0_targ_1_dist_green/trial5.png,,,0,1,greenverival,a,99,27,F,2021-02-25_22h23.59.839,exp11,2020.2.6,Win32,60,IwAR09v922AcZJCm0CH6ccaCUYaKo0m5SZsDy_MAa_u1cta1FWwMWoMLFCNxc,,,,,,,,,,,
,,,,,,,,,,,,,,p,1,0.563185,space,0.252,0,19,19,85,1,15_dist_green/trial11.png,,,1,15,greenverival,p,99,27,F,2021-02-25_22h23.59.839,exp11,2020.2.6,Win32,60,IwAR09v922AcZJCm0CH6ccaCUYaKo0m5SZsDy_MAa_u1cta1FWwMWoMLFCNxc,,,,,,,,,,,
,,,,,,,,,,,,,,a,1,0.92559,space,0.31262,0,20,20,187,1,0_targ_16_dist_green/trial13.png,,,0,16,greenverival,a,99,27,F,2021-02-25_22h23.59.839,exp11,2020.2.6,Win32,60,IwAR09v922AcZJCm0CH6ccaCUYaKo0m5SZsDy_MAa_u1cta1FWwMWoMLFCNxc,,,,,,,,,,,
,,,,,,,,,,,,,,p,1,0.915705,space,0.287025,0,21,21,88,1,15_dist_green/trial14.png,,,1,15,greenverival,p,99,27,F,2021-02-25_22h23.59.839,exp11,2020.2.6,Win32,60,IwAR09v922AcZJCm0CH6ccaCUYaKo0m5SZsDy_MAa_u1cta1FWwMWoMLFCNxc,,,,,,,,,,,
,,,,,,,,,,,,,,p,1,0.885625,space,0.23498,0,22,22,25,1,3_dist_green/trial1.png,,,1,3,greenverival,p,99,27,F,2021-02-25_22h23.59.839,exp11,2020.2.6,Win32,60,IwAR09v922AcZJCm0CH6ccaCUYaKo0m5SZsDy_MAa_u1cta1FWwMWoMLFCNxc,,,,,,,,,,,
,,,,,,,,,,,,,,p,1,0.806595,space,0.221885,0,23,23,95,1,15_dist_green/trial21.png,,,1,15,greenverival,p,99,27,F,2021-02-25_22h23.59.839,exp11,2020.2.6,Win32,60,IwAR09v922AcZJCm0CH6ccaCUYaKo0m5SZsDy_MAa_u1cta1FWwMWoMLFCNxc,,,,,,,,,,,
,,,,,,,,,,,,,,p,1,0.784375,space,0.2197,0,24,24,18,1,0_dist_green/trial19.png,,,1,0,greenverival,p,99,27,F,2021-02-25_22h23.59.839,exp11,2020.2.6,Win32,60,IwAR09v922AcZJCm0CH6ccaCUYaKo0m5SZsDy_MAa_u1cta1FWwMWoMLFCNxc,,,,,,,,,,,
,,,,,,,,,,,,,,a,1,0.697035,space,0.23448,0,25,25,110,1,0_targ_1_dist_green/trial11.png,,,0,1,greenverival,a,99,27,F,2021-02-25_22h23.59.839,exp11,2020.2.6,Win32,60,IwAR09v922AcZJCm0CH6ccaCUYaKo0m5SZsDy_MAa_u1cta1FWwMWoMLFCNxc,,,,,,,,,,,
,,,,,,,,,,,,,,p,1,0.634345,space,0.235965,0,26,26,16,1,0_dist_green/trial17.png,,,1,0,greenverival,p,99,27,F,2021-02-25_22h23.59.839,exp11,2020.2.6,Win32,60,IwAR09v922AcZJCm0CH6ccaCUYaKo0m5SZsDy_MAa_u1cta1FWwMWoMLFCNxc,,,,,,,,,,,
,,,,,,,,,,,,,,a,1,0.758325,space,0.270625,0,27,27,133,1,0_targ_4_dist_green/trial9.png,,,0,4,greenverival,a,99,27,F,2021-02-25_22h23.59.839,exp11,2020.2.6,Win32,60,IwAR09v922AcZJCm0CH6ccaCUYaKo0m5SZsDy_MAa_u1cta1FWwMWoMLFCNxc,,,,,,,,,,,
,,,,,,,,,,,,,,a,1,0.96515,space,0.32766,0,28,28,158,1,0_targ_10_dist_green/trial9.png,,,0,10,greenverival,a,99,27,F,2021-02-25_22h23.59.839,exp11,2020.2.6,Win32,60,IwAR09v922AcZJCm0CH6ccaCUYaKo0m5SZsDy_MAa_u1cta1FWwMWoMLFCNxc,,,,,,,,,,,
,,,,,,,,,,,,,,a,1,0.58561,space,0.29932,0,29,29,118,1,0_targ_1_dist_green/trial19.png,,,0,1,greenverival,a,99,27,F,2021-02-25_22h23.59.839,exp11,2020.2.6,Win32,60,IwAR09v922AcZJCm0CH6ccaCUYaKo0m5SZsDy_MAa_u1cta1FWwMWoMLFCNxc,,,,,,,,,,,
,,,,,,,,,,,,,,p,1,1.020585,space,0.27659,0,30,30,86,1,15_dist_green/trial12.png,,,1,15,greenverival,p,99,27,F,2021-02-25_22h23.59.839,exp11,2020.2.6,Win32,60,IwAR09v922AcZJCm0CH6ccaCUYaKo0m5SZsDy_MAa_u1cta1FWwMWoMLFCNxc,,,,,,,,,,,
,,,,,,,,,,,,,,a,1,0.79106,space,0.259435,0,31,31,199,1,0_targ_16_dist_green/trial25.png,,,0,16,greenverival,a,99,27,F,2021-02-25_22h23.59.839,exp11,2020.2.6,Win32,60,IwAR09v922AcZJCm0CH6ccaCUYaKo0m5SZsDy_MAa_u1cta1FWwMWoMLFCNxc,,,,,,,,,,,
,,,,,,,,,,,,,,a,1,0.69298,space,0.26123,0,32,32,184,1,0_targ_16_dist_green/trial10.png,,,0,16,greenverival,a,99,27,F,2021-02-25_22h23.59.839,exp11,2020.2.6,Win32,60,IwAR09v922AcZJCm0CH6ccaCUYaKo0m5SZsDy_MAa_u1cta1FWwMWoMLFCNxc,,,,,,,,,,,
,,,,,,,,,,,,,,p,1,0.501435,space,0.307555,0,33,33,9,1,0_dist_green/trial10.png,,,1,0,greenverival,p,99,27,F,2021-02-25_22h23.59.839,exp11,2020.2.6,Win32,60,IwAR09v922AcZJCm0CH6ccaCUYaKo0m5SZsDy_MAa_u1cta1FWwMWoMLFCNxc,,,,,,,,,,,
,,,,,,,,,,,,,,a,1,0.64507,space,0.329845,0,34,34,182,1,0_targ_16_dist_green/trial8.png,,,0,16,greenverival,a,99,27,F,2021-02-25_22h23.59.839,exp11,2020.2.6,Win32,60,IwAR09v922AcZJCm0CH6ccaCUYaKo0m5SZsDy_MAa_u1cta1FWwMWoMLFCNxc,,,,,,,,,,,
,,,,,,,,,,,,,,a,1,0.615925,space,0.244095,0,35,35,160,1,0_targ_10_dist_green/trial11.png,,,0,10,greenverival,a,99,27,F,2021-02-25_22h23.59.839,exp11,2020.2.6,Win32,60,IwAR09v922AcZJCm0CH6ccaCUYaKo0m5SZsDy_MAa_u1cta1FWwMWoMLFCNxc,,,,,,,,,,,
,,,,,,,,,,,,,,a,0,0.597695,space,2.802205,0,36,36,79,1,15_dist_green/trial5.png,,,1,15,greenverival,p,99,27,F,2021-02-25_22h23.59.839,exp11,2020.2.6,Win32,60,IwAR09v922AcZJCm0CH6ccaCUYaKo0m5SZsDy_MAa_u1cta1FWwMWoMLFCNxc,,,,,,,,,,,
,,,,,,,,,,,,,,p,1,0.99188,space,0.194565,0,37,37,30,1,3_dist_green/trial6.png,,,1,3,greenverival,p,99,27,F,2021-02-25_22h23.59.839,exp11,2020.2.6,Win32,60,IwAR09v922AcZJCm0CH6ccaCUYaKo0m5SZsDy_MAa_u1cta1FWwMWoMLFCNxc,,,,,,,,,,,
,,,,,,,,,,,,,,p,0,0.695935,space,3.66778,0,38,38,116,1,0_targ_1_dist_green/trial17.png,,,0,1,greenverival,a,99,27,F,2021-02-25_22h23.59.839,exp11,2020.2.6,Win32,60,IwAR09v922AcZJCm0CH6ccaCUYaKo0m5SZsDy_MAa_u1cta1FWwMWoMLFCNxc,,,,,,,,,,,
,,,,,,,,,,,,,,p,1,0.719285,space,0.19305,0,39,39,44,1,3_dist_green/trial20.png,,,1,3,greenverival,p,99,27,F,2021-02-25_22h23.59.839,exp11,2020.2.6,Win32,60,IwAR09v922AcZJCm0CH6ccaCUYaKo0m5SZsDy_MAa_u1cta1FWwMWoMLFCNxc,,,,,,,,,,,
,,,,,,,,,,,,,,a,1,0.72467,space,0.35094,0,40,40,152,1,0_targ_10_dist_green/trial3.png,,,0,10,greenverival,a,99,27,F,2021-02-25_22h23.59.839,exp11,2020.2.6,Win32,60,IwAR09v922AcZJCm0CH6ccaCUYaKo0m5SZsDy_MAa_u1cta1FWwMWoMLFCNxc,,,,,,,,,,,
,,,,,,,,,,,,,,a,1,0.740945,space,0.340175,0,41,41,197,1,0_targ_16_dist_green/trial23.png,,,0,16,greenverival,a,99,27,F,2021-02-25_22h23.59.839,exp11,2020.2.6,Win32,60,IwAR09v922AcZJCm0CH6ccaCUYaKo0m5SZsDy_MAa_u1cta1FWwMWoMLFCNxc,,,,,,,,,,,
,,,,,,,,,,,,,,a,0,0.567195,space,3.93862,0,42,42,57,1,9_dist_green/trial8.png,,,1,9,greenverival,p,99,27,F,2021-02-25_22h23.59.839,exp11,2020.2.6,Win32,60,IwAR09v922AcZJCm0CH6ccaCUYaKo0m5SZsDy_MAa_u1cta1FWwMWoMLFCNxc,,,,,,,,,,,
,,,,,,,,,,,,,,p,1,0.661505,space,0.300865,0,43,43,17,1,0_dist_green/trial18.png,,,1,0,greenverival,p,99,27,F,2021-02-25_22h23.59.839,exp11,2020.2.6,Win32,60,IwAR09v922AcZJCm0CH6ccaCUYaKo0m5SZsDy_MAa_u1cta1FWwMWoMLFCNxc,,,,,,,,,,,
,,,,,,,,,,,,,,a,1,0.94255,space,0.276355,0,44,44,149,1,0_targ_4_dist_green/trial25.png,,,0,4,greenverival,a,99,27,F,2021-02-25_22h23.59.839,exp11,2020.2.6,Win32,60,IwAR09v922AcZJCm0CH6ccaCUYaKo0m5SZsDy_MAa_u1cta1FWwMWoMLFCNxc,,,,,,,,,,,
,,,,,,,,,,,,,,p,1,0.54745,space,0.272975,0,45,45,92,1,15_dist_green/trial18.png,,,1,15,greenverival,p,99,27,F,2021-02-25_22h23.59.839,exp11,2020.2.6,Win32,60,IwAR09v922AcZJCm0CH6ccaCUYaKo0m5SZsDy_MAa_u1cta1FWwMWoMLFCNxc,,,,,,,,,,,
,,,,,,,,,,,,,,a,1,0.83953,space,0.26767,0,46,46,146,1,0_targ_4_dist_green/trial22.png,,,0,4,greenverival,a,99,27,F,2021-02-25_22h23.59.839,exp11,2020.2.6,Win32,60,IwAR09v922AcZJCm0CH6ccaCUYaKo0m5SZsDy_MAa_u1cta1FWwMWoMLFCNxc,,,,,,,,,,,
,,,,,,,,,,,,,,p,1,0.7931,space,0.23949,0,47,47,26,1,3_dist_green/trial2.png,,,1,3,greenverival,p,99,27,F,2021-02-25_22h23.59.839,exp11,2020.2.6,Win32,60,IwAR09v922AcZJCm0CH6ccaCUYaKo0m5SZsDy_MAa_u1cta1FWwMWoMLFCNxc,,,,,,,,,,,
,,,,,,,,,,,,,,a,1,0.525685,space,0.386615,0,48,48,102,1,0_targ_1_dist_green/trial3.png,,,0,1,greenverival,a,99,27,F,2021-02-25_22h23.59.839,exp11,2020.2.6,Win32,60,IwAR09v922AcZJCm0CH6ccaCUYaKo0m5SZsDy_MAa_u1cta1FWwMWoMLFCNxc,,,,,,,,,,,
,,,,,,,,,,,,,,a,1,0.873645,space,0.327025,0,49,49,145,1,0_targ_4_dist_green/trial21.png,,,0,4,greenverival,a,99,27,F,2021-02-25_22h23.59.839,exp11,2020.2.6,Win32,60,IwAR09v922AcZJCm0CH6ccaCUYaKo0m5SZsDy_MAa_u1cta1FWwMWoMLFCNxc,,,,,,,,,,,
,,,,,,,,,,,,,,p,1,0.670005,space,0.333885,0,50,50,97,1,15_dist_green/trial23.png,,,1,15,greenverival,p,99,27,F,2021-02-25_22h23.59.839,exp11,2020.2.6,Win32,60,IwAR09v922AcZJCm0CH6ccaCUYaKo0m5SZsDy_MAa_u1cta1FWwMWoMLFCNxc,,,,,,,,,,,
,,,,,,,,,,,,,,p,1,0.77074,space,0.31912,0,51,51,43,1,3_dist_green/trial19.png,,,1,3,greenverival,p,99,27,F,2021-02-25_22h23.59.839,exp11,2020.2.6,Win32,60,IwAR09v922AcZJCm0CH6ccaCUYaKo0m5SZsDy_MAa_u1cta1FWwMWoMLFCNxc,,,,,,,,,,,
,,,,,,,,,,,,,,p,1,0.539615,space,0.31715,0,52,52,0,1,0_dist_green/trial1.png,,,1,0,greenverival,p,99,27,F,2021-02-25_22h23.59.839,exp11,2020.2.6,Win32,60,IwAR09v922AcZJCm0CH6ccaCUYaKo0m5SZsDy_MAa_u1cta1FWwMWoMLFCNxc,,,,,,,,,,,
,,,,,,,,,,,,,,a,1,0.739065,space,0.35959,0,53,53,162,1,0_targ_10_dist_green/trial13.png,,,0,10,greenverival,a,99,27,F,2021-02-25_22h23.59.839,exp11,2020.2.6,Win32,60,IwAR09v922AcZJCm0CH6ccaCUYaKo0m5SZsDy_MAa_u1cta1FWwMWoMLFCNxc,,,,,,,,,,,
,,,,,,,,,,,,,,p,1,0.888725,space,0.28991,0,54,54,76,1,15_dist_green/trial2.png,,,1,15,greenverival,p,99,27,F,2021-02-25_22h23.59.839,exp11,2020.2.6,Win32,60,IwAR09v922AcZJCm0CH6ccaCUYaKo0m5SZsDy_MAa_u1cta1FWwMWoMLFCNxc,,,,,,,,,,,
,,,,,,,,,,,,,,p,1,0.621705,space,0.25075,0,55,55,12,1,0_dist_green/trial13.png,,,1,0,greenverival,p,99,27,F,2021-02-25_22h23.59.839,exp11,2020.2.6,Win32,60,IwAR09v922AcZJCm0CH6ccaCUYaKo0m5SZsDy_MAa_u1cta1FWwMWoMLFCNxc,,,,,,,,,,,
,,,,,,,,,,,,,,a,1,0.826925,space,0.29611,0,56,56,192,1,0_targ_16_dist_green/trial18.png,,,0,16,greenverival,a,99,27,F,2021-02-25_22h23.59.839,exp11,2020.2.6,Win32,60,IwAR09v922AcZJCm0CH6ccaCUYaKo0m5SZsDy_MAa_u1cta1FWwMWoMLFCNxc,,,,,,,,,,,
,,,,,,,,,,,,,,p,1,0.60344,space,0.23876,0,57,57,64,1,9_dist_green/trial15.png,,,1,9,greenverival,p,99,27,F,2021-02-25_22h23.59.839,exp11,2020.2.6,Win32,60,IwAR09v922AcZJCm0CH6ccaCUYaKo0m5SZsDy_MAa_u1cta1FWwMWoMLFCNxc,,,,,,,,,,,
,,,,,,,,,,,,,,a,1,0.646945,space,0.318405,0,58,58,115,1,0_targ_1_dist_green/trial6.png,,,0,1,greenverival,a,99,27,F,2021-02-25_22h23.59.839,exp11,2020.2.6,Win32,60,IwAR09v922AcZJCm0CH6ccaCUYaKo0m5SZsDy_MAa_u1cta1FWwMWoMLFCNxc,,,,,,,,,,,
,,,,,,,,,,,,,,a,1,1.340315,space,0.28417,0,59,59,190,1,0_targ_16_dist_green/trial16.png,,,0,16,greenverival,a,99,27,F,2021-02-25_22h23.59.839,exp11,2020.2.6,Win32,60,IwAR09v922AcZJCm0CH6ccaCUYaKo0m5SZsDy_MAa_u1cta1FWwMWoMLFCNxc,,,,,,,,,,,
,,,,,,,,,,,,,,a,1,0.71621,space,0.40229,0,60,60,173,1,0_targ_10_dist_green/trial24.png,,,0,10,greenverival,a,99,27,F,2021-02-25_22h23.59.839,exp11,2020.2.6,Win32,60,IwAR09v922AcZJCm0CH6ccaCUYaKo0m5SZsDy_MAa_u1cta1FWwMWoMLFCNxc,,,,,,,,,,,
,,,,,,,,,,,,,,p,1,0.649425,space,0.307845,0,61,61,87,1,15_dist_green/trial13.png,,,1,15,greenverival,p,99,27,F,2021-02-25_22h23.59.839,exp11,2020.2.6,Win32,60,IwAR09v922AcZJCm0CH6ccaCUYaKo0m5SZsDy_MAa_u1cta1FWwMWoMLFCNxc,,,,,,,,,,,
,,,,,,,,,,,,,,a,1,0.698325,space,0.327675,0,62,62,154,1,0_targ_10_dist_green/trial5.png,,,0,10,greenverival,a,99,27,F,2021-02-25_22h23.59.839,exp11,2020.2.6,Win32,60,IwAR09v922AcZJCm0CH6ccaCUYaKo0m5SZsDy_MAa_u1cta1FWwMWoMLFCNxc,,,,,,,,,,,
,,,,,,,,,,,,,,p,1,0.508875,space,0.323905,0,63,63,42,1,3_dist_green/trial18.png,,,1,3,greenverival,p,99,27,F,2021-02-25_22h23.59.839,exp11,2020.2.6,Win32,60,IwAR09v922AcZJCm0CH6ccaCUYaKo0m5SZsDy_MAa_u1cta1FWwMWoMLFCNxc,,,,,,,,,,,
,,,,,,,,,,,,,,p,1,0.882405,space,0.204635,0,64,64,2,1,0_dist_green/trial3.png,,,1,0,greenverival,p,99,27,F,2021-02-25_22h23.59.839,exp11,2020.2.6,Win32,60,IwAR09v922AcZJCm0CH6ccaCUYaKo0m5SZsDy_MAa_u1cta1FWwMWoMLFCNxc,,,,,,,,,,,
,,,,,,,,,,,,,,p,1,0.54537,space,0.24339,0,65,65,35,1,3_dist_green/trial11.png,,,1,3,greenverival,p,99,27,F,2021-02-25_22h23.59.839,exp11,2020.2.6,Win32,60,IwAR09v922AcZJCm0CH6ccaCUYaKo0m5SZsDy_MAa_u1cta1FWwMWoMLFCNxc,,,,,,,,,,,
,,,,,,,,,,,,,,p,1,0.48983,space,0.215535,0,66,66,7,1,0_dist_green/trial8.png,,,1,0,greenverival,p,99,27,F,2021-02-25_22h23.59.839,exp11,2020.2.6,Win32,60,IwAR09v922AcZJCm0CH6ccaCUYaKo0m5SZsDy_MAa_u1cta1FWwMWoMLFCNxc,,,,,,,,,,,
,,,,,,,,,,,,,,a,1,0.55879,space,0.28664,0,67,67,139,1,0_targ_4_dist_green/trial15.png,,,0,4,greenverival,a,99,27,F,2021-02-25_22h23.59.839,exp11,2020.2.6,Win32,60,IwAR09v922AcZJCm0CH6ccaCUYaKo0m5SZsDy_MAa_u1cta1FWwMWoMLFCNxc,,,,,,,,,,,
,,,,,,,,,,,,,,p,0,0.90947,space,5.00026,0,68,68,131,1,0_targ_4_dist_green/trial7.png,,,0,4,greenverival,a,99,27,F,2021-02-25_22h23.59.839,exp11,2020.2.6,Win32,60,IwAR09v922AcZJCm0CH6ccaCUYaKo0m5SZsDy_MAa_u1cta1FWwMWoMLFCNxc,,,,,,,,,,,
,,,,,,,,,,,,,,a,1,1.265015,space,0.31097,0,69,69,169,1,0_targ_10_dist_green/trial20.png,,,0,10,greenverival,a,99,27,F,2021-02-25_22h23.59.839,exp11,2020.2.6,Win32,60,IwAR09v922AcZJCm0CH6ccaCUYaKo0m5SZsDy_MAa_u1cta1FWwMWoMLFCNxc,,,,,,,,,,,
,,,,,,,,,,,,,,a,1,1.02675,space,0.389905,0,70,70,198,1,0_targ_16_dist_green/trial24.png,,,0,16,greenverival,a,99,27,F,2021-02-25_22h23.59.839,exp11,2020.2.6,Win32,60,IwAR09v922AcZJCm0CH6ccaCUYaKo0m5SZsDy_MAa_u1cta1FWwMWoMLFCNxc,,,,,,,,,,,
,,,,,,,,,,,,,,p,1,0.54267,space,0.30123,0,71,71,3,1,0_dist_green/trial4.png,,,1,0,greenverival,p,99,27,F,2021-02-25_22h23.59.839,exp11,2020.2.6,Win32,60,IwAR09v922AcZJCm0CH6ccaCUYaKo0m5SZsDy_MAa_u1cta1FWwMWoMLFCNxc,,,,,,,,,,,
,,,,,,,,,,,,,,p,1,0.587745,space,0.28692,0,72,72,91,1,15_dist_green/trial17.png,,,1,15,greenverival,p,99,27,F,2021-02-25_22h23.59.839,exp11,2020.2.6,Win32,60,IwAR09v922AcZJCm0CH6ccaCUYaKo0m5SZsDy_MAa_u1cta1FWwMWoMLFCNxc,,,,,,,,,,,
,,,,,,,,,,,,,,a,1,0.727535,space,0.264475,0,73,73,194,1,0_targ_16_dist_green/trial20.png,,,0,16,greenverival,a,99,27,F,2021-02-25_22h23.59.839,exp11,2020.2.6,Win32,60,IwAR09v922AcZJCm0CH6ccaCUYaKo0m5SZsDy_MAa_u1cta1FWwMWoMLFCNxc,,,,,,,,,,,
,,,,,,,,,,,,,,p,0,0.756745,space,2.67636,0,74,74,126,1,0_targ_4_dist_green/trial2.png,,,0,4,greenverival,a,99,27,F,2021-02-25_22h23.59.839,exp11,2020.2.6,Win32,60,IwAR09v922AcZJCm0CH6ccaCUYaKo0m5SZsDy_MAa_u1cta1FWwMWoMLFCNxc,,,,,,,,,,,
,,,,,,,,,,,,,,a,1,0.870065,space,0.69359,0,75,75,176,1,0_targ_16_dist_green/trial2.png,,,0,16,greenverival,a,99,27,F,2021-02-25_22h23.59.839,exp11,2020.2.6,Win32,60,IwAR09v922AcZJCm0CH6ccaCUYaKo0m5SZsDy_MAa_u1cta1FWwMWoMLFCNxc,,,,,,,,,,,
,,,,,,,,,,,,,,p,1,0.60351,space,0.357185,0,76,76,53,1,9_dist_green/trial4.png,,,1,9,greenverival,p,99,27,F,2021-02-25_22h23.59.839,exp11,2020.2.6,Win32,60,IwAR09v922AcZJCm0CH6ccaCUYaKo0m5SZsDy_MAa_u1cta1FWwMWoMLFCNxc,,,,,,,,,,,
,,,,,,,,,,,,,,a,1,0.662095,space,0.2621,0,77,77,138,1,0_targ_4_dist_green/trial14.png,,,0,4,greenverival,a,99,27,F,2021-02-25_22h23.59.839,exp11,2020.2.6,Win32,60,IwAR09v922AcZJCm0CH6ccaCUYaKo0m5SZsDy_MAa_u1cta1FWwMWoMLFCNxc,,,,,,,,,,,
,,,,,,,,,,,,,,a,1,0.682205,space,0.29834,0,78,78,108,1,0_targ_1_dist_green/trial9.png,,,0,1,greenverival,a,99,27,F,2021-02-25_22h23.59.839,exp11,2020.2.6,Win32,60,IwAR09v922AcZJCm0CH6ccaCUYaKo0m5SZsDy_MAa_u1cta1FWwMWoMLFCNxc,,,,,,,,,,,
,,,,,,,,,,,,,,p,1,0.689905,space,0.26896,0,79,79,58,1,9_dist_green/trial9.png,,,1,9,greenverival,p,99,27,F,2021-02-25_22h23.59.839,exp11,2020.2.6,Win32,60,IwAR09v922AcZJCm0CH6ccaCUYaKo0m5SZsDy_MAa_u1cta1FWwMWoMLFCNxc,,,,,,,,,,,
,,,,,,,,,,,,,,p,1,1.293135,space,0.27707,0,80,80,99,1,15_dist_green/trial25.png,,,1,15,greenverival,p,99,27,F,2021-02-25_22h23.59.839,exp11,2020.2.6,Win32,60,IwAR09v922AcZJCm0CH6ccaCUYaKo0m5SZsDy_MAa_u1cta1FWwMWoMLFCNxc,,,,,,,,,,,
,,,,,,,,,,,,,,a,1,0.578825,space,0.353565,0,81,81,172,1,0_targ_10_dist_green/trial23.png,,,0,10,greenverival,a,99,27,F,2021-02-25_22h23.59.839,exp11,2020.2.6,Win32,60,IwAR09v922AcZJCm0CH6ccaCUYaKo0m5SZsDy_MAa_u1cta1FWwMWoMLFCNxc,,,,,,,,,,,
,,,,,,,,,,,,,,p,1,0.57037,space,0.243565,0,82,82,69,1,9_dist_green/trial20.png,,,1,9,greenverival,p,99,27,F,2021-02-25_22h23.59.839,exp11,2020.2.6,Win32,60,IwAR09v922AcZJCm0CH6ccaCUYaKo0m5SZsDy_MAa_u1cta1FWwMWoMLFCNxc,,,,,,,,,,,
,,,,,,,,,,,,,,a,1,0.800425,space,0.36647,0,83,83,156,1,0_targ_10_dist_green/trial7.png,,,0,10,greenverival,a,99,27,F,2021-02-25_22h23.59.839,exp11,2020.2.6,Win32,60,IwAR09v922AcZJCm0CH6ccaCUYaKo0m5SZsDy_MAa_u1cta1FWwMWoMLFCNxc,,,,,,,,,,,
,,,,,,,,,,,,,,p,1,0.669185,space,0.23164,0,84,84,29,1,3_dist_green/trial5.png,,,1,3,greenverival,p,99,27,F,2021-02-25_22h23.59.839,exp11,2020.2.6,Win32,60,IwAR09v922AcZJCm0CH6ccaCUYaKo0m5SZsDy_MAa_u1cta1FWwMWoMLFCNxc,,,,,,,,,,,
,,,,,,,,,,,,,,a,1,0.590215,space,0.320065,0,85,85,132,1,0_targ_4_dist_green/trial8.png,,,0,4,greenverival,a,99,27,F,2021-02-25_22h23.59.839,exp11,2020.2.6,Win32,60,IwAR09v922AcZJCm0CH6ccaCUYaKo0m5SZsDy_MAa_u1cta1FWwMWoMLFCNxc,,,,,,,,,,,
,,,,,,,,,,,,,,a,1,0.70103,space,0.33556,0,86,86,195,1,0_targ_16_dist_green/trial21.png,,,0,16,greenverival,a,99,27,F,2021-02-25_22h23.59.839,exp11,2020.2.6,Win32,60,IwAR09v922AcZJCm0CH6ccaCUYaKo0m5SZsDy_MAa_u1cta1FWwMWoMLFCNxc,,,,,,,,,,,
,,,,,,,,,,,,,,p,1,0.990555,space,0.322075,0,87,87,70,1,9_dist_green/trial21.png,,,1,9,greenverival,p,99,27,F,2021-02-25_22h23.59.839,exp11,2020.2.6,Win32,60,IwAR09v922AcZJCm0CH6ccaCUYaKo0m5SZsDy_MAa_u1cta1FWwMWoMLFCNxc,,,,,,,,,,,
,,,,,,,,,,,,,,a,1,0.64142,space,0.34532,0,88,88,128,1,0_targ_4_dist_green/trial4.png,,,0,4,greenverival,a,99,27,F,2021-02-25_22h23.59.839,exp11,2020.2.6,Win32,60,IwAR09v922AcZJCm0CH6ccaCUYaKo0m5SZsDy_MAa_u1cta1FWwMWoMLFCNxc,,,,,,,,,,,
,,,,,,,,,,,,,,a,1,0.79975,space,0.287305,0,89,89,127,1,0_targ_4_dist_green/trial3.png,,,0,4,greenverival,a,99,27,F,2021-02-25_22h23.59.839,exp11,2020.2.6,Win32,60,IwAR09v922AcZJCm0CH6ccaCUYaKo0m5SZsDy_MAa_u1cta1FWwMWoMLFCNxc,,,,,,,,,,,
,,,,,,,,,,,,,,p,1,0.520505,space,0.36062,0,90,90,20,1,0_dist_green/trial21.png,,,1,0,greenverival,p,99,27,F,2021-02-25_22h23.59.839,exp11,2020.2.6,Win32,60,IwAR09v922AcZJCm0CH6ccaCUYaKo0m5SZsDy_MAa_u1cta1FWwMWoMLFCNxc,,,,,,,,,,,
,,,,,,,,,,,,,,p,1,0.838775,space,0.23964,0,91,91,72,1,9_dist_green/trial23.png,,,1,9,greenverival,p,99,27,F,2021-02-25_22h23.59.839,exp11,2020.2.6,Win32,60,IwAR09v922AcZJCm0CH6ccaCUYaKo0m5SZsDy_MAa_u1cta1FWwMWoMLFCNxc,,,,,,,,,,,
,,,,,,,,,,,,,,a,1,0.84919,space,0.33718,0,92,92,171,1,0_targ_10_dist_green/trial22.png,,,0,10,greenverival,a,99,27,F,2021-02-25_22h23.59.839,exp11,2020.2.6,Win32,60,IwAR09v922AcZJCm0CH6ccaCUYaKo0m5SZsDy_MAa_u1cta1FWwMWoMLFCNxc,,,,,,,,,,,
,,,,,,,,,,,,,,a,1,0.74336,space,0.387165,0,93,93,106,1,0_targ_1_dist_green/trial7.png,,,0,1,greenverival,a,99,27,F,2021-02-25_22h23.59.839,exp11,2020.2.6,Win32,60,IwAR09v922AcZJCm0CH6ccaCUYaKo0m5SZsDy_MAa_u1cta1FWwMWoMLFCNxc,,,,,,,,,,,
,,,,,,,,,,,,,,a,1,0.73272,space,0.322095,0,94,94,163,1,0_targ_10_dist_green/trial14.png,,,0,10,greenverival,a,99,27,F,2021-02-25_22h23.59.839,exp11,2020.2.6,Win32,60,IwAR09v922AcZJCm0CH6ccaCUYaKo0m5SZsDy_MAa_u1cta1FWwMWoMLFCNxc,,,,,,,,,,,
,,,,,,,,,,,,,,a,1,0.755495,space,0.34329,0,95,95,113,1,0_targ_1_dist_green/trial14.png,,,0,1,greenverival,a,99,27,F,2021-02-25_22h23.59.839,exp11,2020.2.6,Win32,60,IwAR09v922AcZJCm0CH6ccaCUYaKo0m5SZsDy_MAa_u1cta1FWwMWoMLFCNxc,,,,,,,,,,,
,,,,,,,,,,,,,,a,1,0.44121,space,0.3872,0,96,96,124,1,0_targ_1_dist_green/trial25.png,,,0,1,greenverival,a,99,27,F,2021-02-25_22h23.59.839,exp11,2020.2.6,Win32,60,IwAR09v922AcZJCm0CH6ccaCUYaKo0m5SZsDy_MAa_u1cta1FWwMWoMLFCNxc,,,,,,,,,,,
,,,,,,,,,,,,,,p,1,0.539905,space,0.29151,0,97,97,11,1,0_dist_green/trial12.png,,,1,0,greenverival,p,99,27,F,2021-02-25_22h23.59.839,exp11,2020.2.6,Win32,60,IwAR09v922AcZJCm0CH6ccaCUYaKo0m5SZsDy_MAa_u1cta1FWwMWoMLFCNxc,,,,,,,,,,,
,,,,,,,,,,,,,,a,1,0.927815,space,0.370065,0,98,98,159,1,0_targ_10_dist_green/trial10.png,,,0,10,greenverival,a,99,27,F,2021-02-25_22h23.59.839,exp11,2020.2.6,Win32,60,IwAR09v922AcZJCm0CH6ccaCUYaKo0m5SZsDy_MAa_u1cta1FWwMWoMLFCNxc,,,,,,,,,,,
,,,,,,,,,,,,,,a,0,1.08431,space,2.42723,0,99,99,81,1,15_dist_green/trial7.png,,,1,15,greenverival,p,99,27,F,2021-02-25_22h23.59.839,exp11,2020.2.6,Win32,60,IwAR09v922AcZJCm0CH6ccaCUYaKo0m5SZsDy_MAa_u1cta1FWwMWoMLFCNxc,,,,,,,,,,,
,,,,,,,,,,,,,,a,1,1.014615,space,0.37353,0,100,100,105,1,0_targ_1_dist_green/trial6.png,,,0,1,greenverival,a,99,27,F,2021-02-25_22h23.59.839,exp11,2020.2.6,Win32,60,IwAR09v922AcZJCm0CH6ccaCUYaKo0m5SZsDy_MAa_u1cta1FWwMWoMLFCNxc,,,,,,,,,,,
,,,,,,,,,,,,,,p,1,0.81035,space,0.27406,0,101,101,78,1,15_dist_green/trial4.png,,,1,15,greenverival,p,99,27,F,2021-02-25_22h23.59.839,exp11,2020.2.6,Win32,60,IwAR09v922AcZJCm0CH6ccaCUYaKo0m5SZsDy_MAa_u1cta1FWwMWoMLFCNxc,,,,,,,,,,,
,,,,,,,,,,,,,,p,1,0.540515,space,0.24291,0,102,102,73,1,9_dist_green/trial24.png,,,1,9,greenverival,p,99,27,F,2021-02-25_22h23.59.839,exp11,2020.2.6,Win32,60,IwAR09v922AcZJCm0CH6ccaCUYaKo0m5SZsDy_MAa_u1cta1FWwMWoMLFCNxc,,,,,,,,,,,
,,,,,,,,,,,,,,p,1,0.528465,space,0.18299,0,103,103,46,1,3_dist_green/trial22.png,,,1,3,greenverival,p,99,27,F,2021-02-25_22h23.59.839,exp11,2020.2.6,Win32,60,IwAR09v922AcZJCm0CH6ccaCUYaKo0m5SZsDy_MAa_u1cta1FWwMWoMLFCNxc,,,,,,,,,,,
,,,,,,,,,,,,,,p,1,0.67446,space,0.15087,0,104,104,66,1,9_dist_green/trial17.png,,,1,9,greenverival,p,99,27,F,2021-02-25_22h23.59.839,exp11,2020.2.6,Win32,60,IwAR09v922AcZJCm0CH6ccaCUYaKo0m5SZsDy_MAa_u1cta1FWwMWoMLFCNxc,,,,,,,,,,,
,,,,,,,,,,,,,,p,1,0.4891,space,0.251365,0,105,105,21,1,0_dist_green/trial22.png,,,1,0,greenverival,p,99,27,F,2021-02-25_22h23.59.839,exp11,2020.2.6,Win32,60,IwAR09v922AcZJCm0CH6ccaCUYaKo0m5SZsDy_MAa_u1cta1FWwMWoMLFCNxc,,,,,,,,,,,
,,,,,,,,,,,,,,p,1,0.73394,space,0.170485,0,106,106,60,1,9_dist_green/trial11.png,,,1,9,greenverival,p,99,27,F,2021-02-25_22h23.59.839,exp11,2020.2.6,Win32,60,IwAR09v922AcZJCm0CH6ccaCUYaKo0m5SZsDy_MAa_u1cta1FWwMWoMLFCNxc,,,,,,,,,,,
,,,,,,,,,,,,,,a,1,1.02518,space,0.32936,0,107,107,180,1,0_targ_16_dist_green/trial6.png,,,0,16,greenverival,a,99,27,F,2021-02-25_22h23.59.839,exp11,2020.2.6,Win32,60,IwAR09v922AcZJCm0CH6ccaCUYaKo0m5SZsDy_MAa_u1cta1FWwMWoMLFCNxc,,,,,,,,,,,
,,,,,,,,,,,,,,a,1,0.930195,space,0.328875,0,108,108,142,1,0_targ_4_dist_green/trial18.png,,,0,4,greenverival,a,99,27,F,2021-02-25_22h23.59.839,exp11,2020.2.6,Win32,60,IwAR09v922AcZJCm0CH6ccaCUYaKo0m5SZsDy_MAa_u1cta1FWwMWoMLFCNxc,,,,,,,,,,,
,,,,,,,,,,,,,,a,1,1.181475,space,0.336925,0,109,109,181,1,0_targ_16_dist_green/trial7.png,,,0,16,greenverival,a,99,27,F,2021-02-25_22h23.59.839,exp11,2020.2.6,Win32,60,IwAR09v922AcZJCm0CH6ccaCUYaKo0m5SZsDy_MAa_u1cta1FWwMWoMLFCNxc,,,,,,,,,,,
,,,,,,,,,,,,,,a,1,0.646465,space,0.32309,0,110,110,120,1,0_targ_1_dist_green/trial21.png,,,0,1,greenverival,a,99,27,F,2021-02-25_22h23.59.839,exp11,2020.2.6,Win32,60,IwAR09v922AcZJCm0CH6ccaCUYaKo0m5SZsDy_MAa_u1cta1FWwMWoMLFCNxc,,,,,,,,,,,
,,,,,,,,,,,,,,a,1,0.68869,space,0.31068,0,111,111,174,1,0_targ_10_dist_green/trial25.png,,,0,10,greenverival,a,99,27,F,2021-02-25_22h23.59.839,exp11,2020.2.6,Win32,60,IwAR09v922AcZJCm0CH6ccaCUYaKo0m5SZsDy_MAa_u1cta1FWwMWoMLFCNxc,,,,,,,,,,,
,,,,,,,,,,,,,,p,1,0.650715,space,0.252955,0,112,112,19,1,0_dist_green/trial20.png,,,1,0,greenverival,p,99,27,F,2021-02-25_22h23.59.839,exp11,2020.2.6,Win32,60,IwAR09v922AcZJCm0CH6ccaCUYaKo0m5SZsDy_MAa_u1cta1FWwMWoMLFCNxc,,,,,,,,,,,
,,,,,,,,,,,,,,p,1,0.536715,space,0.272125,0,113,113,23,1,0_dist_green/trial24.png,,,1,0,greenverival,p,99,27,F,2021-02-25_22h23.59.839,exp11,2020.2.6,Win32,60,IwAR09v922AcZJCm0CH6ccaCUYaKo0m5SZsDy_MAa_u1cta1FWwMWoMLFCNxc,,,,,,,,,,,
,,,,,,,,,,,,,,p,1,0.49629,space,0.41387,0,114,114,5,1,0_dist_green/trial6.png,,,1,0,greenverival,p,99,27,F,2021-02-25_22h23.59.839,exp11,2020.2.6,Win32,60,IwAR09v922AcZJCm0CH6ccaCUYaKo0m5SZsDy_MAa_u1cta1FWwMWoMLFCNxc,,,,,,,,,,,
,,,,,,,,,,,,,,p,1,0.568685,space,0.338835,0,115,115,22,1,0_dist_green/trial23.png,,,1,0,greenverival,p,99,27,F,2021-02-25_22h23.59.839,exp11,2020.2.6,Win32,60,IwAR09v922AcZJCm0CH6ccaCUYaKo0m5SZsDy_MAa_u1cta1FWwMWoMLFCNxc,,,,,,,,,,,
,,,,,,,,,,,,,,a,1,0.8251,space,0.44697,0,116,116,177,1,0_targ_16_dist_green/trial3.png,,,0,16,greenverival,a,99,27,F,2021-02-25_22h23.59.839,exp11,2020.2.6,Win32,60,IwAR09v922AcZJCm0CH6ccaCUYaKo0m5SZsDy_MAa_u1cta1FWwMWoMLFCNxc,,,,,,,,,,,
,,,,,,,,,,,,,,p,1,0.797265,space,0.29177,0,117,117,59,1,9_dist_green/trial10.png,,,1,9,greenverival,p,99,27,F,2021-02-25_22h23.59.839,exp11,2020.2.6,Win32,60,IwAR09v922AcZJCm0CH6ccaCUYaKo0m5SZsDy_MAa_u1cta1FWwMWoMLFCNxc,,,,,,,,,,,
,,,,,,,,,,,,,,p,1,0.570345,space,0.301845,0,118,118,8,1,0_dist_green/trial9.png,,,1,0,greenverival,p,99,27,F,2021-02-25_22h23.59.839,exp11,2020.2.6,Win32,60,IwAR09v922AcZJCm0CH6ccaCUYaKo0m5SZsDy_MAa_u1cta1FWwMWoMLFCNxc,,,,,,,,,,,
,,,,,,,,,,,,,,a,1,0.76565,space,0.367945,0,119,119,151,1,0_targ_10_dist_green/trial2.png,,,0,10,greenverival,a,99,27,F,2021-02-25_22h23.59.839,exp11,2020.2.6,Win32,60,IwAR09v922AcZJCm0CH6ccaCUYaKo0m5SZsDy_MAa_u1cta1FWwMWoMLFCNxc,,,,,,,,,,,
,,,,,,,,,,,,,,a,1,0.814805,space,0.373465,0,120,120,164,1,0_targ_10_dist_green/trial15.png,,,0,10,greenverival,a,99,27,F,2021-02-25_22h23.59.839,exp11,2020.2.6,Win32,60,IwAR09v922AcZJCm0CH6ccaCUYaKo0m5SZsDy_MAa_u1cta1FWwMWoMLFCNxc,,,,,,,,,,,
,,,,,,,,,,,,,,a,1,0.70858,space,0.353735,0,121,121,112,1,0_targ_1_dist_green/trial13.png,,,0,1,greenverival,a,99,27,F,2021-02-25_22h23.59.839,exp11,2020.2.6,Win32,60,IwAR09v922AcZJCm0CH6ccaCUYaKo0m5SZsDy_MAa_u1cta1FWwMWoMLFCNxc,,,,,,,,,,,
,,,,,,,,,,,,,,p,1,0.689325,space,0.351975,0,122,122,48,1,3_dist_green/trial24.png,,,1,3,greenverival,p,99,27,F,2021-02-25_22h23.59.839,exp11,2020.2.6,Win32,60,IwAR09v922AcZJCm0CH6ccaCUYaKo0m5SZsDy_MAa_u1cta1FWwMWoMLFCNxc,,,,,,,,,,,
,,,,,,,,,,,,,,p,1,0.81177,space,0.28152,0,123,123,4,1,0_dist_green/trial5.png,,,1,0,greenverival,p,99,27,F,2021-02-25_22h23.59.839,exp11,2020.2.6,Win32,60,IwAR09v922AcZJCm0CH6ccaCUYaKo0m5SZsDy_MAa_u1cta1FWwMWoMLFCNxc,,,,,,,,,,,
,,,,,,,,,,,,,,p,1,0.68057,space,0.307865,0,124,124,62,1,9_dist_green/trial13.png,,,1,9,greenverival,p,99,27,F,2021-02-25_22h23.59.839,exp11,2020.2.6,Win32,60,IwAR09v922AcZJCm0CH6ccaCUYaKo0m5SZsDy_MAa_u1cta1FWwMWoMLFCNxc,,,,,,,,,,,
,,,,,,,,,,,,,,a,1,0.633225,space,0.41766,0,125,125,114,1,0_targ_1_dist_green/trial15.png,,,0,1,greenverival,a,99,27,F,2021-02-25_22h23.59.839,exp11,2020.2.6,Win32,60,IwAR09v922AcZJCm0CH6ccaCUYaKo0m5SZsDy_MAa_u1cta1FWwMWoMLFCNxc,,,,,,,,,,,
,,,,,,,,,,,,,,p,1,0.60263,space,0.34116,0,126,126,67,1,9_dist_green/trial18.png,,,1,9,greenverival,p,99,27,F,2021-02-25_22h23.59.839,exp11,2020.2.6,Win32,60,IwAR09v922AcZJCm0CH6ccaCUYaKo0m5SZsDy_MAa_u1cta1FWwMWoMLFCNxc,,,,,,,,,,,
,,,,,,,,,,,,,,a,1,0.737465,space,0.40332,0,127,127,144,1,0_targ_4_dist_green/trial20.png,,,0,4,greenverival,a,99,27,F,2021-02-25_22h23.59.839,exp11,2020.2.6,Win32,60,IwAR09v922AcZJCm0CH6ccaCUYaKo0m5SZsDy_MAa_u1cta1FWwMWoMLFCNxc,,,,,,,,,,,
,,,,,,,,,,,,,,a,1,1.41524,space,0.53423,0,128,128,167,1,0_targ_10_dist_green/trial18.png,,,0,10,greenverival,a,99,27,F,2021-02-25_22h23.59.839,exp11,2020.2.6,Win32,60,IwAR09v922AcZJCm0CH6ccaCUYaKo0m5SZsDy_MAa_u1cta1FWwMWoMLFCNxc,,,,,,,,,,,
,,,,,,,,,,,,,,a,1,0.66327,space,0.353975,0,129,129,119,1,0_targ_1_dist_green/trial20.png,,,0,1,greenverival,a,99,27,F,2021-02-25_22h23.59.839,exp11,2020.2.6,Win32,60,IwAR09v922AcZJCm0CH6ccaCUYaKo0m5SZsDy_MAa_u1cta1FWwMWoMLFCNxc,,,,,,,,,,,
,,,,,,,,,,,,,,a,1,0.868845,space,0.358955,0,130,130,165,1,0_targ_10_dist_green/trial16.png,,,0,10,greenverival,a,99,27,F,2021-02-25_22h23.59.839,exp11,2020.2.6,Win32,60,IwAR09v922AcZJCm0CH6ccaCUYaKo0m5SZsDy_MAa_u1cta1FWwMWoMLFCNxc,,,,,,,,,,,
,,,,,,,,,,,,,,a,1,0.825045,space,0.393865,0,131,131,193,1,0_targ_16_dist_green/trial19.png,,,0,16,greenverival,a,99,27,F,2021-02-25_22h23.59.839,exp11,2020.2.6,Win32,60,IwAR09v922AcZJCm0CH6ccaCUYaKo0m5SZsDy_MAa_u1cta1FWwMWoMLFCNxc,,,,,,,,,,,
,,,,,,,,,,,,,,p,1,0.52073,space,0.367,0,132,132,37,1,3_dist_green/trial13.png,,,1,3,greenverival,p,99,27,F,2021-02-25_22h23.59.839,exp11,2020.2.6,Win32,60,IwAR09v922AcZJCm0CH6ccaCUYaKo0m5SZsDy_MAa_u1cta1FWwMWoMLFCNxc,,,,,,,,,,,
,,,,,,,,,,,,,,p,1,0.72326,space,0.30439,0,133,133,32,1,3_dist_green/trial8.png,,,1,3,greenverival,p,99,27,F,2021-02-25_22h23.59.839,exp11,2020.2.6,Win32,60,IwAR09v922AcZJCm0CH6ccaCUYaKo0m5SZsDy_MAa_u1cta1FWwMWoMLFCNxc,,,,,,,,,,,
,,,,,,,,,,,,,,p,1,0.52553,space,0.45984,0,134,134,1,1,0_dist_green/trial2.png,,,1,0,greenverival,p,99,27,F,2021-02-25_22h23.59.839,exp11,2020.2.6,Win32,60,IwAR09v922AcZJCm0CH6ccaCUYaKo0m5SZsDy_MAa_u1cta1FWwMWoMLFCNxc,,,,,,,,,,,
,,,,,,,,,,,,,,p,1,0.506985,space,0.407275,0,135,135,6,1,0_dist_green/trial7.png,,,1,0,greenverival,p,99,27,F,2021-02-25_22h23.59.839,exp11,2020.2.6,Win32,60,IwAR09v922AcZJCm0CH6ccaCUYaKo0m5SZsDy_MAa_u1cta1FWwMWoMLFCNxc,,,,,,,,,,,
,,,,,,,,,,,,,,a,1,0.547175,space,0.413505,0,136,136,122,1,0_targ_1_dist_green/trial23.png,,,0,1,greenverival,a,99,27,F,2021-02-25_22h23.59.839,exp11,2020.2.6,Win32,60,IwAR09v922AcZJCm0CH6ccaCUYaKo0m5SZsDy_MAa_u1cta1FWwMWoMLFCNxc,,,,,,,,,,,
,,,,,,,,,,,,,,p,1,0.975485,space,0.41832,0,137,137,82,1,15_dist_green/trial8.png,,,1,15,greenverival,p,99,27,F,2021-02-25_22h23.59.839,exp11,2020.2.6,Win32,60,IwAR09v922AcZJCm0CH6ccaCUYaKo0m5SZsDy_MAa_u1cta1FWwMWoMLFCNxc,,,,,,,,,,,
,,,,,,,,,,,,,,a,1,0.95644,space,0.38143,0,138,138,170,1,0_targ_10_dist_green/trial21.png,,,0,10,greenverival,a,99,27,F,2021-02-25_22h23.59.839,exp11,2020.2.6,Win32,60,IwAR09v922AcZJCm0CH6ccaCUYaKo0m5SZsDy_MAa_u1cta1FWwMWoMLFCNxc,,,,,,,,,,,
,,,,,,,,,,,,,,a,1,0.783435,space,0.41263,0,139,139,183,1,0_targ_16_dist_green/trial9.png,,,0,16,greenverival,a,99,27,F,2021-02-25_22h23.59.839,exp11,2020.2.6,Win32,60,IwAR09v922AcZJCm0CH6ccaCUYaKo0m5SZsDy_MAa_u1cta1FWwMWoMLFCNxc,,,,,,,,,,,
,,,,,,,,,,,,,,p,1,0.59271,space,0.31882,0,140,140,34,1,3_dist_green/trial10.png,,,1,3,greenverival,p,99,27,F,2021-02-25_22h23.59.839,exp11,2020.2.6,Win32,60,IwAR09v922AcZJCm0CH6ccaCUYaKo0m5SZsDy_MAa_u1cta1FWwMWoMLFCNxc,,,,,,,,,,,
,,,,,,,,,,,,,,a,1,0.614135,space,0.48352,0,141,141,107,1,0_targ_1_dist_green/trial8.png,,,0,1,greenverival,a,99,27,F,2021-02-25_22h23.59.839,exp11,2020.2.6,Win32,60,IwAR09v922AcZJCm0CH6ccaCUYaKo0m5SZsDy_MAa_u1cta1FWwMWoMLFCNxc,,,,,,,,,,,
,,,,,,,,,,,,,,a,1,0.863225,space,0.370335,0,142,142,166,1,0_targ_10_dist_green/trial17.png,,,0,10,greenverival,a,99,27,F,2021-02-25_22h23.59.839,exp11,2020.2.6,Win32,60,IwAR09v922AcZJCm0CH6ccaCUYaKo0m5SZsDy_MAa_u1cta1FWwMWoMLFCNxc,,,,,,,,,,,
,,,,,,,,,,,,,,p,1,0.8055,space,0.32436,0,143,143,80,1,15_dist_green/trial6.png,,,1,15,greenverival,p,99,27,F,2021-02-25_22h23.59.839,exp11,2020.2.6,Win32,60,IwAR09v922AcZJCm0CH6ccaCUYaKo0m5SZsDy_MAa_u1cta1FWwMWoMLFCNxc,,,,,,,,,,,
,,,,,,,,,,,,,,a,1,0.56479,space,0.385045,0,144,144,109,1,0_targ_1_dist_green/trial10.png,,,0,1,greenverival,a,99,27,F,2021-02-25_22h23.59.839,exp11,2020.2.6,Win32,60,IwAR09v922AcZJCm0CH6ccaCUYaKo0m5SZsDy_MAa_u1cta1FWwMWoMLFCNxc,,,,,,,,,,,
,,,,,,,,,,,,,,p,1,0.70626,space,0.325885,0,145,145,28,1,3_dist_green/trial4.png,,,1,3,greenverival,p,99,27,F,2021-02-25_22h23.59.839,exp11,2020.2.6,Win32,60,IwAR09v922AcZJCm0CH6ccaCUYaKo0m5SZsDy_MAa_u1cta1FWwMWoMLFCNxc,,,,,,,,,,,
,,,,,,,,,,,,,,p,1,0.866415,space,0.298955,0,146,146,50,1,9_dist_green/trial1.png,,,1,9,greenverival,p,99,27,F,2021-02-25_22h23.59.839,exp11,2020.2.6,Win32,60,IwAR09v922AcZJCm0CH6ccaCUYaKo0m5SZsDy_MAa_u1cta1FWwMWoMLFCNxc,,,,,,,,,,,
,,,,,,,,,,,,,,p,1,0.60997,space,0.328535,0,147,147,38,1,3_dist_green/trial14.png,,,1,3,greenverival,p,99,27,F,2021-02-25_22h23.59.839,exp11,2020.2.6,Win32,60,IwAR09v922AcZJCm0CH6ccaCUYaKo0m5SZsDy_MAa_u1cta1FWwMWoMLFCNxc,,,,,,,,,,,
,,,,,,,,,,,,,,p,1,0.695295,space,0.325835,0,148,148,49,1,3_dist_green/trial25.png,,,1,3,greenverival,p,99,27,F,2021-02-25_22h23.59.839,exp11,2020.2.6,Win32,60,IwAR09v922AcZJCm0CH6ccaCUYaKo0m5SZsDy_MAa_u1cta1FWwMWoMLFCNxc,,,,,,,,,,,
,,,,,,,,,,,,,,a,1,0.796205,space,0.37303,0,149,149,191,1,0_targ_16_dist_green/trial17.png,,,0,16,greenverival,a,99,27,F,2021-02-25_22h23.59.839,exp11,2020.2.6,Win32,60,IwAR09v922AcZJCm0CH6ccaCUYaKo0m5SZsDy_MAa_u1cta1FWwMWoMLFCNxc,,,,,,,,,,,
,,,,,,,,,,,,,,p,1,0.646585,space,0.429055,0,150,150,33,1,3_dist_green/trial9.png,,,1,3,greenverival,p,99,27,F,2021-02-25_22h23.59.839,exp11,2020.2.6,Win32,60,IwAR09v922AcZJCm0CH6ccaCUYaKo0m5SZsDy_MAa_u1cta1FWwMWoMLFCNxc,,,,,,,,,,,
,,,,,,,,,,,,,,p,1,0.65401,space,0.501155,0,151,151,89,1,15_dist_green/trial15.png,,,1,15,greenverival,p,99,27,F,2021-02-25_22h23.59.839,exp11,2020.2.6,Win32,60,IwAR09v922AcZJCm0CH6ccaCUYaKo0m5SZsDy_MAa_u1cta1FWwMWoMLFCNxc,,,,,,,,,,,
,,,,,,,,,,,,,,a,1,1.368815,space,0.352765,0,152,152,175,1,0_targ_16_dist_green/trial1.png,,,0,16,greenverival,a,99,27,F,2021-02-25_22h23.59.839,exp11,2020.2.6,Win32,60,IwAR09v922AcZJCm0CH6ccaCUYaKo0m5SZsDy_MAa_u1cta1FWwMWoMLFCNxc,,,,,,,,,,,
,,,,,,,,,,,,,,a,1,0.73965,space,0.350805,0,153,153,137,1,0_targ_4_dist_green/trial13.png,,,0,4,greenverival,a,99,27,F,2021-02-25_22h23.59.839,exp11,2020.2.6,Win32,60,IwAR09v922AcZJCm0CH6ccaCUYaKo0m5SZsDy_MAa_u1cta1FWwMWoMLFCNxc,,,,,,,,,,,
,,,,,,,,,,,,,,a,1,0.590765,space,0.37265,0,154,154,135,1,0_targ_4_dist_green/trial11.png,,,0,4,greenverival,a,99,27,F,2021-02-25_22h23.59.839,exp11,2020.2.6,Win32,60,IwAR09v922AcZJCm0CH6ccaCUYaKo0m5SZsDy_MAa_u1cta1FWwMWoMLFCNxc,,,,,,,,,,,
,,,,,,,,,,,,,,a,1,0.598295,space,0.643095,0,155,155,147,1,0_targ_4_dist_green/trial23.png,,,0,4,greenverival,a,99,27,F,2021-02-25_22h23.59.839,exp11,2020.2.6,Win32,60,IwAR09v922AcZJCm0CH6ccaCUYaKo0m5SZsDy_MAa_u1cta1FWwMWoMLFCNxc,,,,,,,,,,,
,,,,,,,,,,,,,,p,1,0.90858,space,0.336495,0,156,156,77,1,15_dist_green/trial3.png,,,1,15,greenverival,p,99,27,F,2021-02-25_22h23.59.839,exp11,2020.2.6,Win32,60,IwAR09v922AcZJCm0CH6ccaCUYaKo0m5SZsDy_MAa_u1cta1FWwMWoMLFCNxc,,,,,,,,,,,
,,,,,,,,,,,,,,p,1,0.51792,space,0.355135,0,157,157,14,1,0_dist_green/trial15.png,,,1,0,greenverival,p,99,27,F,2021-02-25_22h23.59.839,exp11,2020.2.6,Win32,60,IwAR09v922AcZJCm0CH6ccaCUYaKo0m5SZsDy_MAa_u1cta1FWwMWoMLFCNxc,,,,,,,,,,,
,,,,,,,,,,,,,,p,0,0.48124,space,5.035215,0,158,158,125,1,0_targ_4_dist_green/trial1.png,,,0,4,greenverival,a,99,27,F,2021-02-25_22h23.59.839,exp11,2020.2.6,Win32,60,IwAR09v922AcZJCm0CH6ccaCUYaKo0m5SZsDy_MAa_u1cta1FWwMWoMLFCNxc,,,,,,,,,,,
,,,,,,,,,,,,,,p,1,0.93143,space,0.25793,0,159,159,90,1,15_dist_green/trial16.png,,,1,15,greenverival,p,99,27,F,2021-02-25_22h23.59.839,exp11,2020.2.6,Win32,60,IwAR09v922AcZJCm0CH6ccaCUYaKo0m5SZsDy_MAa_u1cta1FWwMWoMLFCNxc,,,,,,,,,,,
,,,,,,,,,,,,,,p,1,0.964725,space,0.273305,0,160,160,84,1,15_dist_green/trial10.png,,,1,15,greenverival,p,99,27,F,2021-02-25_22h23.59.839,exp11,2020.2.6,Win32,60,IwAR09v922AcZJCm0CH6ccaCUYaKo0m5SZsDy_MAa_u1cta1FWwMWoMLFCNxc,,,,,,,,,,,
,,,,,,,,,,,,,,a,1,0.952745,space,0.376025,0,161,161,153,1,0_targ_10_dist_green/trial4.png,,,0,10,greenverival,a,99,27,F,2021-02-25_22h23.59.839,exp11,2020.2.6,Win32,60,IwAR09v922AcZJCm0CH6ccaCUYaKo0m5SZsDy_MAa_u1cta1FWwMWoMLFCNxc,,,,,,,,,,,
,,,,,,,,,,,,,,a,1,0.85249,space,0.393525,0,162,162,157,1,0_targ_10_dist_green/trial8.png,,,0,10,greenverival,a,99,27,F,2021-02-25_22h23.59.839,exp11,2020.2.6,Win32,60,IwAR09v922AcZJCm0CH6ccaCUYaKo0m5SZsDy_MAa_u1cta1FWwMWoMLFCNxc,,,,,,,,,,,
,,,,,,,,,,,,,,a,1,0.564415,space,0.420075,0,163,163,134,1,0_targ_4_dist_green/trial10.png,,,0,4,greenverival,a,99,27,F,2021-02-25_22h23.59.839,exp11,2020.2.6,Win32,60,IwAR09v922AcZJCm0CH6ccaCUYaKo0m5SZsDy_MAa_u1cta1FWwMWoMLFCNxc,,,,,,,,,,,
,,,,,,,,,,,,,,a,1,0.702775,space,0.38666,0,164,164,121,1,0_targ_1_dist_green/trial22.png,,,0,1,greenverival,a,99,27,F,2021-02-25_22h23.59.839,exp11,2020.2.6,Win32,60,IwAR09v922AcZJCm0CH6ccaCUYaKo0m5SZsDy_MAa_u1cta1FWwMWoMLFCNxc,,,,,,,,,,,
,,,,,,,,,,,,,,p,1,0.60161,space,0.3765,0,165,165,74,1,9_dist_green/trial25.png,,,1,9,greenverival,p,99,27,F,2021-02-25_22h23.59.839,exp11,2020.2.6,Win32,60,IwAR09v922AcZJCm0CH6ccaCUYaKo0m5SZsDy_MAa_u1cta1FWwMWoMLFCNxc,,,,,,,,,,,
,,,,,,,,,,,,,,p,1,0.6153,space,0.353045,0,166,166,65,1,9_dist_green/trial16.png,,,1,9,greenverival,p,99,27,F,2021-02-25_22h23.59.839,exp11,2020.2.6,Win32,60,IwAR09v922AcZJCm0CH6ccaCUYaKo0m5SZsDy_MAa_u1cta1FWwMWoMLFCNxc,,,,,,,,,,,
,,,,,,,,,,,,,,a,1,0.60511,space,0.41907,0,167,167,101,1,0_targ_1_dist_green/trial2.png,,,0,1,greenverival,a,99,27,F,2021-02-25_22h23.59.839,exp11,2020.2.6,Win32,60,IwAR09v922AcZJCm0CH6ccaCUYaKo0m5SZsDy_MAa_u1cta1FWwMWoMLFCNxc,,,,,,,,,,,
,,,,,,,,,,,,,,a,1,1.328425,space,0.42473,0,168,168,168,1,0_targ_10_dist_green/trial19.png,,,0,10,greenverival,a,99,27,F,2021-02-25_22h23.59.839,exp11,2020.2.6,Win32,60,IwAR09v922AcZJCm0CH6ccaCUYaKo0m5SZsDy_MAa_u1cta1FWwMWoMLFCNxc,,,,,,,,,,,
,,,,,,,,,,,,,,p,1,0.780785,space,0.343735,0,169,169,51,1,9_dist_green/trial2.png,,,1,9,greenverival,p,99,27,F,2021-02-25_22h23.59.839,exp11,2020.2.6,Win32,60,IwAR09v922AcZJCm0CH6ccaCUYaKo0m5SZsDy_MAa_u1cta1FWwMWoMLFCNxc,,,,,,,,,,,
,,,,,,,,,,,,,,a,1,0.781795,space,0.446825,0,170,170,136,1,0_targ_4_dist_green/trial12.png,,,0,4,greenverival,a,99,27,F,2021-02-25_22h23.59.839,exp11,2020.2.6,Win32,60,IwAR09v922AcZJCm0CH6ccaCUYaKo0m5SZsDy_MAa_u1cta1FWwMWoMLFCNxc,,,,,,,,,,,
,,,,,,,,,,,,,,p,1,0.779635,space,0.983235,0,171,171,52,1,9_dist_green/trial3.png,,,1,9,greenverival,p,99,27,F,2021-02-25_22h23.59.839,exp11,2020.2.6,Win32,60,IwAR09v922AcZJCm0CH6ccaCUYaKo0m5SZsDy_MAa_u1cta1FWwMWoMLFCNxc,,,,,,,,,,,
,,,,,,,,,,,,,,p,1,0.89064,space,0.334855,0,172,172,54,1,9_dist_green/trial5.png,,,1,9,greenverival,p,99,27,F,2021-02-25_22h23.59.839,exp11,2020.2.6,Win32,60,IwAR09v922AcZJCm0CH6ccaCUYaKo0m5SZsDy_MAa_u1cta1FWwMWoMLFCNxc,,,,,,,,,,,
,,,,,,,,,,,,,,p,1,0.623675,space,0.39332,0,173,173,63,1,9_dist_green/trial14.png,,,1,9,greenverival,p,99,27,F,2021-02-25_22h23.59.839,exp11,2020.2.6,Win32,60,IwAR09v922AcZJCm0CH6ccaCUYaKo0m5SZsDy_MAa_u1cta1FWwMWoMLFCNxc,,,,,,,,,,,
,,,,,,,,,,,,,,a,1,0.6939,space,0.368775,0,174,174,129,1,0_targ_4_dist_green/trial5.png,,,0,4,greenverival,a,99,27,F,2021-02-25_22h23.59.839,exp11,2020.2.6,Win32,60,IwAR09v922AcZJCm0CH6ccaCUYaKo0m5SZsDy_MAa_u1cta1FWwMWoMLFCNxc,,,,,,,,,,,
,,,,,,,,,,,,,,p,1,0.720305,space,0.28988,0,175,175,45,1,3_dist_green/trial21.png,,,1,3,greenverival,p,99,27,F,2021-02-25_22h23.59.839,exp11,2020.2.6,Win32,60,IwAR09v922AcZJCm0CH6ccaCUYaKo0m5SZsDy_MAa_u1cta1FWwMWoMLFCNxc,,,,,,,,,,,
,,,,,,,,,,,,,,a,1,0.83105,space,0.371955,0,176,176,178,1,0_targ_16_dist_green/trial4.png,,,0,16,greenverival,a,99,27,F,2021-02-25_22h23.59.839,exp11,2020.2.6,Win32,60,IwAR09v922AcZJCm0CH6ccaCUYaKo0m5SZsDy_MAa_u1cta1FWwMWoMLFCNxc,,,,,,,,,,,
,,,,,,,,,,,,,,p,1,0.64395,space,0.39031,0,177,177,40,1,3_dist_green/trial16.png,,,1,3,greenverival,p,99,27,F,2021-02-25_22h23.59.839,exp11,2020.2.6,Win32,60,IwAR09v922AcZJCm0CH6ccaCUYaKo0m5SZsDy_MAa_u1cta1FWwMWoMLFCNxc,,,,,,,,,,,
,,,,,,,,,,,,,,p,1,0.659445,space,0.34106,0,178,178,94,1,15_dist_green/trial20.png,,,1,15,greenverival,p,99,27,F,2021-02-25_22h23.59.839,exp11,2020.2.6,Win32,60,IwAR09v922AcZJCm0CH6ccaCUYaKo0m5SZsDy_MAa_u1cta1FWwMWoMLFCNxc,,,,,,,,,,,
,,,,,,,,,,,,,,a,1,0.610425,space,0.38533,0,179,179,123,1,0_targ_1_dist_green/trial24.png,,,0,1,greenverival,a,99,27,F,2021-02-25_22h23.59.839,exp11,2020.2.6,Win32,60,IwAR09v922AcZJCm0CH6ccaCUYaKo0m5SZsDy_MAa_u1cta1FWwMWoMLFCNxc,,,,,,,,,,,
,,,,,,,,,,,,,,a,1,0.63469,space,0.36857,0,180,180,143,1,0_targ_4_dist_green/trial19.png,,,0,4,greenverival,a,99,27,F,2021-02-25_22h23.59.839,exp11,2020.2.6,Win32,60,IwAR09v922AcZJCm0CH6ccaCUYaKo0m5SZsDy_MAa_u1cta1FWwMWoMLFCNxc,,,,,,,,,,,
,,,,,,,,,,,,,,a,1,1.514355,space,0.392035,0,181,181,189,1,0_targ_16_dist_green/trial15.png,,,0,16,greenverival,a,99,27,F,2021-02-25_22h23.59.839,exp11,2020.2.6,Win32,60,IwAR09v922AcZJCm0CH6ccaCUYaKo0m5SZsDy_MAa_u1cta1FWwMWoMLFCNxc,,,,,,,,,,,
,,,,,,,,,,,,,,p,1,0.597845,space,0.326715,0,182,182,15,1,0_dist_green/trial16.png,,,1,0,greenverival,p,99,27,F,2021-02-25_22h23.59.839,exp11,2020.2.6,Win32,60,IwAR09v922AcZJCm0CH6ccaCUYaKo0m5SZsDy_MAa_u1cta1FWwMWoMLFCNxc,,,,,,,,,,,
,,,,,,,,,,,,,,a,1,0.68549,space,0.379065,0,183,183,161,1,0_targ_10_dist_green/trial12.png,,,0,10,greenverival,a,99,27,F,2021-02-25_22h23.59.839,exp11,2020.2.6,Win32,60,IwAR09v922AcZJCm0CH6ccaCUYaKo0m5SZsDy_MAa_u1cta1FWwMWoMLFCNxc,,,,,,,,,,,
,,,,,,,,,,,,,,p,1,0.73229,space,0.40181,0,184,184,98,1,15_dist_green/trial24.png,,,1,15,greenverival,p,99,27,F,2021-02-25_22h23.59.839,exp11,2020.2.6,Win32,60,IwAR09v922AcZJCm0CH6ccaCUYaKo0m5SZsDy_MAa_u1cta1FWwMWoMLFCNxc,,,,,,,,,,,
,,,,,,,,,,,,,,p,1,0.97515,space,0.30272,0,185,185,96,1,15_dist_green/trial22.png,,,1,15,greenverival,p,99,27,F,2021-02-25_22h23.59.839,exp11,2020.2.6,Win32,60,IwAR09v922AcZJCm0CH6ccaCUYaKo0m5SZsDy_MAa_u1cta1FWwMWoMLFCNxc,,,,,,,,,,,
,,,,,,,,,,,,,,a,1,0.808185,space,0.392655,0,186,186,188,1,0_targ_16_dist_green/trial14.png,,,0,16,greenverival,a,99,27,F,2021-02-25_22h23.59.839,exp11,2020.2.6,Win32,60,IwAR09v922AcZJCm0CH6ccaCUYaKo0m5SZsDy_MAa_u1cta1FWwMWoMLFCNxc,,,,,,,,,,,
,,,,,,,,,,,,,,p,1,0.730955,space,0.333055,0,187,187,36,1,3_dist_green/trial12.png,,,1,3,greenverival,p,99,27,F,2021-02-25_22h23.59.839,exp11,2020.2.6,Win32,60,IwAR09v922AcZJCm0CH6ccaCUYaKo0m5SZsDy_MAa_u1cta1FWwMWoMLFCNxc,,,,,,,,,,,
,,,,,,,,,,,,,,a,1,0.77697,space,0.400985,0,188,188,117,1,0_targ_1_dist_green/trial18.png,,,0,1,greenverival,a,99,27,F,2021-02-25_22h23.59.839,exp11,2020.2.6,Win32,60,IwAR09v922AcZJCm0CH6ccaCUYaKo0m5SZsDy_MAa_u1cta1FWwMWoMLFCNxc,,,,,,,,,,,
,,,,,,,,,,,,,,p,1,0.865145,space,0.35887,0,189,189,56,1,9_dist_green/trial7.png,,,1,9,greenverival,p,99,27,F,2021-02-25_22h23.59.839,exp11,2020.2.6,Win32,60,IwAR09v922AcZJCm0CH6ccaCUYaKo0m5SZsDy_MAa_u1cta1FWwMWoMLFCNxc,,,,,,,,,,,
,,,,,,,,,,,,,,p,1,0.65944,space,0.330695,0,190,190,13,1,0_dist_green/trial14.png,,,1,0,greenverival,p,99,27,F,2021-02-25_22h23.59.839,exp11,2020.2.6,Win32,60,IwAR09v922AcZJCm0CH6ccaCUYaKo0m5SZsDy_MAa_u1cta1FWwMWoMLFCNxc,,,,,,,,,,,
,,,,,,,,,,,,,,p,1,0.81113,space,0.30097,0,191,191,55,1,9_dist_green/trial6.png,,,1,9,greenverival,p,99,27,F,2021-02-25_22h23.59.839,exp11,2020.2.6,Win32,60,IwAR09v922AcZJCm0CH6ccaCUYaKo0m5SZsDy_MAa_u1cta1FWwMWoMLFCNxc,,,,,,,,,,,
,,,,,,,,,,,,,,a,1,0.67712,space,0.366055,0,192,192,148,1,0_targ_4_dist_green/trial24.png,,,0,4,greenverival,a,99,27,F,2021-02-25_22h23.59.839,exp11,2020.2.6,Win32,60,IwAR09v922AcZJCm0CH6ccaCUYaKo0m5SZsDy_MAa_u1cta1FWwMWoMLFCNxc,,,,,,,,,,,
,,,,,,,,,,,,,,p,1,0.775795,space,0.338165,0,193,193,83,1,15_dist_green/trial9.png,,,1,15,greenverival,p,99,27,F,2021-02-25_22h23.59.839,exp11,2020.2.6,Win32,60,IwAR09v922AcZJCm0CH6ccaCUYaKo0m5SZsDy_MAa_u1cta1FWwMWoMLFCNxc,,,,,,,,,,,
,,,,,,,,,,,,,,a,1,0.69439,space,0.38275,0,194,194,130,1,0_targ_4_dist_green/trial6.png,,,0,4,greenverival,a,99,27,F,2021-02-25_22h23.59.839,exp11,2020.2.6,Win32,60,IwAR09v922AcZJCm0CH6ccaCUYaKo0m5SZsDy_MAa_u1cta1FWwMWoMLFCNxc,,,,,,,,,,,
,,,,,,,,,,,,,,a,1,0.598575,space,0.417975,0,195,195,103,1,0_targ_1_dist_green/trial4.png,,,0,1,greenverival,a,99,27,F,2021-02-25_22h23.59.839,exp11,2020.2.6,Win32,60,IwAR09v922AcZJCm0CH6ccaCUYaKo0m5SZsDy_MAa_u1cta1FWwMWoMLFCNxc,,,,,,,,,,,
,,,,,,,,,,,,,,p,1,0.642925,space,0.36923,0,196,196,24,1,0_dist_green/trial25.png,,,1,0,greenverival,p,99,27,F,2021-02-25_22h23.59.839,exp11,2020.2.6,Win32,60,IwAR09v922AcZJCm0CH6ccaCUYaKo0m5SZsDy_MAa_u1cta1FWwMWoMLFCNxc,,,,,,,,,,,
,,,,,,,,,,,,,,a,1,0.725375,space,0.404445,0,197,197,155,1,0_targ_10_dist_green/trial6.png,,,0,10,greenverival,a,99,27,F,2021-02-25_22h23.59.839,exp11,2020.2.6,Win32,60,IwAR09v922AcZJCm0CH6ccaCUYaKo0m5SZsDy_MAa_u1cta1FWwMWoMLFCNxc,,,,,,,,,,,
,,,,,,,,,,,,,,p,0,1.64251,space,2.241515,0,198,198,186,1,0_targ_16_dist_green/trial12.png,,,0,16,greenverival,a,99,27,F,2021-02-25_22h23.59.839,exp11,2020.2.6,Win32,60,IwAR09v922AcZJCm0CH6ccaCUYaKo0m5SZsDy_MAa_u1cta1FWwMWoMLFCNxc,,,,,,,,,,,
,,,,,,,,,,,,,,a,1,3.341805,space,0.383635,0,199,199,111,1,0_targ_1_dist_green/trial12.png,,,0,1,greenverival,a,99,27,F,2021-02-25_22h23.59.839,exp11,2020.2.6,Win32,60,IwAR09v922AcZJCm0CH6ccaCUYaKo0m5SZsDy_MAa_u1cta1FWwMWoMLFCNxc,,,,,,,,,,,
,,,,,,,,,,,,,,,,,,,,,,,,,,,,,,,99,27,F,2021-02-25_22h23.59.839,exp11,2020.2.6,Win32,60,IwAR09v922AcZJCm0CH6ccaCUYaKo0m5SZsDy_MAa_u1cta1FWwMWoMLFCNxc,0,0,0,0,1,conGreen.xlsx,green vertical,Look for green vertical bar (target) and indicate if it is present or absent in the array. If green vertical target is present press 'p' and if absent press 'a'. Press SPACE to start.,,,
,,,,,,,,,,space,12.423045,space,0.981,a,1,1.440585,space,0.334745,0,0,0,161,1,0_targ_10_dist_red/trial12.png,,,0,10,redHorizontal,a,99,27,F,2021-02-25_22h23.59.839,exp11,2020.2.6,Win32,60,IwAR09v922AcZJCm0CH6ccaCUYaKo0m5SZsDy_MAa_u1cta1FWwMWoMLFCNxc,,,,,,,,,,,
,,,,,,,,,,,,,,a,1,0.676465,space,0.336695,0,1,1,132,1,0_targ_4_dist_red/trial8.png,,,0,4,redHorizontal,a,99,27,F,2021-02-25_22h23.59.839,exp11,2020.2.6,Win32,60,IwAR09v922AcZJCm0CH6ccaCUYaKo0m5SZsDy_MAa_u1cta1FWwMWoMLFCNxc,,,,,,,,,,,
,,,,,,,,,,,,,,p,1,0.55889,space,0.38295,0,2,2,60,1,9_dist_red/trial11.png,,,1,9,redHorizontal,p,99,27,F,2021-02-25_22h23.59.839,exp11,2020.2.6,Win32,60,IwAR09v922AcZJCm0CH6ccaCUYaKo0m5SZsDy_MAa_u1cta1FWwMWoMLFCNxc,,,,,,,,,,,
,,,,,,,,,,,,,,p,1,2.96009,space,0.385525,0,3,3,54,1,9_dist_red/trial5.png,,,1,9,redHorizontal,p,99,27,F,2021-02-25_22h23.59.839,exp11,2020.2.6,Win32,60,IwAR09v922AcZJCm0CH6ccaCUYaKo0m5SZsDy_MAa_u1cta1FWwMWoMLFCNxc,,,,,,,,,,,
,,,,,,,,,,,,,,p,1,0.661525,space,0.37736,0,4,4,93,1,15_dist_red/trial19.png,,,1,15,redHorizontal,p,99,27,F,2021-02-25_22h23.59.839,exp11,2020.2.6,Win32,60,IwAR09v922AcZJCm0CH6ccaCUYaKo0m5SZsDy_MAa_u1cta1FWwMWoMLFCNxc,,,,,,,,,,,
,,,,,,,,,,,,,,a,1,0.652135,space,0.33335,0,5,5,143,1,0_targ_4_dist_red/trial19.png,,,0,4,redHorizontal,a,99,27,F,2021-02-25_22h23.59.839,exp11,2020.2.6,Win32,60,IwAR09v922AcZJCm0CH6ccaCUYaKo0m5SZsDy_MAa_u1cta1FWwMWoMLFCNxc,,,,,,,,,,,
,,,,,,,,,,,,,,p,1,0.537635,space,0.388495,0,6,6,96,1,15_dist_red/trial22.png,,,1,15,redHorizontal,p,99,27,F,2021-02-25_22h23.59.839,exp11,2020.2.6,Win32,60,IwAR09v922AcZJCm0CH6ccaCUYaKo0m5SZsDy_MAa_u1cta1FWwMWoMLFCNxc,,,,,,,,,,,
,,,,,,,,,,,,,,a,1,0.63817,space,0.365695,0,7,7,144,1,0_targ_4_dist_red/trial20.png,,,0,4,redHorizontal,a,99,27,F,2021-02-25_22h23.59.839,exp11,2020.2.6,Win32,60,IwAR09v922AcZJCm0CH6ccaCUYaKo0m5SZsDy_MAa_u1cta1FWwMWoMLFCNxc,,,,,,,,,,,
,,,,,,,,,,,,,,p,1,0.74837,space,0.370765,0,8,8,87,1,15_dist_red/trial13.png,,,1,15,redHorizontal,p,99,27,F,2021-02-25_22h23.59.839,exp11,2020.2.6,Win32,60,IwAR09v922AcZJCm0CH6ccaCUYaKo0m5SZsDy_MAa_u1cta1FWwMWoMLFCNxc,,,,,,,,,,,
,,,,,,,,,,,,,,a,1,0.640265,space,0.38192,0,9,9,109,1,0_targ_1_dist_red/trial10.png,,,0,1,redHorizontal,a,99,27,F,2021-02-25_22h23.59.839,exp11,2020.2.6,Win32,60,IwAR09v922AcZJCm0CH6ccaCUYaKo0m5SZsDy_MAa_u1cta1FWwMWoMLFCNxc,,,,,,,,,,,
,,,,,,,,,,,,,,a,1,0.63779,space,0.37737,0,10,10,165,1,0_targ_10_dist_red/trial16.png,,,0,10,redHorizontal,a,99,27,F,2021-02-25_22h23.59.839,exp11,2020.2.6,Win32,60,IwAR09v922AcZJCm0CH6ccaCUYaKo0m5SZsDy_MAa_u1cta1FWwMWoMLFCNxc,,,,,,,,,,,
,,,,,,,,,,,,,,p,1,0.877565,space,0.38741,0,11,11,82,1,15_dist_red/trial8.png,,,1,15,redHorizontal,p,99,27,F,2021-02-25_22h23.59.839,exp11,2020.2.6,Win32,60,IwAR09v922AcZJCm0CH6ccaCUYaKo0m5SZsDy_MAa_u1cta1FWwMWoMLFCNxc,,,,,,,,,,,
,,,,,,,,,,,,,,p,1,1.00549,space,0.35283,0,12,12,86,1,15_dist_red/trial12.png,,,1,15,redHorizontal,p,99,27,F,2021-02-25_22h23.59.839,exp11,2020.2.6,Win32,60,IwAR09v922AcZJCm0CH6ccaCUYaKo0m5SZsDy_MAa_u1cta1FWwMWoMLFCNxc,,,,,,,,,,,
,,,,,,,,,,,,,,p,1,0.8164,space,0.35138,0,13,13,64,1,9_dist_red/trial15.png,,,1,9,redHorizontal,p,99,27,F,2021-02-25_22h23.59.839,exp11,2020.2.6,Win32,60,IwAR09v922AcZJCm0CH6ccaCUYaKo0m5SZsDy_MAa_u1cta1FWwMWoMLFCNxc,,,,,,,,,,,
,,,,,,,,,,,,,,p,1,0.833195,space,0.32307,0,14,14,51,1,9_dist_red/trial2.png,,,1,9,redHorizontal,p,99,27,F,2021-02-25_22h23.59.839,exp11,2020.2.6,Win32,60,IwAR09v922AcZJCm0CH6ccaCUYaKo0m5SZsDy_MAa_u1cta1FWwMWoMLFCNxc,,,,,,,,,,,
,,,,,,,,,,,,,,p,1,0.607195,space,0.49414,0,15,15,38,1,3_dist_red/trial14.png,,,1,3,redHorizontal,p,99,27,F,2021-02-25_22h23.59.839,exp11,2020.2.6,Win32,60,IwAR09v922AcZJCm0CH6ccaCUYaKo0m5SZsDy_MAa_u1cta1FWwMWoMLFCNxc,,,,,,,,,,,
,,,,,,,,,,,,,,p,1,0.582445,space,0.434735,0,16,16,4,1,0_dist_red/trial5.png,,,1,0,redHorizontal,p,99,27,F,2021-02-25_22h23.59.839,exp11,2020.2.6,Win32,60,IwAR09v922AcZJCm0CH6ccaCUYaKo0m5SZsDy_MAa_u1cta1FWwMWoMLFCNxc,,,,,,,,,,,
,,,,,,,,,,,,,,a,1,0.895155,space,0.386145,0,17,17,179,1,0_targ_16_dist_red/trial5.png,,,0,16,redHorizontal,a,99,27,F,2021-02-25_22h23.59.839,exp11,2020.2.6,Win32,60,IwAR09v922AcZJCm0CH6ccaCUYaKo0m5SZsDy_MAa_u1cta1FWwMWoMLFCNxc,,,,,,,,,,,
,,,,,,,,,,,,,,a,1,0.78642,space,0.388215,0,18,18,167,1,0_targ_10_dist_red/trial18.png,,,0,10,redHorizontal,a,99,27,F,2021-02-25_22h23.59.839,exp11,2020.2.6,Win32,60,IwAR09v922AcZJCm0CH6ccaCUYaKo0m5SZsDy_MAa_u1cta1FWwMWoMLFCNxc,,,,,,,,,,,
,,,,,,,,,,,,,,a,1,0.58493,space,0.541295,0,19,19,134,1,0_targ_4_dist_red/trial10.png,,,0,4,redHorizontal,a,99,27,F,2021-02-25_22h23.59.839,exp11,2020.2.6,Win32,60,IwAR09v922AcZJCm0CH6ccaCUYaKo0m5SZsDy_MAa_u1cta1FWwMWoMLFCNxc,,,,,,,,,,,
,,,,,,,,,,,,,,p,1,1.04088,space,0.400455,0,20,20,39,1,3_dist_red/trial15.png,,,1,3,redHorizontal,p,99,27,F,2021-02-25_22h23.59.839,exp11,2020.2.6,Win32,60,IwAR09v922AcZJCm0CH6ccaCUYaKo0m5SZsDy_MAa_u1cta1FWwMWoMLFCNxc,,,,,,,,,,,
,,,,,,,,,,,,,,a,1,0.863615,space,0.37353,0,21,21,136,1,0_targ_4_dist_red/trial12.png,,,0,4,redHorizontal,a,99,27,F,2021-02-25_22h23.59.839,exp11,2020.2.6,Win32,60,IwAR09v922AcZJCm0CH6ccaCUYaKo0m5SZsDy_MAa_u1cta1FWwMWoMLFCNxc,,,,,,,,,,,
,,,,,,,,,,,,,,a,1,0.710855,space,0.45891,0,22,22,152,1,0_targ_10_dist_red/trial3.png,,,0,10,redHorizontal,a,99,27,F,2021-02-25_22h23.59.839,exp11,2020.2.6,Win32,60,IwAR09v922AcZJCm0CH6ccaCUYaKo0m5SZsDy_MAa_u1cta1FWwMWoMLFCNxc,,,,,,,,,,,
,,,,,,,,,,,,,,a,1,0.9224,space,0.408,0,23,23,185,1,0_targ_16_dist_red/trial11.png,,,0,16,redHorizontal,a,99,27,F,2021-02-25_22h23.59.839,exp11,2020.2.6,Win32,60,IwAR09v922AcZJCm0CH6ccaCUYaKo0m5SZsDy_MAa_u1cta1FWwMWoMLFCNxc,,,,,,,,,,,
,,,,,,,,,,,,,,a,1,0.84003,space,0.40152,0,24,24,103,1,0_targ_1_dist_red/trial4.png,,,0,1,redHorizontal,a,99,27,F,2021-02-25_22h23.59.839,exp11,2020.2.6,Win32,60,IwAR09v922AcZJCm0CH6ccaCUYaKo0m5SZsDy_MAa_u1cta1FWwMWoMLFCNxc,,,,,,,,,,,
,,,,,,,,,,,,,,p,1,0.610485,space,0.441545,0,25,25,56,1,9_dist_red/trial7.png,,,1,9,redHorizontal,p,99,27,F,2021-02-25_22h23.59.839,exp11,2020.2.6,Win32,60,IwAR09v922AcZJCm0CH6ccaCUYaKo0m5SZsDy_MAa_u1cta1FWwMWoMLFCNxc,,,,,,,,,,,
,,,,,,,,,,,,,,p,1,0.71443,space,0.47071,0,26,26,50,1,9_dist_red/trial1.png,,,1,9,redHorizontal,p,99,27,F,2021-02-25_22h23.59.839,exp11,2020.2.6,Win32,60,IwAR09v922AcZJCm0CH6ccaCUYaKo0m5SZsDy_MAa_u1cta1FWwMWoMLFCNxc,,,,,,,,,,,
,,,,,,,,,,,,,,p,1,0.64638,space,0.485375,0,27,27,42,1,3_dist_red/trial18.png,,,1,3,redHorizontal,p,99,27,F,2021-02-25_22h23.59.839,exp11,2020.2.6,Win32,60,IwAR09v922AcZJCm0CH6ccaCUYaKo0m5SZsDy_MAa_u1cta1FWwMWoMLFCNxc,,,,,,,,,,,
,,,,,,,,,,,,,,p,1,0.707995,space,0.752025,0,28,28,40,1,3_dist_red/trial16.png,,,1,3,redHorizontal,p,99,27,F,2021-02-25_22h23.59.839,exp11,2020.2.6,Win32,60,IwAR09v922AcZJCm0CH6ccaCUYaKo0m5SZsDy_MAa_u1cta1FWwMWoMLFCNxc,,,,,,,,,,,
,,,,,,,,,,,,,,a,1,0.743715,space,0.456725,0,29,29,125,1,0_targ_4_dist_red/trial1.png,,,0,4,redHorizontal,a,99,27,F,2021-02-25_22h23.59.839,exp11,2020.2.6,Win32,60,IwAR09v922AcZJCm0CH6ccaCUYaKo0m5SZsDy_MAa_u1cta1FWwMWoMLFCNxc,,,,,,,,,,,
,,,,,,,,,,,,,,p,1,0.723655,space,0.45216,0,30,30,35,1,3_dist_red/trial11.png,,,1,3,redHorizontal,p,99,27,F,2021-02-25_22h23.59.839,exp11,2020.2.6,Win32,60,IwAR09v922AcZJCm0CH6ccaCUYaKo0m5SZsDy_MAa_u1cta1FWwMWoMLFCNxc,,,,,,,,,,,
,,,,,,,,,,,,,,p,1,0.86016,space,0.332435,0,31,31,32,1,3_dist_red/trial8.png,,,1,3,redHorizontal,p,99,27,F,2021-02-25_22h23.59.839,exp11,2020.2.6,Win32,60,IwAR09v922AcZJCm0CH6ccaCUYaKo0m5SZsDy_MAa_u1cta1FWwMWoMLFCNxc,,,,,,,,,,,
,,,,,,,,,,,,,,p,1,0.56262,space,0.383835,0,32,32,19,1,0_dist_red/trial20.png,,,1,0,redHorizontal,p,99,27,F,2021-02-25_22h23.59.839,exp11,2020.2.6,Win32,60,IwAR09v922AcZJCm0CH6ccaCUYaKo0m5SZsDy_MAa_u1cta1FWwMWoMLFCNxc,,,,,,,,,,,
,,,,,,,,,,,,,,a,1,0.577525,space,0.42489,0,33,33,107,1,0_targ_1_dist_red/trial8.png,,,0,1,redHorizontal,a,99,27,F,2021-02-25_22h23.59.839,exp11,2020.2.6,Win32,60,IwAR09v922AcZJCm0CH6ccaCUYaKo0m5SZsDy_MAa_u1cta1FWwMWoMLFCNxc,,,,,,,,,,,
,,,,,,,,,,,,,,a,1,1.09924,space,0.34537,0,34,34,189,1,0_targ_16_dist_red/trial15.png,,,0,16,redHorizontal,a,99,27,F,2021-02-25_22h23.59.839,exp11,2020.2.6,Win32,60,IwAR09v922AcZJCm0CH6ccaCUYaKo0m5SZsDy_MAa_u1cta1FWwMWoMLFCNxc,,,,,,,,,,,
,,,,,,,,,,,,,,a,1,0.69611,space,0.47039,0,35,35,166,1,0_targ_10_dist_red/trial17.png,,,0,10,redHorizontal,a,99,27,F,2021-02-25_22h23.59.839,exp11,2020.2.6,Win32,60,IwAR09v922AcZJCm0CH6ccaCUYaKo0m5SZsDy_MAa_u1cta1FWwMWoMLFCNxc,,,,,,,,,,,
,,,,,,,,,,,,,,p,1,0.54712,space,0.506,0,36,36,43,1,3_dist_red/trial19.png,,,1,3,redHorizontal,p,99,27,F,2021-02-25_22h23.59.839,exp11,2020.2.6,Win32,60,IwAR09v922AcZJCm0CH6ccaCUYaKo0m5SZsDy_MAa_u1cta1FWwMWoMLFCNxc,,,,,,,,,,,
,,,,,,,,,,,,,,p,1,0.502105,space,0.500255,0,37,37,17,1,0_dist_red/trial18.png,,,1,0,redHorizontal,p,99,27,F,2021-02-25_22h23.59.839,exp11,2020.2.6,Win32,60,IwAR09v922AcZJCm0CH6ccaCUYaKo0m5SZsDy_MAa_u1cta1FWwMWoMLFCNxc,,,,,,,,,,,
,,,,,,,,,,,,,,p,1,0.79584,space,0.31579,0,38,38,3,1,0_dist_red/trial4.png,,,1,0,redHorizontal,p,99,27,F,2021-02-25_22h23.59.839,exp11,2020.2.6,Win32,60,IwAR09v922AcZJCm0CH6ccaCUYaKo0m5SZsDy_MAa_u1cta1FWwMWoMLFCNxc,,,,,,,,,,,
,,,,,,,,,,,,,,a,1,0.879045,space,0.420535,0,39,39,181,1,0_targ_16_dist_red/trial7.png,,,0,16,redHorizontal,a,99,27,F,2021-02-25_22h23.59.839,exp11,2020.2.6,Win32,60,IwAR09v922AcZJCm0CH6ccaCUYaKo0m5SZsDy_MAa_u1cta1FWwMWoMLFCNxc,,,,,,,,,,,
,,,,,,,,,,,,,,p,1,0.62718,space,0.454945,0,40,40,11,1,0_dist_red/trial12.png,,,1,0,redHorizontal,p,99,27,F,2021-02-25_22h23.59.839,exp11,2020.2.6,Win32,60,IwAR09v922AcZJCm0CH6ccaCUYaKo0m5SZsDy_MAa_u1cta1FWwMWoMLFCNxc,,,,,,,,,,,
,,,,,,,,,,,,,,p,1,0.74487,space,0.435835,0,41,41,90,1,15_dist_red/trial16.png,,,1,15,redHorizontal,p,99,27,F,2021-02-25_22h23.59.839,exp11,2020.2.6,Win32,60,IwAR09v922AcZJCm0CH6ccaCUYaKo0m5SZsDy_MAa_u1cta1FWwMWoMLFCNxc,,,,,,,,,,,
,,,,,,,,,,,,,,p,1,0.69126,space,0.436495,0,42,42,91,1,15_dist_red/trial17.png,,,1,15,redHorizontal,p,99,27,F,2021-02-25_22h23.59.839,exp11,2020.2.6,Win32,60,IwAR09v922AcZJCm0CH6ccaCUYaKo0m5SZsDy_MAa_u1cta1FWwMWoMLFCNxc,,,,,,,,,,,
,,,,,,,,,,,,,,a,1,0.80429,space,0.443095,0,43,43,195,1,0_targ_16_dist_red/trial21.png,,,0,16,redHorizontal,a,99,27,F,2021-02-25_22h23.59.839,exp11,2020.2.6,Win32,60,IwAR09v922AcZJCm0CH6ccaCUYaKo0m5SZsDy_MAa_u1cta1FWwMWoMLFCNxc,,,,,,,,,,,
,,,,,,,,,,,,,,p,1,1.158785,space,0.42525,0,44,44,74,1,9_dist_red/trial25.png,,,1,9,redHorizontal,p,99,27,F,2021-02-25_22h23.59.839,exp11,2020.2.6,Win32,60,IwAR09v922AcZJCm0CH6ccaCUYaKo0m5SZsDy_MAa_u1cta1FWwMWoMLFCNxc,,,,,,,,,,,
,,,,,,,,,,,,,,p,1,0.925045,space,0.326255,0,45,45,13,1,0_dist_red/trial14.png,,,1,0,redHorizontal,p,99,27,F,2021-02-25_22h23.59.839,exp11,2020.2.6,Win32,60,IwAR09v922AcZJCm0CH6ccaCUYaKo0m5SZsDy_MAa_u1cta1FWwMWoMLFCNxc,,,,,,,,,,,
,,,,,,,,,,,,,,a,1,0.64409,space,0.409215,0,46,46,148,1,0_targ_4_dist_red/trial24.png,,,0,4,redHorizontal,a,99,27,F,2021-02-25_22h23.59.839,exp11,2020.2.6,Win32,60,IwAR09v922AcZJCm0CH6ccaCUYaKo0m5SZsDy_MAa_u1cta1FWwMWoMLFCNxc,,,,,,,,,,,
,,,,,,,,,,,,,,p,1,0.891875,space,0.453815,0,47,47,30,1,3_dist_red/trial6.png,,,1,3,redHorizontal,p,99,27,F,2021-02-25_22h23.59.839,exp11,2020.2.6,Win32,60,IwAR09v922AcZJCm0CH6ccaCUYaKo0m5SZsDy_MAa_u1cta1FWwMWoMLFCNxc,,,,,,,,,,,
,,,,,,,,,,,,,,p,1,0.903975,space,0.42356,0,48,48,49,1,3_dist_red/trial25.png,,,1,3,redHorizontal,p,99,27,F,2021-02-25_22h23.59.839,exp11,2020.2.6,Win32,60,IwAR09v922AcZJCm0CH6ccaCUYaKo0m5SZsDy_MAa_u1cta1FWwMWoMLFCNxc,,,,,,,,,,,
,,,,,,,,,,,,,,p,1,0.689795,space,0.43877,0,49,49,58,1,9_dist_red/trial9.png,,,1,9,redHorizontal,p,99,27,F,2021-02-25_22h23.59.839,exp11,2020.2.6,Win32,60,IwAR09v922AcZJCm0CH6ccaCUYaKo0m5SZsDy_MAa_u1cta1FWwMWoMLFCNxc,,,,,,,,,,,
,,,,,,,,,,,,,,a,1,0.87353,space,0.38608,0,50,50,184,1,0_targ_16_dist_red/trial10.png,,,0,16,redHorizontal,a,99,27,F,2021-02-25_22h23.59.839,exp11,2020.2.6,Win32,60,IwAR09v922AcZJCm0CH6ccaCUYaKo0m5SZsDy_MAa_u1cta1FWwMWoMLFCNxc,,,,,,,,,,,
,,,,,,,,,,,,,,a,1,0.64323,space,0.474195,0,51,51,101,1,0_targ_1_dist_red/trial2.png,,,0,1,redHorizontal,a,99,27,F,2021-02-25_22h23.59.839,exp11,2020.2.6,Win32,60,IwAR09v922AcZJCm0CH6ccaCUYaKo0m5SZsDy_MAa_u1cta1FWwMWoMLFCNxc,,,,,,,,,,,
,,,,,,,,,,,,,,a,0,0.570555,space,5.239515,0,52,52,99,1,15_dist_red/trial25.png,,,1,15,redHorizontal,p,99,27,F,2021-02-25_22h23.59.839,exp11,2020.2.6,Win32,60,IwAR09v922AcZJCm0CH6ccaCUYaKo0m5SZsDy_MAa_u1cta1FWwMWoMLFCNxc,,,,,,,,,,,
,,,,,,,,,,,,,,p,1,2.60305,space,0.32903,0,53,53,80,1,15_dist_red/trial6.png,,,1,15,redHorizontal,p,99,27,F,2021-02-25_22h23.59.839,exp11,2020.2.6,Win32,60,IwAR09v922AcZJCm0CH6ccaCUYaKo0m5SZsDy_MAa_u1cta1FWwMWoMLFCNxc,,,,,,,,,,,
,,,,,,,,,,,,,,p,1,0.5548,space,0.30294,0,54,54,70,1,9_dist_red/trial21.png,,,1,9,redHorizontal,p,99,27,F,2021-02-25_22h23.59.839,exp11,2020.2.6,Win32,60,IwAR09v922AcZJCm0CH6ccaCUYaKo0m5SZsDy_MAa_u1cta1FWwMWoMLFCNxc,,,,,,,,,,,
,,,,,,,,,,,,,,a,1,0.588855,space,0.346195,0,55,55,146,1,0_targ_4_dist_red/trial22.png,,,0,4,redHorizontal,a,99,27,F,2021-02-25_22h23.59.839,exp11,2020.2.6,Win32,60,IwAR09v922AcZJCm0CH6ccaCUYaKo0m5SZsDy_MAa_u1cta1FWwMWoMLFCNxc,,,,,,,,,,,
,,,,,,,,,,,,,,p,1,0.899295,space,0.340905,0,56,56,59,1,9_dist_red/trial10.png,,,1,9,redHorizontal,p,99,27,F,2021-02-25_22h23.59.839,exp11,2020.2.6,Win32,60,IwAR09v922AcZJCm0CH6ccaCUYaKo0m5SZsDy_MAa_u1cta1FWwMWoMLFCNxc,,,,,,,,,,,
,,,,,,,,,,,,,,a,1,0.63676,space,0.389225,0,57,57,126,1,0_targ_4_dist_red/trial2.png,,,0,4,redHorizontal,a,99,27,F,2021-02-25_22h23.59.839,exp11,2020.2.6,Win32,60,IwAR09v922AcZJCm0CH6ccaCUYaKo0m5SZsDy_MAa_u1cta1FWwMWoMLFCNxc,,,,,,,,,,,
,,,,,,,,,,,,,,p,1,0.613435,space,0.384965,0,58,58,71,1,9_dist_red/trial22.png,,,1,9,redHorizontal,p,99,27,F,2021-02-25_22h23.59.839,exp11,2020.2.6,Win32,60,IwAR09v922AcZJCm0CH6ccaCUYaKo0m5SZsDy_MAa_u1cta1FWwMWoMLFCNxc,,,,,,,,,,,
,,,,,,,,,,,,,,a,1,0.84526,space,0.414635,0,59,59,105,1,0_targ_1_dist_red/trial6.png,,,0,1,redHorizontal,a,99,27,F,2021-02-25_22h23.59.839,exp11,2020.2.6,Win32,60,IwAR09v922AcZJCm0CH6ccaCUYaKo0m5SZsDy_MAa_u1cta1FWwMWoMLFCNxc,,,,,,,,,,,
,,,,,,,,,,,,,,a,1,0.81026,space,0.385255,0,60,60,112,1,0_targ_1_dist_red/trial13.png,,,0,1,redHorizontal,a,99,27,F,2021-02-25_22h23.59.839,exp11,2020.2.6,Win32,60,IwAR09v922AcZJCm0CH6ccaCUYaKo0m5SZsDy_MAa_u1cta1FWwMWoMLFCNxc,,,,,,,,,,,
,,,,,,,,,,,,,,p,1,0.71172,space,0.424905,0,61,61,65,1,9_dist_red/trial16.png,,,1,9,redHorizontal,p,99,27,F,2021-02-25_22h23.59.839,exp11,2020.2.6,Win32,60,IwAR09v922AcZJCm0CH6ccaCUYaKo0m5SZsDy_MAa_u1cta1FWwMWoMLFCNxc,,,,,,,,,,,
,,,,,,,,,,,,,,p,1,0.618095,space,0.39105,0,62,62,85,1,15_dist_red/trial11.png,,,1,15,redHorizontal,p,99,27,F,2021-02-25_22h23.59.839,exp11,2020.2.6,Win32,60,IwAR09v922AcZJCm0CH6ccaCUYaKo0m5SZsDy_MAa_u1cta1FWwMWoMLFCNxc,,,,,,,,,,,
,,,,,,,,,,,,,,a,1,0.66344,space,0.38774,0,63,63,149,1,0_targ_4_dist_red/trial25.png,,,0,4,redHorizontal,a,99,27,F,2021-02-25_22h23.59.839,exp11,2020.2.6,Win32,60,IwAR09v922AcZJCm0CH6ccaCUYaKo0m5SZsDy_MAa_u1cta1FWwMWoMLFCNxc,,,,,,,,,,,
,,,,,,,,,,,,,,p,1,0.918535,space,0.40244,0,64,64,44,1,3_dist_red/trial20.png,,,1,3,redHorizontal,p,99,27,F,2021-02-25_22h23.59.839,exp11,2020.2.6,Win32,60,IwAR09v922AcZJCm0CH6ccaCUYaKo0m5SZsDy_MAa_u1cta1FWwMWoMLFCNxc,,,,,,,,,,,
,,,,,,,,,,,,,,p,1,0.620885,space,0.412985,0,65,65,83,1,15_dist_red/trial9.png,,,1,15,redHorizontal,p,99,27,F,2021-02-25_22h23.59.839,exp11,2020.2.6,Win32,60,IwAR09v922AcZJCm0CH6ccaCUYaKo0m5SZsDy_MAa_u1cta1FWwMWoMLFCNxc,,,,,,,,,,,
,,,,,,,,,,,,,,a,1,0.734535,space,0.409185,0,66,66,191,1,0_targ_16_dist_red/trial17.png,,,0,16,redHorizontal,a,99,27,F,2021-02-25_22h23.59.839,exp11,2020.2.6,Win32,60,IwAR09v922AcZJCm0CH6ccaCUYaKo0m5SZsDy_MAa_u1cta1FWwMWoMLFCNxc,,,,,,,,,,,
,,,,,,,,,,,,,,a,1,0.843235,space,0.47616,0,67,67,172,1,0_targ_10_dist_red/trial23.png,,,0,10,redHorizontal,a,99,27,F,2021-02-25_22h23.59.839,exp11,2020.2.6,Win32,60,IwAR09v922AcZJCm0CH6ccaCUYaKo0m5SZsDy_MAa_u1cta1FWwMWoMLFCNxc,,,,,,,,,,,
,,,,,,,,,,,,,,a,1,0.89128,space,0.47462,0,68,68,182,1,0_targ_16_dist_red/trial8.png,,,0,16,redHorizontal,a,99,27,F,2021-02-25_22h23.59.839,exp11,2020.2.6,Win32,60,IwAR09v922AcZJCm0CH6ccaCUYaKo0m5SZsDy_MAa_u1cta1FWwMWoMLFCNxc,,,,,,,,,,,
,,,,,,,,,,,,,,p,1,0.573995,space,0.35143,0,69,69,5,1,0_dist_red/trial6.png,,,1,0,redHorizontal,p,99,27,F,2021-02-25_22h23.59.839,exp11,2020.2.6,Win32,60,IwAR09v922AcZJCm0CH6ccaCUYaKo0m5SZsDy_MAa_u1cta1FWwMWoMLFCNxc,,,,,,,,,,,
,,,,,,,,,,,,,,p,1,0.704355,space,0.325965,0,70,70,95,1,15_dist_red/trial21.png,,,1,15,redHorizontal,p,99,27,F,2021-02-25_22h23.59.839,exp11,2020.2.6,Win32,60,IwAR09v922AcZJCm0CH6ccaCUYaKo0m5SZsDy_MAa_u1cta1FWwMWoMLFCNxc,,,,,,,,,,,
,,,,,,,,,,,,,,a,1,0.74084,space,0.37963,0,71,71,142,1,0_targ_4_dist_red/trial18.png,,,0,4,redHorizontal,a,99,27,F,2021-02-25_22h23.59.839,exp11,2020.2.6,Win32,60,IwAR09v922AcZJCm0CH6ccaCUYaKo0m5SZsDy_MAa_u1cta1FWwMWoMLFCNxc,,,,,,,,,,,
,,,,,,,,,,,,,,a,1,0.717385,space,0.43986,0,72,72,177,1,0_targ_16_dist_red/trial3.png,,,0,16,redHorizontal,a,99,27,F,2021-02-25_22h23.59.839,exp11,2020.2.6,Win32,60,IwAR09v922AcZJCm0CH6ccaCUYaKo0m5SZsDy_MAa_u1cta1FWwMWoMLFCNxc,,,,,,,,,,,
,,,,,,,,,,,,,,p,1,0.81056,space,0.5162,0,73,73,2,1,0_dist_red/trial3.png,,,1,0,redHorizontal,p,99,27,F,2021-02-25_22h23.59.839,exp11,2020.2.6,Win32,60,IwAR09v922AcZJCm0CH6ccaCUYaKo0m5SZsDy_MAa_u1cta1FWwMWoMLFCNxc,,,,,,,,,,,
,,,,,,,,,,,,,,p,1,0.63535,space,0.285755,0,74,74,14,1,0_dist_red/trial15.png,,,1,0,redHorizontal,p,99,27,F,2021-02-25_22h23.59.839,exp11,2020.2.6,Win32,60,IwAR09v922AcZJCm0CH6ccaCUYaKo0m5SZsDy_MAa_u1cta1FWwMWoMLFCNxc,,,,,,,,,,,
,,,,,,,,,,,,,,a,1,0.62901,space,0.400335,0,75,75,197,1,0_targ_16_dist_red/trial23.png,,,0,16,redHorizontal,a,99,27,F,2021-02-25_22h23.59.839,exp11,2020.2.6,Win32,60,IwAR09v922AcZJCm0CH6ccaCUYaKo0m5SZsDy_MAa_u1cta1FWwMWoMLFCNxc,,,,,,,,,,,
,,,,,,,,,,,,,,a,1,0.68816,space,0.36813,0,76,76,100,1,0_targ_1_dist_red/trial1.png,,,0,1,redHorizontal,a,99,27,F,2021-02-25_22h23.59.839,exp11,2020.2.6,Win32,60,IwAR09v922AcZJCm0CH6ccaCUYaKo0m5SZsDy_MAa_u1cta1FWwMWoMLFCNxc,,,,,,,,,,,
,,,,,,,,,,,,,,p,1,0.59265,space,0.31011,0,77,77,45,1,3_dist_red/trial21.png,,,1,3,redHorizontal,p,99,27,F,2021-02-25_22h23.59.839,exp11,2020.2.6,Win32,60,IwAR09v922AcZJCm0CH6ccaCUYaKo0m5SZsDy_MAa_u1cta1FWwMWoMLFCNxc,,,,,,,,,,,
,,,,,,,,,,,,,,p,1,0.964595,space,0.30165,0,78,78,78,1,15_dist_red/trial4.png,,,1,15,redHorizontal,p,99,27,F,2021-02-25_22h23.59.839,exp11,2020.2.6,Win32,60,IwAR09v922AcZJCm0CH6ccaCUYaKo0m5SZsDy_MAa_u1cta1FWwMWoMLFCNxc,,,,,,,,,,,
,,,,,,,,,,,,,,p,1,0.596565,space,0.329305,0,79,79,41,1,3_dist_red/trial17.png,,,1,3,redHorizontal,p,99,27,F,2021-02-25_22h23.59.839,exp11,2020.2.6,Win32,60,IwAR09v922AcZJCm0CH6ccaCUYaKo0m5SZsDy_MAa_u1cta1FWwMWoMLFCNxc,,,,,,,,,,,
,,,,,,,,,,,,,,p,1,0.881535,space,0.2722,0,80,80,77,1,15_dist_red/trial3.png,,,1,15,redHorizontal,p,99,27,F,2021-02-25_22h23.59.839,exp11,2020.2.6,Win32,60,IwAR09v922AcZJCm0CH6ccaCUYaKo0m5SZsDy_MAa_u1cta1FWwMWoMLFCNxc,,,,,,,,,,,
,,,,,,,,,,,,,,a,1,0.635825,space,0.35228,0,81,81,135,1,0_targ_4_dist_red/trial11.png,,,0,4,redHorizontal,a,99,27,F,2021-02-25_22h23.59.839,exp11,2020.2.6,Win32,60,IwAR09v922AcZJCm0CH6ccaCUYaKo0m5SZsDy_MAa_u1cta1FWwMWoMLFCNxc,,,,,,,,,,,
,,,,,,,,,,,,,,a,1,0.722685,space,0.32063,0,82,82,170,1,0_targ_10_dist_red/trial21.png,,,0,10,redHorizontal,a,99,27,F,2021-02-25_22h23.59.839,exp11,2020.2.6,Win32,60,IwAR09v922AcZJCm0CH6ccaCUYaKo0m5SZsDy_MAa_u1cta1FWwMWoMLFCNxc,,,,,,,,,,,
,,,,,,,,,,,,,,a,1,0.551815,space,0.384575,0,83,83,151,1,0_targ_10_dist_red/trial2.png,,,0,10,redHorizontal,a,99,27,F,2021-02-25_22h23.59.839,exp11,2020.2.6,Win32,60,IwAR09v922AcZJCm0CH6ccaCUYaKo0m5SZsDy_MAa_u1cta1FWwMWoMLFCNxc,,,,,,,,,,,
,,,,,,,,,,,,,,a,1,0.745115,space,0.375055,0,84,84,176,1,0_targ_16_dist_red/trial2.png,,,0,16,redHorizontal,a,99,27,F,2021-02-25_22h23.59.839,exp11,2020.2.6,Win32,60,IwAR09v922AcZJCm0CH6ccaCUYaKo0m5SZsDy_MAa_u1cta1FWwMWoMLFCNxc,,,,,,,,,,,
,,,,,,,,,,,,,,p,1,0.876955,space,0.285515,0,85,85,29,1,3_dist_red/trial5.png,,,1,3,redHorizontal,p,99,27,F,2021-02-25_22h23.59.839,exp11,2020.2.6,Win32,60,IwAR09v922AcZJCm0CH6ccaCUYaKo0m5SZsDy_MAa_u1cta1FWwMWoMLFCNxc,,,,,,,,,,,
,,,,,,,,,,,,,,a,1,0.73822,space,0.355245,0,86,86,160,1,0_targ_10_dist_red/trial11.png,,,0,10,redHorizontal,a,99,27,F,2021-02-25_22h23.59.839,exp11,2020.2.6,Win32,60,IwAR09v922AcZJCm0CH6ccaCUYaKo0m5SZsDy_MAa_u1cta1FWwMWoMLFCNxc,,,,,,,,,,,
,,,,,,,,,,,,,,a,1,0.5699,space,0.41118,0,87,87,178,1,0_targ_16_dist_red/trial4.png,,,0,16,redHorizontal,a,99,27,F,2021-02-25_22h23.59.839,exp11,2020.2.6,Win32,60,IwAR09v922AcZJCm0CH6ccaCUYaKo0m5SZsDy_MAa_u1cta1FWwMWoMLFCNxc,,,,,,,,,,,
,,,,,,,,,,,,,,a,1,0.558445,space,0.37109,0,88,88,128,1,0_targ_4_dist_red/trial4.png,,,0,4,redHorizontal,a,99,27,F,2021-02-25_22h23.59.839,exp11,2020.2.6,Win32,60,IwAR09v922AcZJCm0CH6ccaCUYaKo0m5SZsDy_MAa_u1cta1FWwMWoMLFCNxc,,,,,,,,,,,
,,,,,,,,,,,,,,a,1,1.050255,space,0.38891,0,89,89,190,1,0_targ_16_dist_red/trial16.png,,,0,16,redHorizontal,a,99,27,F,2021-02-25_22h23.59.839,exp11,2020.2.6,Win32,60,IwAR09v922AcZJCm0CH6ccaCUYaKo0m5SZsDy_MAa_u1cta1FWwMWoMLFCNxc,,,,,,,,,,,
,,,,,,,,,,,,,,p,1,0.661575,space,0.31905,0,90,90,88,1,15_dist_red/trial14.png,,,1,15,redHorizontal,p,99,27,F,2021-02-25_22h23.59.839,exp11,2020.2.6,Win32,60,IwAR09v922AcZJCm0CH6ccaCUYaKo0m5SZsDy_MAa_u1cta1FWwMWoMLFCNxc,,,,,,,,,,,
,,,,,,,,,,,,,,a,1,0.801955,space,0.32091,0,91,91,199,1,0_targ_16_dist_red/trial25.png,,,0,16,redHorizontal,a,99,27,F,2021-02-25_22h23.59.839,exp11,2020.2.6,Win32,60,IwAR09v922AcZJCm0CH6ccaCUYaKo0m5SZsDy_MAa_u1cta1FWwMWoMLFCNxc,,,,,,,,,,,
,,,,,,,,,,,,,,a,1,0.708415,space,0.33072,0,92,92,169,1,0_targ_10_dist_red/trial20.png,,,0,10,redHorizontal,a,99,27,F,2021-02-25_22h23.59.839,exp11,2020.2.6,Win32,60,IwAR09v922AcZJCm0CH6ccaCUYaKo0m5SZsDy_MAa_u1cta1FWwMWoMLFCNxc,,,,,,,,,,,
,,,,,,,,,,,,,,a,1,0.536795,space,0.347355,0,93,93,198,1,0_targ_16_dist_red/trial24.png,,,0,16,redHorizontal,a,99,27,F,2021-02-25_22h23.59.839,exp11,2020.2.6,Win32,60,IwAR09v922AcZJCm0CH6ccaCUYaKo0m5SZsDy_MAa_u1cta1FWwMWoMLFCNxc,,,,,,,,,,,
,,,,,,,,,,,,,,a,1,0.57679,space,0.285835,0,94,94,157,1,0_targ_10_dist_red/trial8.png,,,0,10,redHorizontal,a,99,27,F,2021-02-25_22h23.59.839,exp11,2020.2.6,Win32,60,IwAR09v922AcZJCm0CH6ccaCUYaKo0m5SZsDy_MAa_u1cta1FWwMWoMLFCNxc,,,,,,,,,,,
,,,,,,,,,,,,,,a,1,0.55729,space,0.359165,0,95,95,188,1,0_targ_16_dist_red/trial14.png,,,0,16,redHorizontal,a,99,27,F,2021-02-25_22h23.59.839,exp11,2020.2.6,Win32,60,IwAR09v922AcZJCm0CH6ccaCUYaKo0m5SZsDy_MAa_u1cta1FWwMWoMLFCNxc,,,,,,,,,,,
,,,,,,,,,,,,,,p,1,0.592165,space,0.29166,0,96,96,46,1,3_dist_red/trial22.png,,,1,3,redHorizontal,p,99,27,F,2021-02-25_22h23.59.839,exp11,2020.2.6,Win32,60,IwAR09v922AcZJCm0CH6ccaCUYaKo0m5SZsDy_MAa_u1cta1FWwMWoMLFCNxc,,,,,,,,,,,
,,,,,,,,,,,,,,p,1,0.64623,space,0.28965,0,97,97,26,1,3_dist_red/trial2.png,,,1,3,redHorizontal,p,99,27,F,2021-02-25_22h23.59.839,exp11,2020.2.6,Win32,60,IwAR09v922AcZJCm0CH6ccaCUYaKo0m5SZsDy_MAa_u1cta1FWwMWoMLFCNxc,,,,,,,,,,,
,,,,,,,,,,,,,,p,1,0.69379,space,0.27971,0,98,98,92,1,15_dist_red/trial18.png,,,1,15,redHorizontal,p,99,27,F,2021-02-25_22h23.59.839,exp11,2020.2.6,Win32,60,IwAR09v922AcZJCm0CH6ccaCUYaKo0m5SZsDy_MAa_u1cta1FWwMWoMLFCNxc,,,,,,,,,,,
,,,,,,,,,,,,,,a,1,0.794045,space,0.308945,0,99,99,159,1,0_targ_10_dist_red/trial10.png,,,0,10,redHorizontal,a,99,27,F,2021-02-25_22h23.59.839,exp11,2020.2.6,Win32,60,IwAR09v922AcZJCm0CH6ccaCUYaKo0m5SZsDy_MAa_u1cta1FWwMWoMLFCNxc,,,,,,,,,,,
,,,,,,,,,,,,,,a,1,0.853395,space,0.319715,0,100,100,156,1,0_targ_10_dist_red/trial7.png,,,0,10,redHorizontal,a,99,27,F,2021-02-25_22h23.59.839,exp11,2020.2.6,Win32,60,IwAR09v922AcZJCm0CH6ccaCUYaKo0m5SZsDy_MAa_u1cta1FWwMWoMLFCNxc,,,,,,,,,,,
,,,,,,,,,,,,,,a,1,0.596285,space,0.26717,0,101,101,147,1,0_targ_4_dist_red/trial23.png,,,0,4,redHorizontal,a,99,27,F,2021-02-25_22h23.59.839,exp11,2020.2.6,Win32,60,IwAR09v922AcZJCm0CH6ccaCUYaKo0m5SZsDy_MAa_u1cta1FWwMWoMLFCNxc,,,,,,,,,,,
,,,,,,,,,,,,,,p,1,0.562145,space,0.288745,0,102,102,22,1,0_dist_red/trial23.png,,,1,0,redHorizontal,p,99,27,F,2021-02-25_22h23.59.839,exp11,2020.2.6,Win32,60,IwAR09v922AcZJCm0CH6ccaCUYaKo0m5SZsDy_MAa_u1cta1FWwMWoMLFCNxc,,,,,,,,,,,
,,,,,,,,,,,,,,a,1,0.651255,space,0.38088,0,103,103,139,1,0_targ_4_dist_red/trial15.png,,,0,4,redHorizontal,a,99,27,F,2021-02-25_22h23.59.839,exp11,2020.2.6,Win32,60,IwAR09v922AcZJCm0CH6ccaCUYaKo0m5SZsDy_MAa_u1cta1FWwMWoMLFCNxc,,,,,,,,,,,
,,,,,,,,,,,,,,p,1,0.740855,space,0.342395,0,104,104,84,1,15_dist_red/trial10.png,,,1,15,redHorizontal,p,99,27,F,2021-02-25_22h23.59.839,exp11,2020.2.6,Win32,60,IwAR09v922AcZJCm0CH6ccaCUYaKo0m5SZsDy_MAa_u1cta1FWwMWoMLFCNxc,,,,,,,,,,,
,,,,,,,,,,,,,,a,1,0.658525,space,0.34157,0,105,105,122,1,0_targ_1_dist_red/trial23.png,,,0,1,redHorizontal,a,99,27,F,2021-02-25_22h23.59.839,exp11,2020.2.6,Win32,60,IwAR09v922AcZJCm0CH6ccaCUYaKo0m5SZsDy_MAa_u1cta1FWwMWoMLFCNxc,,,,,,,,,,,
,,,,,,,,,,,,,,p,1,0.66418,space,0.319845,0,106,106,76,1,15_dist_red/trial2.png,,,1,15,redHorizontal,p,99,27,F,2021-02-25_22h23.59.839,exp11,2020.2.6,Win32,60,IwAR09v922AcZJCm0CH6ccaCUYaKo0m5SZsDy_MAa_u1cta1FWwMWoMLFCNxc,,,,,,,,,,,
,,,,,,,,,,,,,,p,1,0.75754,space,0.283195,0,107,107,68,1,9_dist_red/trial19.png,,,1,9,redHorizontal,p,99,27,F,2021-02-25_22h23.59.839,exp11,2020.2.6,Win32,60,IwAR09v922AcZJCm0CH6ccaCUYaKo0m5SZsDy_MAa_u1cta1FWwMWoMLFCNxc,,,,,,,,,,,
,,,,,,,,,,,,,,a,1,0.62765,space,0.31689,0,108,108,121,1,0_targ_1_dist_red/trial22.png,,,0,1,redHorizontal,a,99,27,F,2021-02-25_22h23.59.839,exp11,2020.2.6,Win32,60,IwAR09v922AcZJCm0CH6ccaCUYaKo0m5SZsDy_MAa_u1cta1FWwMWoMLFCNxc,,,,,,,,,,,
,,,,,,,,,,,,,,a,1,0.64559,space,0.3664,0,109,109,133,1,0_targ_4_dist_red/trial9.png,,,0,4,redHorizontal,a,99,27,F,2021-02-25_22h23.59.839,exp11,2020.2.6,Win32,60,IwAR09v922AcZJCm0CH6ccaCUYaKo0m5SZsDy_MAa_u1cta1FWwMWoMLFCNxc,,,,,,,,,,,
,,,,,,,,,,,,,,a,1,0.60184,space,0.384525,0,110,110,137,1,0_targ_4_dist_red/trial13.png,,,0,4,redHorizontal,a,99,27,F,2021-02-25_22h23.59.839,exp11,2020.2.6,Win32,60,IwAR09v922AcZJCm0CH6ccaCUYaKo0m5SZsDy_MAa_u1cta1FWwMWoMLFCNxc,,,,,,,,,,,
,,,,,,,,,,,,,,p,1,0.62359,space,0.25656,0,111,111,81,1,15_dist_red/trial7.png,,,1,15,redHorizontal,p,99,27,F,2021-02-25_22h23.59.839,exp11,2020.2.6,Win32,60,IwAR09v922AcZJCm0CH6ccaCUYaKo0m5SZsDy_MAa_u1cta1FWwMWoMLFCNxc,,,,,,,,,,,
,,,,,,,,,,,,,,a,1,0.872225,space,0.331895,0,112,112,175,1,0_targ_16_dist_red/trial1.png,,,0,16,redHorizontal,a,99,27,F,2021-02-25_22h23.59.839,exp11,2020.2.6,Win32,60,IwAR09v922AcZJCm0CH6ccaCUYaKo0m5SZsDy_MAa_u1cta1FWwMWoMLFCNxc,,,,,,,,,,,
,,,,,,,,,,,,,,a,1,0.628365,space,0.416145,0,113,113,124,1,0_targ_1_dist_red/trial25.png,,,0,1,redHorizontal,a,99,27,F,2021-02-25_22h23.59.839,exp11,2020.2.6,Win32,60,IwAR09v922AcZJCm0CH6ccaCUYaKo0m5SZsDy_MAa_u1cta1FWwMWoMLFCNxc,,,,,,,,,,,
,,,,,,,,,,,,,,p,1,0.546355,space,0.34239,0,114,114,12,1,0_dist_red/trial13.png,,,1,0,redHorizontal,p,99,27,F,2021-02-25_22h23.59.839,exp11,2020.2.6,Win32,60,IwAR09v922AcZJCm0CH6ccaCUYaKo0m5SZsDy_MAa_u1cta1FWwMWoMLFCNxc,,,,,,,,,,,
,,,,,,,,,,,,,,a,1,1.307475,space,0.348555,0,115,115,180,1,0_targ_16_dist_red/trial6.png,,,0,16,redHorizontal,a,99,27,F,2021-02-25_22h23.59.839,exp11,2020.2.6,Win32,60,IwAR09v922AcZJCm0CH6ccaCUYaKo0m5SZsDy_MAa_u1cta1FWwMWoMLFCNxc,,,,,,,,,,,
,,,,,,,,,,,,,,p,1,0.61192,space,0.31869,0,116,116,73,1,9_dist_red/trial24.png,,,1,9,redHorizontal,p,99,27,F,2021-02-25_22h23.59.839,exp11,2020.2.6,Win32,60,IwAR09v922AcZJCm0CH6ccaCUYaKo0m5SZsDy_MAa_u1cta1FWwMWoMLFCNxc,,,,,,,,,,,
,,,,,,,,,,,,,,a,1,1.184015,space,0.391485,0,117,117,193,1,0_targ_16_dist_red/trial19.png,,,0,16,redHorizontal,a,99,27,F,2021-02-25_22h23.59.839,exp11,2020.2.6,Win32,60,IwAR09v922AcZJCm0CH6ccaCUYaKo0m5SZsDy_MAa_u1cta1FWwMWoMLFCNxc,,,,,,,,,,,
,,,,,,,,,,,,,,p,1,0.781545,space,0.30327,0,118,118,8,1,0_dist_red/trial9.png,,,1,0,redHorizontal,p,99,27,F,2021-02-25_22h23.59.839,exp11,2020.2.6,Win32,60,IwAR09v922AcZJCm0CH6ccaCUYaKo0m5SZsDy_MAa_u1cta1FWwMWoMLFCNxc,,,,,,,,,,,
,,,,,,,,,,,,,,a,1,0.689105,space,0.35323,0,119,119,116,1,0_targ_1_dist_red/trial17.png,,,0,1,redHorizontal,a,99,27,F,2021-02-25_22h23.59.839,exp11,2020.2.6,Win32,60,IwAR09v922AcZJCm0CH6ccaCUYaKo0m5SZsDy_MAa_u1cta1FWwMWoMLFCNxc,,,,,,,,,,,
,,,,,,,,,,,,,,a,1,0.503605,space,0.405345,0,120,120,120,1,0_targ_1_dist_red/trial21.png,,,0,1,redHorizontal,a,99,27,F,2021-02-25_22h23.59.839,exp11,2020.2.6,Win32,60,IwAR09v922AcZJCm0CH6ccaCUYaKo0m5SZsDy_MAa_u1cta1FWwMWoMLFCNxc,,,,,,,,,,,
,,,,,,,,,,,,,,p,1,0.59796,space,0.32399,0,121,121,6,1,0_dist_red/trial7.png,,,1,0,redHorizontal,p,99,27,F,2021-02-25_22h23.59.839,exp11,2020.2.6,Win32,60,IwAR09v922AcZJCm0CH6ccaCUYaKo0m5SZsDy_MAa_u1cta1FWwMWoMLFCNxc,,,,,,,,,,,
,,,,,,,,,,,,,,a,1,0.943285,space,0.353965,0,122,122,118,1,0_targ_1_dist_red/trial19.png,,,0,1,redHorizontal,a,99,27,F,2021-02-25_22h23.59.839,exp11,2020.2.6,Win32,60,IwAR09v922AcZJCm0CH6ccaCUYaKo0m5SZsDy_MAa_u1cta1FWwMWoMLFCNxc,,,,,,,,,,,
,,,,,,,,,,,,,,a,1,0.941065,space,0.36859,0,123,123,138,1,0_targ_4_dist_red/trial14.png,,,0,4,redHorizontal,a,99,27,F,2021-02-25_22h23.59.839,exp11,2020.2.6,Win32,60,IwAR09v922AcZJCm0CH6ccaCUYaKo0m5SZsDy_MAa_u1cta1FWwMWoMLFCNxc,,,,,,,,,,,
,,,,,,,,,,,,,,a,1,0.757075,space,0.32644,0,124,124,168,1,0_targ_10_dist_red/trial19.png,,,0,10,redHorizontal,a,99,27,F,2021-02-25_22h23.59.839,exp11,2020.2.6,Win32,60,IwAR09v922AcZJCm0CH6ccaCUYaKo0m5SZsDy_MAa_u1cta1FWwMWoMLFCNxc,,,,,,,,,,,
,,,,,,,,,,,,,,a,1,0.555435,space,0.36673,0,125,125,119,1,0_targ_1_dist_red/trial20.png,,,0,1,redHorizontal,a,99,27,F,2021-02-25_22h23.59.839,exp11,2020.2.6,Win32,60,IwAR09v922AcZJCm0CH6ccaCUYaKo0m5SZsDy_MAa_u1cta1FWwMWoMLFCNxc,,,,,,,,,,,
,,,,,,,,,,,,,,a,1,0.57251,space,0.40156,0,126,126,163,1,0_targ_10_dist_red/trial14.png,,,0,10,redHorizontal,a,99,27,F,2021-02-25_22h23.59.839,exp11,2020.2.6,Win32,60,IwAR09v922AcZJCm0CH6ccaCUYaKo0m5SZsDy_MAa_u1cta1FWwMWoMLFCNxc,,,,,,,,,,,
,,,,,,,,,,,,,,p,1,0.785105,space,0.257945,0,127,127,53,1,9_dist_red/trial4.png,,,1,9,redHorizontal,p,99,27,F,2021-02-25_22h23.59.839,exp11,2020.2.6,Win32,60,IwAR09v922AcZJCm0CH6ccaCUYaKo0m5SZsDy_MAa_u1cta1FWwMWoMLFCNxc,,,,,,,,,,,
,,,,,,,,,,,,,,p,1,0.757245,space,0.23398,0,128,128,62,1,9_dist_red/trial13.png,,,1,9,redHorizontal,p,99,27,F,2021-02-25_22h23.59.839,exp11,2020.2.6,Win32,60,IwAR09v922AcZJCm0CH6ccaCUYaKo0m5SZsDy_MAa_u1cta1FWwMWoMLFCNxc,,,,,,,,,,,
,,,,,,,,,,,,,,p,1,0.75131,space,0.24363,0,129,129,25,1,3_dist_red/trial1.png,,,1,3,redHorizontal,p,99,27,F,2021-02-25_22h23.59.839,exp11,2020.2.6,Win32,60,IwAR09v922AcZJCm0CH6ccaCUYaKo0m5SZsDy_MAa_u1cta1FWwMWoMLFCNxc,,,,,,,,,,,
,,,,,,,,,,,,,,a,1,0.64272,space,0.326895,0,130,130,174,1,0_targ_10_dist_red/trial25.png,,,0,10,redHorizontal,a,99,27,F,2021-02-25_22h23.59.839,exp11,2020.2.6,Win32,60,IwAR09v922AcZJCm0CH6ccaCUYaKo0m5SZsDy_MAa_u1cta1FWwMWoMLFCNxc,,,,,,,,,,,
,,,,,,,,,,,,,,p,1,0.551095,space,0.26388,0,131,131,18,1,0_dist_red/trial19.png,,,1,0,redHorizontal,p,99,27,F,2021-02-25_22h23.59.839,exp11,2020.2.6,Win32,60,IwAR09v922AcZJCm0CH6ccaCUYaKo0m5SZsDy_MAa_u1cta1FWwMWoMLFCNxc,,,,,,,,,,,
,,,,,,,,,,,,,,p,1,0.643485,space,0.21572,0,132,132,1,1,0_dist_red/trial2.png,,,1,0,redHorizontal,p,99,27,F,2021-02-25_22h23.59.839,exp11,2020.2.6,Win32,60,IwAR09v922AcZJCm0CH6ccaCUYaKo0m5SZsDy_MAa_u1cta1FWwMWoMLFCNxc,,,,,,,,,,,
,,,,,,,,,,,,,,p,1,0.94187,space,0.240025,0,133,133,89,1,15_dist_red/trial15.png,,,1,15,redHorizontal,p,99,27,F,2021-02-25_22h23.59.839,exp11,2020.2.6,Win32,60,IwAR09v922AcZJCm0CH6ccaCUYaKo0m5SZsDy_MAa_u1cta1FWwMWoMLFCNxc,,,,,,,,,,,
,,,,,,,,,,,,,,p,1,0.562055,space,0.25168,0,134,134,15,1,0_dist_red/trial16.png,,,1,0,redHorizontal,p,99,27,F,2021-02-25_22h23.59.839,exp11,2020.2.6,Win32,60,IwAR09v922AcZJCm0CH6ccaCUYaKo0m5SZsDy_MAa_u1cta1FWwMWoMLFCNxc,,,,,,,,,,,
,,,,,,,,,,,,,,p,1,0.810015,space,0.256195,0,135,135,72,1,9_dist_red/trial23.png,,,1,9,redHorizontal,p,99,27,F,2021-02-25_22h23.59.839,exp11,2020.2.6,Win32,60,IwAR09v922AcZJCm0CH6ccaCUYaKo0m5SZsDy_MAa_u1cta1FWwMWoMLFCNxc,,,,,,,,,,,
,,,,,,,,,,,,,,a,0,0.6299,space,2.31062,0,136,136,75,1,15_dist_red/trial1.png,,,1,15,redHorizontal,p,99,27,F,2021-02-25_22h23.59.839,exp11,2020.2.6,Win32,60,IwAR09v922AcZJCm0CH6ccaCUYaKo0m5SZsDy_MAa_u1cta1FWwMWoMLFCNxc,,,,,,,,,,,
,,,,,,,,,,,,,,p,1,0.571405,space,0.22814,0,137,137,10,1,0_dist_red/trial11.png,,,1,0,redHorizontal,p,99,27,F,2021-02-25_22h23.59.839,exp11,2020.2.6,Win32,60,IwAR09v922AcZJCm0CH6ccaCUYaKo0m5SZsDy_MAa_u1cta1FWwMWoMLFCNxc,,,,,,,,,,,
,,,,,,,,,,,,,,a,1,0.82581,space,0.273805,0,138,138,155,1,0_targ_10_dist_red/trial6.png,,,0,10,redHorizontal,a,99,27,F,2021-02-25_22h23.59.839,exp11,2020.2.6,Win32,60,IwAR09v922AcZJCm0CH6ccaCUYaKo0m5SZsDy_MAa_u1cta1FWwMWoMLFCNxc,,,,,,,,,,,
,,,,,,,,,,,,,,a,1,0.63651,space,0.366545,0,139,139,131,1,0_targ_4_dist_red/trial7.png,,,0,4,redHorizontal,a,99,27,F,2021-02-25_22h23.59.839,exp11,2020.2.6,Win32,60,IwAR09v922AcZJCm0CH6ccaCUYaKo0m5SZsDy_MAa_u1cta1FWwMWoMLFCNxc,,,,,,,,,,,
,,,,,,,,,,,,,,a,1,0.849885,space,0.299195,0,140,140,158,1,0_targ_10_dist_red/trial9.png,,,0,10,redHorizontal,a,99,27,F,2021-02-25_22h23.59.839,exp11,2020.2.6,Win32,60,IwAR09v922AcZJCm0CH6ccaCUYaKo0m5SZsDy_MAa_u1cta1FWwMWoMLFCNxc,,,,,,,,,,,
,,,,,,,,,,,,,,p,1,0.651345,space,0.3519,0,141,141,94,1,15_dist_red/trial20.png,,,1,15,redHorizontal,p,99,27,F,2021-02-25_22h23.59.839,exp11,2020.2.6,Win32,60,IwAR09v922AcZJCm0CH6ccaCUYaKo0m5SZsDy_MAa_u1cta1FWwMWoMLFCNxc,,,,,,,,,,,
,,,,,,,,,,,,,,p,1,0.55788,space,0.353915,0,142,142,52,1,9_dist_red/trial3.png,,,1,9,redHorizontal,p,99,27,F,2021-02-25_22h23.59.839,exp11,2020.2.6,Win32,60,IwAR09v922AcZJCm0CH6ccaCUYaKo0m5SZsDy_MAa_u1cta1FWwMWoMLFCNxc,,,,,,,,,,,
,,,,,,,,,,,,,,a,1,0.609765,space,0.349105,0,143,143,130,1,0_targ_4_dist_red/trial6.png,,,0,4,redHorizontal,a,99,27,F,2021-02-25_22h23.59.839,exp11,2020.2.6,Win32,60,IwAR09v922AcZJCm0CH6ccaCUYaKo0m5SZsDy_MAa_u1cta1FWwMWoMLFCNxc,,,,,,,,,,,
,,,,,,,,,,,,,,a,1,0.575415,space,0.411605,0,144,144,140,1,0_targ_4_dist_red/trial6.png,,,0,4,redHorizontal,a,99,27,F,2021-02-25_22h23.59.839,exp11,2020.2.6,Win32,60,IwAR09v922AcZJCm0CH6ccaCUYaKo0m5SZsDy_MAa_u1cta1FWwMWoMLFCNxc,,,,,,,,,,,
,,,,,,,,,,,,,,p,1,0.651185,space,0.37471,0,145,145,23,1,0_dist_red/trial24.png,,,1,0,redHorizontal,p,99,27,F,2021-02-25_22h23.59.839,exp11,2020.2.6,Win32,60,IwAR09v922AcZJCm0CH6ccaCUYaKo0m5SZsDy_MAa_u1cta1FWwMWoMLFCNxc,,,,,,,,,,,
,,,,,,,,,,,,,,a,1,0.983945,space,0.393035,0,146,146,196,1,0_targ_16_dist_red/trial22.png,,,0,16,redHorizontal,a,99,27,F,2021-02-25_22h23.59.839,exp11,2020.2.6,Win32,60,IwAR09v922AcZJCm0CH6ccaCUYaKo0m5SZsDy_MAa_u1cta1FWwMWoMLFCNxc,,,,,,,,,,,
,,,,,,,,,,,,,,a,1,0.70428,space,0.3109,0,147,147,106,1,0_targ_1_dist_red/trial7.png,,,0,1,redHorizontal,a,99,27,F,2021-02-25_22h23.59.839,exp11,2020.2.6,Win32,60,IwAR09v922AcZJCm0CH6ccaCUYaKo0m5SZsDy_MAa_u1cta1FWwMWoMLFCNxc,,,,,,,,,,,
,,,,,,,,,,,,,,p,1,0.637935,space,0.356765,0,148,148,97,1,15_dist_red/trial23.png,,,1,15,redHorizontal,p,99,27,F,2021-02-25_22h23.59.839,exp11,2020.2.6,Win32,60,IwAR09v922AcZJCm0CH6ccaCUYaKo0m5SZsDy_MAa_u1cta1FWwMWoMLFCNxc,,,,,,,,,,,
,,,,,,,,,,,,,,p,1,0.57053,space,0.34457,0,149,149,67,1,9_dist_red/trial18.png,,,1,9,redHorizontal,p,99,27,F,2021-02-25_22h23.59.839,exp11,2020.2.6,Win32,60,IwAR09v922AcZJCm0CH6ccaCUYaKo0m5SZsDy_MAa_u1cta1FWwMWoMLFCNxc,,,,,,,,,,,
,,,,,,,,,,,,,,a,1,0.87041,space,0.45215,0,150,150,123,1,0_targ_1_dist_red/trial24.png,,,0,1,redHorizontal,a,99,27,F,2021-02-25_22h23.59.839,exp11,2020.2.6,Win32,60,IwAR09v922AcZJCm0CH6ccaCUYaKo0m5SZsDy_MAa_u1cta1FWwMWoMLFCNxc,,,,,,,,,,,
,,,,,,,,,,,,,,p,1,0.87403,space,0.3455,0,151,151,55,1,9_dist_red/trial6.png,,,1,9,redHorizontal,p,99,27,F,2021-02-25_22h23.59.839,exp11,2020.2.6,Win32,60,IwAR09v922AcZJCm0CH6ccaCUYaKo0m5SZsDy_MAa_u1cta1FWwMWoMLFCNxc,,,,,,,,,,,
,,,,,,,,,,,,,,a,1,1.176085,space,0.35122,0,152,152,192,1,0_targ_16_dist_red/trial18.png,,,0,16,redHorizontal,a,99,27,F,2021-02-25_22h23.59.839,exp11,2020.2.6,Win32,60,IwAR09v922AcZJCm0CH6ccaCUYaKo0m5SZsDy_MAa_u1cta1FWwMWoMLFCNxc,,,,,,,,,,,
,,,,,,,,,,,,,,a,1,0.61315,space,0.3748,0,153,153,171,1,0_targ_10_dist_red/trial22.png,,,0,10,redHorizontal,a,99,27,F,2021-02-25_22h23.59.839,exp11,2020.2.6,Win32,60,IwAR09v922AcZJCm0CH6ccaCUYaKo0m5SZsDy_MAa_u1cta1FWwMWoMLFCNxc,,,,,,,,,,,
,,,,,,,,,,,,,,p,1,0.595205,space,0.3488,0,154,154,61,1,9_dist_red/trial12.png,,,1,9,redHorizontal,p,99,27,F,2021-02-25_22h23.59.839,exp11,2020.2.6,Win32,60,IwAR09v922AcZJCm0CH6ccaCUYaKo0m5SZsDy_MAa_u1cta1FWwMWoMLFCNxc,,,,,,,,,,,
,,,,,,,,,,,,,,p,1,0.55784,space,0.347395,0,155,155,48,1,3_dist_red/trial24.png,,,1,3,redHorizontal,p,99,27,F,2021-02-25_22h23.59.839,exp11,2020.2.6,Win32,60,IwAR09v922AcZJCm0CH6ccaCUYaKo0m5SZsDy_MAa_u1cta1FWwMWoMLFCNxc,,,,,,,,,,,
,,,,,,,,,,,,,,p,1,0.70706,space,0.507895,0,156,156,0,1,0_dist_red/trial1.png,,,1,0,redHorizontal,p,99,27,F,2021-02-25_22h23.59.839,exp11,2020.2.6,Win32,60,IwAR09v922AcZJCm0CH6ccaCUYaKo0m5SZsDy_MAa_u1cta1FWwMWoMLFCNxc,,,,,,,,,,,
,,,,,,,,,,,,,,p,1,0.708485,space,0.28258,0,157,157,63,1,9_dist_red/trial14.png,,,1,9,redHorizontal,p,99,27,F,2021-02-25_22h23.59.839,exp11,2020.2.6,Win32,60,IwAR09v922AcZJCm0CH6ccaCUYaKo0m5SZsDy_MAa_u1cta1FWwMWoMLFCNxc,,,,,,,,,,,
,,,,,,,,,,,,,,a,1,0.72065,space,0.334965,0,158,158,162,1,0_targ_10_dist_red/trial13.png,,,0,10,redHorizontal,a,99,27,F,2021-02-25_22h23.59.839,exp11,2020.2.6,Win32,60,IwAR09v922AcZJCm0CH6ccaCUYaKo0m5SZsDy_MAa_u1cta1FWwMWoMLFCNxc,,,,,,,,,,,
,,,,,,,,,,,,,,a,1,0.633665,space,0.40855,0,159,159,154,1,0_targ_10_dist_red/trial5.png,,,0,10,redHorizontal,a,99,27,F,2021-02-25_22h23.59.839,exp11,2020.2.6,Win32,60,IwAR09v922AcZJCm0CH6ccaCUYaKo0m5SZsDy_MAa_u1cta1FWwMWoMLFCNxc,,,,,,,,,,,
,,,,,,,,,,,,,,a,1,0.69495,space,0.437335,0,160,160,153,1,0_targ_10_dist_red/trial4.png,,,0,10,redHorizontal,a,99,27,F,2021-02-25_22h23.59.839,exp11,2020.2.6,Win32,60,IwAR09v922AcZJCm0CH6ccaCUYaKo0m5SZsDy_MAa_u1cta1FWwMWoMLFCNxc,,,,,,,,,,,
,,,,,,,,,,,,,,p,1,0.543625,space,0.317345,0,161,161,37,1,3_dist_red/trial13.png,,,1,3,redHorizontal,p,99,27,F,2021-02-25_22h23.59.839,exp11,2020.2.6,Win32,60,IwAR09v922AcZJCm0CH6ccaCUYaKo0m5SZsDy_MAa_u1cta1FWwMWoMLFCNxc,,,,,,,,,,,
,,,,,,,,,,,,,,a,0,0.76705,space,3.541445,0,162,162,69,1,9_dist_red/trial20.png,,,1,9,redHorizontal,p,99,27,F,2021-02-25_22h23.59.839,exp11,2020.2.6,Win32,60,IwAR09v922AcZJCm0CH6ccaCUYaKo0m5SZsDy_MAa_u1cta1FWwMWoMLFCNxc,,,,,,,,,,,
,,,,,,,,,,,,,,p,1,0.711645,space,0.169265,0,163,163,9,1,0_dist_red/trial10.png,,,1,0,redHorizontal,p,99,27,F,2021-02-25_22h23.59.839,exp11,2020.2.6,Win32,60,IwAR09v922AcZJCm0CH6ccaCUYaKo0m5SZsDy_MAa_u1cta1FWwMWoMLFCNxc,,,,,,,,,,,
,,,,,,,,,,,,,,p,0,1.081785,space,0.10062,0,164,164,183,1,0_targ_16_dist_red/trial9.png,,,0,16,redHorizontal,a,99,27,F,2021-02-25_22h23.59.839,exp11,2020.2.6,Win32,60,IwAR09v922AcZJCm0CH6ccaCUYaKo0m5SZsDy_MAa_u1cta1FWwMWoMLFCNxc,,,,,,,,,,,
,,,,,,,,,,,,,,a,1,1.65758,space,0.32812,0,165,165,145,1,0_targ_4_dist_red/trial21.png,,,0,4,redHorizontal,a,99,27,F,2021-02-25_22h23.59.839,exp11,2020.2.6,Win32,60,IwAR09v922AcZJCm0CH6ccaCUYaKo0m5SZsDy_MAa_u1cta1FWwMWoMLFCNxc,,,,,,,,,,,
,,,,,,,,,,,,,,p,1,1.482075,space,0.270465,0,166,166,79,1,15_dist_red/trial5.png,,,1,15,redHorizontal,p,99,27,F,2021-02-25_22h23.59.839,exp11,2020.2.6,Win32,60,IwAR09v922AcZJCm0CH6ccaCUYaKo0m5SZsDy_MAa_u1cta1FWwMWoMLFCNxc,,,,,,,,,,,
,,,,,,,,,,,,,,a,1,0.663655,space,0.27924,0,167,167,115,1,0_targ_1_dist_red/trial6.png,,,0,1,redHorizontal,a,99,27,F,2021-02-25_22h23.59.839,exp11,2020.2.6,Win32,60,IwAR09v922AcZJCm0CH6ccaCUYaKo0m5SZsDy_MAa_u1cta1FWwMWoMLFCNxc,,,,,,,,,,,
,,,,,,,,,,,,,,p,1,0.62981,space,0.30897,0,168,168,66,1,9_dist_red/trial17.png,,,1,9,redHorizontal,p,99,27,F,2021-02-25_22h23.59.839,exp11,2020.2.6,Win32,60,IwAR09v922AcZJCm0CH6ccaCUYaKo0m5SZsDy_MAa_u1cta1FWwMWoMLFCNxc,,,,,,,,,,,
,,,,,,,,,,,,,,a,1,0.548315,space,0.4041,0,169,169,102,1,0_targ_1_dist_red/trial3.png,,,0,1,redHorizontal,a,99,27,F,2021-02-25_22h23.59.839,exp11,2020.2.6,Win32,60,IwAR09v922AcZJCm0CH6ccaCUYaKo0m5SZsDy_MAa_u1cta1FWwMWoMLFCNxc,,,,,,,,,,,
,,,,,,,,,,,,,,a,1,0.56805,space,0.39322,0,170,170,129,1,0_targ_4_dist_red/trial5.png,,,0,4,redHorizontal,a,99,27,F,2021-02-25_22h23.59.839,exp11,2020.2.6,Win32,60,IwAR09v922AcZJCm0CH6ccaCUYaKo0m5SZsDy_MAa_u1cta1FWwMWoMLFCNxc,,,,,,,,,,,
,,,,,,,,,,,,,,a,1,0.42978,space,0.371415,0,171,171,114,1,0_targ_1_dist_red/trial15.png,,,0,1,redHorizontal,a,99,27,F,2021-02-25_22h23.59.839,exp11,2020.2.6,Win32,60,IwAR09v922AcZJCm0CH6ccaCUYaKo0m5SZsDy_MAa_u1cta1FWwMWoMLFCNxc,,,,,,,,,,,
,,,,,,,,,,,,,,a,1,1.05858,space,0.454425,0,172,172,187,1,0_targ_16_dist_red/trial13.png,,,0,16,redHorizontal,a,99,27,F,2021-02-25_22h23.59.839,exp11,2020.2.6,Win32,60,IwAR09v922AcZJCm0CH6ccaCUYaKo0m5SZsDy_MAa_u1cta1FWwMWoMLFCNxc,,,,,,,,,,,
,,,,,,,,,,,,,,a,1,0.563495,space,0.420975,0,173,173,141,1,0_targ_4_dist_red/trial17.png,,,0,4,redHorizontal,a,99,27,F,2021-02-25_22h23.59.839,exp11,2020.2.6,Win32,60,IwAR09v922AcZJCm0CH6ccaCUYaKo0m5SZsDy_MAa_u1cta1FWwMWoMLFCNxc,,,,,,,,,,,
,,,,,,,,,,,,,,a,1,0.558635,space,0.393225,0,174,174,173,1,0_targ_10_dist_red/trial24.png,,,0,10,redHorizontal,a,99,27,F,2021-02-25_22h23.59.839,exp11,2020.2.6,Win32,60,IwAR09v922AcZJCm0CH6ccaCUYaKo0m5SZsDy_MAa_u1cta1FWwMWoMLFCNxc,,,,,,,,,,,
,,,,,,,,,,,,,,p,1,0.762535,space,0.28277,0,175,175,34,1,3_dist_red/trial10.png,,,1,3,redHorizontal,p,99,27,F,2021-02-25_22h23.59.839,exp11,2020.2.6,Win32,60,IwAR09v922AcZJCm0CH6ccaCUYaKo0m5SZsDy_MAa_u1cta1FWwMWoMLFCNxc,,,,,,,,,,,
,,,,,,,,,,,,,,a,1,0.78537,space,0.323445,0,176,176,110,1,0_targ_1_dist_red/trial11.png,,,0,1,redHorizontal,a,99,27,F,2021-02-25_22h23.59.839,exp11,2020.2.6,Win32,60,IwAR09v922AcZJCm0CH6ccaCUYaKo0m5SZsDy_MAa_u1cta1FWwMWoMLFCNxc,,,,,,,,,,,
,,,,,,,,,,,,,,a,1,0.90125,space,0.361755,0,177,177,186,1,0_targ_16_dist_red/trial12.png,,,0,16,redHorizontal,a,99,27,F,2021-02-25_22h23.59.839,exp11,2020.2.6,Win32,60,IwAR09v922AcZJCm0CH6ccaCUYaKo0m5SZsDy_MAa_u1cta1FWwMWoMLFCNxc,,,,,,,,,,,
,,,,,,,,,,,,,,p,1,0.79085,space,0.273715,0,178,178,33,1,3_dist_red/trial9.png,,,1,3,redHorizontal,p,99,27,F,2021-02-25_22h23.59.839,exp11,2020.2.6,Win32,60,IwAR09v922AcZJCm0CH6ccaCUYaKo0m5SZsDy_MAa_u1cta1FWwMWoMLFCNxc,,,,,,,,,,,
,,,,,,,,,,,,,,p,1,0.56413,space,0.292365,0,179,179,21,1,0_dist_red/trial22.png,,,1,0,redHorizontal,p,99,27,F,2021-02-25_22h23.59.839,exp11,2020.2.6,Win32,60,IwAR09v922AcZJCm0CH6ccaCUYaKo0m5SZsDy_MAa_u1cta1FWwMWoMLFCNxc,,,,,,,,,,,
,,,,,,,,,,,,,,p,1,0.520165,space,0.325455,0,180,180,31,1,3_dist_red/trial7.png,,,1,3,redHorizontal,p,99,27,F,2021-02-25_22h23.59.839,exp11,2020.2.6,Win32,60,IwAR09v922AcZJCm0CH6ccaCUYaKo0m5SZsDy_MAa_u1cta1FWwMWoMLFCNxc,,,,,,,,,,,
,,,,,,,,,,,,,,p,1,0.573085,space,0.30373,0,181,181,57,1,9_dist_red/trial8.png,,,1,9,redHorizontal,p,99,27,F,2021-02-25_22h23.59.839,exp11,2020.2.6,Win32,60,IwAR09v922AcZJCm0CH6ccaCUYaKo0m5SZsDy_MAa_u1cta1FWwMWoMLFCNxc,,,,,,,,,,,
,,,,,,,,,,,,,,p,1,0.47368,space,0.2747,0,182,182,16,1,0_dist_red/trial17.png,,,1,0,redHorizontal,p,99,27,F,2021-02-25_22h23.59.839,exp11,2020.2.6,Win32,60,IwAR09v922AcZJCm0CH6ccaCUYaKo0m5SZsDy_MAa_u1cta1FWwMWoMLFCNxc,,,,,,,,,,,
,,,,,,,,,,,,,,a,1,0.52543,space,0.277425,0,183,183,104,1,0_targ_1_dist_red/trial5.png,,,0,1,redHorizontal,a,99,27,F,2021-02-25_22h23.59.839,exp11,2020.2.6,Win32,60,IwAR09v922AcZJCm0CH6ccaCUYaKo0m5SZsDy_MAa_u1cta1FWwMWoMLFCNxc,,,,,,,,,,,
,,,,,,,,,,,,,,a,1,0.79866,space,0.38598,0,184,184,117,1,0_targ_1_dist_red/trial18.png,,,0,1,redHorizontal,a,99,27,F,2021-02-25_22h23.59.839,exp11,2020.2.6,Win32,60,IwAR09v922AcZJCm0CH6ccaCUYaKo0m5SZsDy_MAa_u1cta1FWwMWoMLFCNxc,,,,,,,,,,,
,,,,,,,,,,,,,,a,1,0.497145,space,0.361445,0,185,185,111,1,0_targ_1_dist_red/trial12.png,,,0,1,redHorizontal,a,99,27,F,2021-02-25_22h23.59.839,exp11,2020.2.6,Win32,60,IwAR09v922AcZJCm0CH6ccaCUYaKo0m5SZsDy_MAa_u1cta1FWwMWoMLFCNxc,,,,,,,,,,,
,,,,,,,,,,,,,,p,1,1.140175,space,0.26907,0,186,186,98,1,15_dist_red/trial24.png,,,1,15,redHorizontal,p,99,27,F,2021-02-25_22h23.59.839,exp11,2020.2.6,Win32,60,IwAR09v922AcZJCm0CH6ccaCUYaKo0m5SZsDy_MAa_u1cta1FWwMWoMLFCNxc,,,,,,,,,,,
,,,,,,,,,,,,,,p,1,0.7107,space,0.25767,0,187,187,28,1,3_dist_red/trial4.png,,,1,3,redHorizontal,p,99,27,F,2021-02-25_22h23.59.839,exp11,2020.2.6,Win32,60,IwAR09v922AcZJCm0CH6ccaCUYaKo0m5SZsDy_MAa_u1cta1FWwMWoMLFCNxc,,,,,,,,,,,
,,,,,,,,,,,,,,p,1,0.684135,space,0.36055,0,188,188,20,1,0_dist_red/trial21.png,,,1,0,redHorizontal,p,99,27,F,2021-02-25_22h23.59.839,exp11,2020.2.6,Win32,60,IwAR09v922AcZJCm0CH6ccaCUYaKo0m5SZsDy_MAa_u1cta1FWwMWoMLFCNxc,,,,,,,,,,,
,,,,,,,,,,,,,,p,1,0.64942,space,0.29705,0,189,189,36,1,3_dist_red/trial12.png,,,1,3,redHorizontal,p,99,27,F,2021-02-25_22h23.59.839,exp11,2020.2.6,Win32,60,IwAR09v922AcZJCm0CH6ccaCUYaKo0m5SZsDy_MAa_u1cta1FWwMWoMLFCNxc,,,,,,,,,,,
,,,,,,,,,,,,,,a,1,0.70807,space,0.27467,0,190,190,127,1,0_targ_4_dist_red/trial3.png,,,0,4,redHorizontal,a,99,27,F,2021-02-25_22h23.59.839,exp11,2020.2.6,Win32,60,IwAR09v922AcZJCm0CH6ccaCUYaKo0m5SZsDy_MAa_u1cta1FWwMWoMLFCNxc,,,,,,,,,,,
,,,,,,,,,,,,,,p,1,0.6841,space,0.267925,0,191,191,24,1,0_dist_red/trial25.png,,,1,0,redHorizontal,p,99,27,F,2021-02-25_22h23.59.839,exp11,2020.2.6,Win32,60,IwAR09v922AcZJCm0CH6ccaCUYaKo0m5SZsDy_MAa_u1cta1FWwMWoMLFCNxc,,,,,,,,,,,
,,,,,,,,,,,,,,p,1,0.84462,space,0.24156,0,192,192,7,1,0_dist_red/trial8.png,,,1,0,redHorizontal,p,99,27,F,2021-02-25_22h23.59.839,exp11,2020.2.6,Win32,60,IwAR09v922AcZJCm0CH6ccaCUYaKo0m5SZsDy_MAa_u1cta1FWwMWoMLFCNxc,,,,,,,,,,,
,,,,,,,,,,,,,,a,1,0.697715,space,0.266305,0,193,193,164,1,0_targ_10_dist_red/trial15.png,,,0,10,redHorizontal,a,99,27,F,2021-02-25_22h23.59.839,exp11,2020.2.6,Win32,60,IwAR09v922AcZJCm0CH6ccaCUYaKo0m5SZsDy_MAa_u1cta1FWwMWoMLFCNxc,,,,,,,,,,,
,,,,,,,,,,,,,,p,1,0.709045,space,0.268375,0,194,194,27,1,3_dist_red/trial3.png,,,1,3,redHorizontal,p,99,27,F,2021-02-25_22h23.59.839,exp11,2020.2.6,Win32,60,IwAR09v922AcZJCm0CH6ccaCUYaKo0m5SZsDy_MAa_u1cta1FWwMWoMLFCNxc,,,,,,,,,,,
,,,,,,,,,,,,,,p,1,0.610555,space,0.293005,0,195,195,47,1,3_dist_red/trial23.png,,,1,3,redHorizontal,p,99,27,F,2021-02-25_22h23.59.839,exp11,2020.2.6,Win32,60,IwAR09v922AcZJCm0CH6ccaCUYaKo0m5SZsDy_MAa_u1cta1FWwMWoMLFCNxc,,,,,,,,,,,
,,,,,,,,,,,,,,a,1,0.70945,space,0.30543,0,196,196,150,1,0_targ_10_dist_red/trial1.png,,,0,10,redHorizontal,a,99,27,F,2021-02-25_22h23.59.839,exp11,2020.2.6,Win32,60,IwAR09v922AcZJCm0CH6ccaCUYaKo0m5SZsDy_MAa_u1cta1FWwMWoMLFCNxc,,,,,,,,,,,
,,,,,,,,,,,,,,p,0,1.114265,space,1.168185,0,197,197,194,1,0_targ_16_dist_red/trial20.png,,,0,16,redHorizontal,a,99,27,F,2021-02-25_22h23.59.839,exp11,2020.2.6,Win32,60,IwAR09v922AcZJCm0CH6ccaCUYaKo0m5SZsDy_MAa_u1cta1FWwMWoMLFCNxc,,,,,,,,,,,
,,,,,,,,,,,,,,a,1,1.05734,space,0.244195,0,198,198,108,1,0_targ_1_dist_red/trial9.png,,,0,1,redHorizontal,a,99,27,F,2021-02-25_22h23.59.839,exp11,2020.2.6,Win32,60,IwAR09v922AcZJCm0CH6ccaCUYaKo0m5SZsDy_MAa_u1cta1FWwMWoMLFCNxc,,,,,,,,,,,
,,,,,,,,,,,,,,a,1,0.513,space,0.287315,0,199,199,113,1,0_targ_1_dist_red/trial14.png,,,0,1,redHorizontal,a,99,27,F,2021-02-25_22h23.59.839,exp11,2020.2.6,Win32,60,IwAR09v922AcZJCm0CH6ccaCUYaKo0m5SZsDy_MAa_u1cta1FWwMWoMLFCNxc,,,,,,,,,,,
,,,,,,,,,,,,,,,,,,,,,,,,,,,,,,,99,27,F,2021-02-25_22h23.59.839,exp11,2020.2.6,Win32,60,IwAR09v922AcZJCm0CH6ccaCUYaKo0m5SZsDy_MAa_u1cta1FWwMWoMLFCNxc,0,1,1,1,1,conRed.xlsx,red horizontal,Look for red horizontal bar (target) and indicate if it is present or absent in the array. If red horizontal target is present press 'p' and if absent press 'a'. Press SPACE to start.,,,
