key_resp_6.keys,key_resp_6.rt,key_resp_7.keys,key_resp_7.rt,key_resp_8.keys,key_resp_8.rt,key_resp_10.keys,key_resp_10.rt,key_resp_9.keys,key_resp_9.rt,key_resp_14.keys,key_resp_14.rt,key_resp_3.keys,key_resp_3.rt,key_resp_5.keys,key_resp_5.rt,key_resp.keys,key_resp.corr,key_resp.rt,key_resp_12.keys,key_resp_12.rt,practice.thisRepN,practice.thisTrialN,practice.thisN,practice.thisIndex,practice.ran,ImageFile,targPres,correctAns,difficulty,targetName,participant,age,sex,date,expName,psychopyVersion,OS,frameRate,key_resp_13.keys,key_resp_13.rt,key_resp_4.keys,key_resp_4.rt,trials.thisRepN,trials.thisTrialN,trials.thisN,trials.thisIndex,trials.ran,trials_2.thisRepN,trials_2.thisTrialN,trials_2.thisN,trials_2.thisIndex,trials_2.ran,condsFile,targName,instructionText,stimExample,posit,size,stimSize,practiceFile,tarPos,numDist,key_resp_15.keys,key_resp_15.rt
space,4.878,space,12.727,space,6.781,space,9.369,space,3.483,space,9.006,space,25.106,space,21.981,a,1,2.133,space,26.465,0,0,0,10,1,tex_hard_TA/1.6_r=TA_seed=1.png,0,a,hard,texture,5f06eefaf3fc742667b4e79d,34,male,2021-05-03_11h59.51.799,search_v5,2021.1.2,Win32,37.515006,,,,,,,,,,,,,,,,,,,,,,,,,,
,,,,,,,,,,,,,,,,a,1,3.488,space,1.729,0,1,1,9,1,tex_easy_TA/1.7_r=TA_seed=3.png,0,a,easy,texture,5f06eefaf3fc742667b4e79d,34,male,2021-05-03_11h59.51.799,search_v5,2021.1.2,Win32,37.515006,,,,,,,,,,,,,,,,,,,,,,,,,,
,,,,,,,,,,,,,,,,a,1,1.398,space,0.534,0,2,2,11,1,tex_hard_TA/1.6_r=TA_seed=1.png,0,a,hard,texture,5f06eefaf3fc742667b4e79d,34,male,2021-05-03_11h59.51.799,search_v5,2021.1.2,Win32,37.515006,,,,,,,,,,,,,,,,,,,,,,,,,,
,,,,,,,,,,,,,,,,p,1,0.906,space,0.992,0,3,3,0,1,tex_easy_TP/1.7_r=150_phi=225_seed=3.png,1,p,easy,texture,5f06eefaf3fc742667b4e79d,34,male,2021-05-03_11h59.51.799,search_v5,2021.1.2,Win32,37.515006,,,,,,,,,,,,,,,,,,,,,,,,,,
,,,,,,,,,,,,,,,,a,1,1.921,space,3.285,0,4,4,8,1,tex_easy_TA/1.7_r=TA_seed=3.png,0,a,easy,texture,5f06eefaf3fc742667b4e79d,34,male,2021-05-03_11h59.51.799,search_v5,2021.1.2,Win32,37.515006,,,,,,,,,,,,,,,,,,,,,,,,,,
,,,,,,,,,,,,,,,,a,0,1.746,space,0.442,0,5,5,5,1,tex_mid_TP/1.65_r=100_phi=270_seed=2.png,1,p,mid,texture,5f06eefaf3fc742667b4e79d,34,male,2021-05-03_11h59.51.799,search_v5,2021.1.2,Win32,37.515006,,,,,,,,,,,,,,,,,,,,,,,,,,
,,,,,,,,,,,,,,,,a,1,3.326,space,1.649,0,6,6,6,1,tex_mid_TA/1.65_r=TA_seed=2.png,0,a,mid,texture,5f06eefaf3fc742667b4e79d,34,male,2021-05-03_11h59.51.799,search_v5,2021.1.2,Win32,37.515006,,,,,,,,,,,,,,,,,,,,,,,,,,
,,,,,,,,,,,,,,,,a,0,1.674,space,3.007,0,7,7,2,1,tex_hard_TP/1.6_r=100_phi=0_seed=1.png,1,p,hard,texture,5f06eefaf3fc742667b4e79d,34,male,2021-05-03_11h59.51.799,search_v5,2021.1.2,Win32,37.515006,,,,,,,,,,,,,,,,,,,,,,,,,,
,,,,,,,,,,,,,,,,p,0,3.572,space,1.337,0,8,8,7,1,tex_mid_TA/1.65_r=TA_seed=2.png,0,a,mid,texture,5f06eefaf3fc742667b4e79d,34,male,2021-05-03_11h59.51.799,search_v5,2021.1.2,Win32,37.515006,,,,,,,,,,,,,,,,,,,,,,,,,,
,,,,,,,,,,,,,,,,p,1,2.046,space,1.384,0,9,9,4,1,tex_mid_TP/1.65_r=100_phi=225_seed=2.png,1,p,mid,texture,5f06eefaf3fc742667b4e79d,34,male,2021-05-03_11h59.51.799,search_v5,2021.1.2,Win32,37.515006,,,,,,,,,,,,,,,,,,,,,,,,,,
,,,,,,,,,,,,,,,,p,1,1.747,space,0.806,0,10,10,1,1,tex_easy_TP/1.7_r=150_phi=315_seed=3.png,1,p,easy,texture,5f06eefaf3fc742667b4e79d,34,male,2021-05-03_11h59.51.799,search_v5,2021.1.2,Win32,37.515006,,,,,,,,,,,,,,,,,,,,,,,,,,
,,,,,,,,,,,,,,,,p,1,4.479,space,0.773,0,11,11,3,1,tex_hard_TP/1.6_r=100_phi=270_seed=1.png,1,p,hard,texture,5f06eefaf3fc742667b4e79d,34,male,2021-05-03_11h59.51.799,search_v5,2021.1.2,Win32,37.515006,,,,,,,,,,,,,,,,,,,,,,,,,,
,,,,,,,,,,,,,,,,p,1,2.971,,,,,,,,tex_mid_TP/1.65_r=250_phi=225_seed=2.png,1,p,mid,texture,5f06eefaf3fc742667b4e79d,34,male,2021-05-03_11h59.51.799,search_v5,2021.1.2,Win32,37.515006,space,17.324,space,2.506,0,0,0,64,1,,,,,,,,,,,,,,,,,
,,,,,,,,,,,,,,,,a,1,5.588,,,,,,,,tex_hard_TA/1.6_r=TA_seed=1.png,0,a,hard,texture,5f06eefaf3fc742667b4e79d,34,male,2021-05-03_11h59.51.799,search_v5,2021.1.2,Win32,37.515006,,,space,1.192,0,1,1,140,1,,,,,,,,,,,,,,,,,
,,,,,,,,,,,,,,,,p,1,2.814,,,,,,,,tex_easy_TP/1.7_r=300_phi=225_seed=3.png,1,p,easy,texture,5f06eefaf3fc742667b4e79d,34,male,2021-05-03_11h59.51.799,search_v5,2021.1.2,Win32,37.515006,,,space,0.983,0,2,2,22,1,,,,,,,,,,,,,,,,,
,,,,,,,,,,,,,,,,p,1,1.701,,,,,,,,tex_easy_TP/1.7_r=300_phi=135_seed=3.png,1,p,easy,texture,5f06eefaf3fc742667b4e79d,34,male,2021-05-03_11h59.51.799,search_v5,2021.1.2,Win32,37.515006,,,space,0.48,0,3,3,21,1,,,,,,,,,,,,,,,,,
,,,,,,,,,,,,,,,,p,1,0.904,,,,,,,,tex_hard_TP/1.6_r=200_phi=225_seed=1.png,1,p,hard,texture,5f06eefaf3fc742667b4e79d,34,male,2021-05-03_11h59.51.799,search_v5,2021.1.2,Win32,37.515006,,,space,0.42,0,4,4,39,1,,,,,,,,,,,,,,,,,
,,,,,,,,,,,,,,,,p,1,0.955,,,,,,,,tex_easy_TP/1.7_r=250_phi=135_seed=3.png,1,p,easy,texture,5f06eefaf3fc742667b4e79d,34,male,2021-05-03_11h59.51.799,search_v5,2021.1.2,Win32,37.515006,,,space,0.397,0,5,5,17,1,,,,,,,,,,,,,,,,,
,,,,,,,,,,,,,,,,p,1,0.797,,,,,,,,tex_mid_TP/1.65_r=200_phi=270_seed=2.png,1,p,mid,texture,5f06eefaf3fc742667b4e79d,34,male,2021-05-03_11h59.51.799,search_v5,2021.1.2,Win32,37.515006,,,space,0.398,0,6,6,61,1,,,,,,,,,,,,,,,,,
,,,,,,,,,,,,,,,,p,1,0.765,,,,,,,,tex_easy_TP/1.7_r=250_phi=225_seed=3.png,1,p,easy,texture,5f06eefaf3fc742667b4e79d,34,male,2021-05-03_11h59.51.799,search_v5,2021.1.2,Win32,37.515006,,,space,0.372,0,7,7,18,1,,,,,,,,,,,,,,,,,
,,,,,,,,,,,,,,,,a,1,4.306,,,,,,,,tex_hard_TA/1.6_r=TA_seed=1.png,0,a,hard,texture,5f06eefaf3fc742667b4e79d,34,male,2021-05-03_11h59.51.799,search_v5,2021.1.2,Win32,37.515006,,,space,0.767,0,8,8,144,1,,,,,,,,,,,,,,,,,
,,,,,,,,,,,,,,,,p,1,1.337,,,,,,,,tex_hard_TP/1.6_r=350_phi=90_seed=1.png,1,p,hard,texture,5f06eefaf3fc742667b4e79d,34,male,2021-05-03_11h59.51.799,search_v5,2021.1.2,Win32,37.515006,,,space,0.551,0,9,9,48,1,,,,,,,,,,,,,,,,,
,,,,,,,,,,,,,,,,a,1,3.578,,,,,,,,tex_easy_TA/1.7_r=TA_seed=3.png,0,a,easy,texture,5f06eefaf3fc742667b4e79d,34,male,2021-05-03_11h59.51.799,search_v5,2021.1.2,Win32,37.515006,,,space,0.617,0,10,10,111,1,,,,,,,,,,,,,,,,,
,,,,,,,,,,,,,,,,a,1,3.641,,,,,,,,tex_hard_TA/1.6_r=TA_seed=1.png,0,a,hard,texture,5f06eefaf3fc742667b4e79d,34,male,2021-05-03_11h59.51.799,search_v5,2021.1.2,Win32,37.515006,,,space,0.492,0,11,11,133,1,,,,,,,,,,,,,,,,,
,,,,,,,,,,,,,,,,a,1,6.298,,,,,,,,tex_mid_TA/1.65_r=TA_seed=2.png,0,a,mid,texture,5f06eefaf3fc742667b4e79d,34,male,2021-05-03_11h59.51.799,search_v5,2021.1.2,Win32,37.515006,,,space,0.452,0,12,12,7,1,,,,,,,,,,,,,,,,,
,,,,,,,,,,,,,,,,a,1,2.705,,,,,,,,tex_hard_TA/1.6_r=TA_seed=1.png,0,a,hard,texture,5f06eefaf3fc742667b4e79d,34,male,2021-05-03_11h59.51.799,search_v5,2021.1.2,Win32,37.515006,,,space,0.513,0,13,13,142,1,,,,,,,,,,,,,,,,,
,,,,,,,,,,,,,,,,a,1,3.016,,,,,,,,tex_mid_TA/1.65_r=TA_seed=2.png,0,a,mid,texture,5f06eefaf3fc742667b4e79d,34,male,2021-05-03_11h59.51.799,search_v5,2021.1.2,Win32,37.515006,,,space,0.473,0,14,14,92,1,,,,,,,,,,,,,,,,,
,,,,,,,,,,,,,,,,a,1,2.315,,,,,,,,tex_easy_TA/1.7_r=TA_seed=3.png,0,a,easy,texture,5f06eefaf3fc742667b4e79d,34,male,2021-05-03_11h59.51.799,search_v5,2021.1.2,Win32,37.515006,,,space,0.397,0,15,15,106,1,,,,,,,,,,,,,,,,,
,,,,,,,,,,,,,,,,p,1,1.289,,,,,,,,tex_easy_TP/1.7_r=400_phi=315_seed=3.png,1,p,easy,texture,5f06eefaf3fc742667b4e79d,34,male,2021-05-03_11h59.51.799,search_v5,2021.1.2,Win32,37.515006,,,space,0.419,0,16,16,30,1,,,,,,,,,,,,,,,,,
,,,,,,,,,,,,,,,,p,1,1.153,,,,,,,,tex_mid_TP/1.65_r=200_phi=45_seed=2.png,1,p,mid,texture,5f06eefaf3fc742667b4e79d,34,male,2021-05-03_11h59.51.799,search_v5,2021.1.2,Win32,37.515006,,,space,0.384,0,17,17,62,1,,,,,,,,,,,,,,,,,
,,,,,,,,,,,,,,,,p,1,0.765,,,,,,,,tex_mid_TP/1.65_r=50_phi=315_seed=2.png,1,p,mid,texture,5f06eefaf3fc742667b4e79d,34,male,2021-05-03_11h59.51.799,search_v5,2021.1.2,Win32,37.515006,,,space,0.373,0,18,18,79,1,,,,,,,,,,,,,,,,,
,,,,,,,,,,,,,,,,p,1,0.832,,,,,,,,tex_easy_TP/1.7_r=350_phi=135_seed=3.png,1,p,easy,texture,5f06eefaf3fc742667b4e79d,34,male,2021-05-03_11h59.51.799,search_v5,2021.1.2,Win32,37.515006,,,space,0.376,0,19,19,24,1,,,,,,,,,,,,,,,,,
,,,,,,,,,,,,,,,,a,1,2.158,,,,,,,,tex_mid_TA/1.65_r=TA_seed=2.png,0,a,mid,texture,5f06eefaf3fc742667b4e79d,34,male,2021-05-03_11h59.51.799,search_v5,2021.1.2,Win32,37.515006,,,space,0.542,0,20,20,96,1,,,,,,,,,,,,,,,,,
,,,,,,,,,,,,,,,,a,1,1.483,,,,,,,,tex_mid_TA/1.65_r=TA_seed=2.png,0,a,mid,texture,5f06eefaf3fc742667b4e79d,34,male,2021-05-03_11h59.51.799,search_v5,2021.1.2,Win32,37.515006,,,space,0.355,0,21,21,95,1,,,,,,,,,,,,,,,,,
,,,,,,,,,,,,,,,,a,1,1.21,,,,,,,,tex_easy_TA/1.7_r=TA_seed=3.png,0,a,easy,texture,5f06eefaf3fc742667b4e79d,34,male,2021-05-03_11h59.51.799,search_v5,2021.1.2,Win32,37.515006,,,space,0.442,0,22,22,116,1,,,,,,,,,,,,,,,,,
,,,,,,,,,,,,,,,,a,1,1.446,,,,,,,,tex_mid_TA/1.65_r=TA_seed=2.png,0,a,mid,texture,5f06eefaf3fc742667b4e79d,34,male,2021-05-03_11h59.51.799,search_v5,2021.1.2,Win32,37.515006,,,space,0.311,0,23,23,100,1,,,,,,,,,,,,,,,,,
,,,,,,,,,,,,,,,,a,1,2.272,,,,,,,,tex_hard_TA/1.6_r=TA_seed=1.png,0,a,hard,texture,5f06eefaf3fc742667b4e79d,34,male,2021-05-03_11h59.51.799,search_v5,2021.1.2,Win32,37.515006,,,space,0.426,0,24,24,141,1,,,,,,,,,,,,,,,,,
,,,,,,,,,,,,,,,,p,1,0.754,,,,,,,,tex_mid_TP/1.65_r=250_phi=180_seed=2.png,1,p,mid,texture,5f06eefaf3fc742667b4e79d,34,male,2021-05-03_11h59.51.799,search_v5,2021.1.2,Win32,37.515006,,,space,0.362,0,25,25,63,1,,,,,,,,,,,,,,,,,
,,,,,,,,,,,,,,,,a,1,1.676,,,,,,,,tex_mid_TA/1.65_r=TA_seed=2.png,0,a,mid,texture,5f06eefaf3fc742667b4e79d,34,male,2021-05-03_11h59.51.799,search_v5,2021.1.2,Win32,37.515006,,,space,0.329,0,26,26,97,1,,,,,,,,,,,,,,,,,
,,,,,,,,,,,,,,,,p,1,1.061,,,,,,,,tex_mid_TP/1.65_r=300_phi=90_seed=2.png,1,p,mid,texture,5f06eefaf3fc742667b4e79d,34,male,2021-05-03_11h59.51.799,search_v5,2021.1.2,Win32,37.515006,,,space,0.316,0,27,27,69,1,,,,,,,,,,,,,,,,,
,,,,,,,,,,,,,,,,a,1,2.508,,,,,,,,tex_easy_TA/1.7_r=TA_seed=3.png,0,a,easy,texture,5f06eefaf3fc742667b4e79d,34,male,2021-05-03_11h59.51.799,search_v5,2021.1.2,Win32,37.515006,,,space,0.42,0,28,28,105,1,,,,,,,,,,,,,,,,,
,,,,,,,,,,,,,,,,a,1,1.06,,,,,,,,tex_easy_TA/1.7_r=TA_seed=3.png,0,a,easy,texture,5f06eefaf3fc742667b4e79d,34,male,2021-05-03_11h59.51.799,search_v5,2021.1.2,Win32,37.515006,,,space,0.378,0,29,29,119,1,,,,,,,,,,,,,,,,,
,,,,,,,,,,,,,,,,a,1,1.514,,,,,,,,tex_hard_TA/1.6_r=TA_seed=1.png,0,a,hard,texture,5f06eefaf3fc742667b4e79d,34,male,2021-05-03_11h59.51.799,search_v5,2021.1.2,Win32,37.515006,,,space,0.385,0,30,30,135,1,,,,,,,,,,,,,,,,,
,,,,,,,,,,,,,,,,p,1,1.06,,,,,,,,tex_easy_TP/1.7_r=350_phi=315_seed=3.png,1,p,easy,texture,5f06eefaf3fc742667b4e79d,34,male,2021-05-03_11h59.51.799,search_v5,2021.1.2,Win32,37.515006,,,space,0.363,0,31,31,26,1,,,,,,,,,,,,,,,,,
,,,,,,,,,,,,,,,,a,1,1.43,,,,,,,,tex_mid_TA/1.65_r=TA_seed=2.png,0,a,mid,texture,5f06eefaf3fc742667b4e79d,34,male,2021-05-03_11h59.51.799,search_v5,2021.1.2,Win32,37.515006,,,space,0.373,0,32,32,93,1,,,,,,,,,,,,,,,,,
,,,,,,,,,,,,,,,,a,1,1.237,,,,,,,,tex_easy_TA/1.7_r=TA_seed=3.png,0,a,easy,texture,5f06eefaf3fc742667b4e79d,34,male,2021-05-03_11h59.51.799,search_v5,2021.1.2,Win32,37.515006,,,space,0.33,0,33,33,108,1,,,,,,,,,,,,,,,,,
,,,,,,,,,,,,,,,,a,1,1.039,,,,,,,,tex_mid_TA/1.65_r=TA_seed=2.png,0,a,mid,texture,5f06eefaf3fc742667b4e79d,34,male,2021-05-03_11h59.51.799,search_v5,2021.1.2,Win32,37.515006,,,space,0.58,0,34,34,83,1,,,,,,,,,,,,,,,,,
,,,,,,,,,,,,,,,,p,1,1.719,,,,,,,,tex_mid_TP/1.65_r=250_phi=45_seed=2.png,1,p,mid,texture,5f06eefaf3fc742667b4e79d,34,male,2021-05-03_11h59.51.799,search_v5,2021.1.2,Win32,37.515006,,,space,0.395,0,35,35,65,1,,,,,,,,,,,,,,,,,
,,,,,,,,,,,,,,,,a,1,1.849,,,,,,,,tex_mid_TA/1.65_r=TA_seed=2.png,0,a,mid,texture,5f06eefaf3fc742667b4e79d,34,male,2021-05-03_11h59.51.799,search_v5,2021.1.2,Win32,37.515006,,,space,0.625,0,36,36,103,1,,,,,,,,,,,,,,,,,
,,,,,,,,,,,,,,,,a,1,3.293,,,,,,,,tex_hard_TA/1.6_r=TA_seed=1.png,0,a,hard,texture,5f06eefaf3fc742667b4e79d,34,male,2021-05-03_11h59.51.799,search_v5,2021.1.2,Win32,37.515006,,,space,0.439,0,37,37,129,1,,,,,,,,,,,,,,,,,
,,,,,,,,,,,,,,,,a,0,3.445,,,,,,,,tex_hard_TP/1.6_r=400_phi=225_seed=1.png,1,p,hard,texture,5f06eefaf3fc742667b4e79d,34,male,2021-05-03_11h59.51.799,search_v5,2021.1.2,Win32,37.515006,,,space,0.369,0,38,38,49,1,,,,,,,,,,,,,,,,,
,,,,,,,,,,,,,,,,a,1,6.352,,,,,,,,tex_easy_TA/1.7_r=TA_seed=3.png,0,a,easy,texture,5f06eefaf3fc742667b4e79d,34,male,2021-05-03_11h59.51.799,search_v5,2021.1.2,Win32,37.515006,,,space,1.04,0,39,39,123,1,,,,,,,,,,,,,,,,,
,,,,,,,,,,,,,,,,p,1,2.377,,,,,,,,tex_hard_TP/1.6_r=350_phi=315_seed=1.png,1,p,hard,texture,5f06eefaf3fc742667b4e79d,34,male,2021-05-03_11h59.51.799,search_v5,2021.1.2,Win32,37.515006,,,space,0.549,0,40,40,47,1,,,,,,,,,,,,,,,,,
,,,,,,,,,,,,,,,,a,1,4.724,,,,,,,,tex_easy_TA/1.7_r=TA_seed=3.png,0,a,easy,texture,5f06eefaf3fc742667b4e79d,34,male,2021-05-03_11h59.51.799,search_v5,2021.1.2,Win32,37.515006,,,space,0.498,0,41,41,113,1,,,,,,,,,,,,,,,,,
,,,,,,,,,,,,,,,,p,1,0.905,,,,,,,,tex_easy_TP/1.7_r=450_phi=315_seed=3.png,1,p,easy,texture,5f06eefaf3fc742667b4e79d,34,male,2021-05-03_11h59.51.799,search_v5,2021.1.2,Win32,37.515006,,,space,0.346,0,42,42,34,1,,,,,,,,,,,,,,,,,
,,,,,,,,,,,,,,,,a,1,5.06,,,,,,,,tex_easy_TA/1.7_r=TA_seed=3.png,0,a,easy,texture,5f06eefaf3fc742667b4e79d,34,male,2021-05-03_11h59.51.799,search_v5,2021.1.2,Win32,37.515006,,,space,0.495,0,43,43,110,1,,,,,,,,,,,,,,,,,
,,,,,,,,,,,,,,,,a,1,5.457,,,,,,,,tex_hard_TA/1.6_r=TA_seed=1.png,0,a,hard,texture,5f06eefaf3fc742667b4e79d,34,male,2021-05-03_11h59.51.799,search_v5,2021.1.2,Win32,37.515006,,,space,0.489,0,44,44,128,1,,,,,,,,,,,,,,,,,
,,,,,,,,,,,,,,,,a,0,3.498,,,,,,,,tex_hard_TP/1.6_r=250_phi=225_seed=1.png,1,p,hard,texture,5f06eefaf3fc742667b4e79d,34,male,2021-05-03_11h59.51.799,search_v5,2021.1.2,Win32,37.515006,,,space,2.167,0,45,45,42,1,,,,,,,,,,,,,,,,,
,,,,,,,,,,,,,,,,a,1,6.482,,,,,,,,tex_mid_TA/1.65_r=TA_seed=2.png,0,a,mid,texture,5f06eefaf3fc742667b4e79d,34,male,2021-05-03_11h59.51.799,search_v5,2021.1.2,Win32,37.515006,,,space,0.527,0,46,46,86,1,,,,,,,,,,,,,,,,,
,,,,,,,,,,,,,,,,p,1,1.038,,,,,,,,tex_easy_TP/1.7_r=400_phi=225_seed=3.png,1,p,easy,texture,5f06eefaf3fc742667b4e79d,34,male,2021-05-03_11h59.51.799,search_v5,2021.1.2,Win32,37.515006,,,space,0.442,0,47,47,29,1,,,,,,,,,,,,,,,,,
,,,,,,,,,,,,,,,,p,1,0.703,,,,,,,,tex_easy_TP/1.7_r=350_phi=225_seed=3.png,1,p,easy,texture,5f06eefaf3fc742667b4e79d,34,male,2021-05-03_11h59.51.799,search_v5,2021.1.2,Win32,37.515006,,,space,0.411,0,48,48,25,1,,,,,,,,,,,,,,,,,
,,,,,,,,,,,,,,,,p,1,0.701,,,,,,,,tex_easy_TP/1.7_r=150_phi=225_seed=3.png,1,p,easy,texture,5f06eefaf3fc742667b4e79d,34,male,2021-05-03_11h59.51.799,search_v5,2021.1.2,Win32,37.515006,,,space,0.407,0,49,49,0,1,,,,,,,,,,,,,,,,,
,,,,,,,,,,,,,,,,p,1,0.959,,,,,,,,tex_easy_TP/1.7_r=150_phi=90_seed=3.png,1,p,easy,texture,5f06eefaf3fc742667b4e79d,34,male,2021-05-03_11h59.51.799,search_v5,2021.1.2,Win32,37.515006,,,space,0.374,0,50,50,12,1,,,,,,,,,,,,,,,,,
,,,,,,,,,,,,,,,,p,1,1.632,,,,,,,,tex_mid_TP/1.65_r=300_phi=225_seed=2.png,1,p,mid,texture,5f06eefaf3fc742667b4e79d,34,male,2021-05-03_11h59.51.799,search_v5,2021.1.2,Win32,37.515006,,,space,0.395,0,51,51,67,1,,,,,,,,,,,,,,,,,
,,,,,,,,,,,,,,,,a,1,5.179,,,,,,,,tex_easy_TA/1.7_r=TA_seed=3.png,0,a,easy,texture,5f06eefaf3fc742667b4e79d,34,male,2021-05-03_11h59.51.799,search_v5,2021.1.2,Win32,37.515006,,,space,0.524,0,52,52,115,1,,,,,,,,,,,,,,,,,
,,,,,,,,,,,,,,,,a,1,8.349,,,,,,,,tex_hard_TA/1.6_r=TA_seed=1.png,0,a,hard,texture,5f06eefaf3fc742667b4e79d,34,male,2021-05-03_11h59.51.799,search_v5,2021.1.2,Win32,37.515006,,,space,0.518,0,53,53,147,1,,,,,,,,,,,,,,,,,
,,,,,,,,,,,,,,,,p,1,0.783,,,,,,,,tex_mid_TP/1.65_r=200_phi=225_seed=2.png,1,p,mid,texture,5f06eefaf3fc742667b4e79d,34,male,2021-05-03_11h59.51.799,search_v5,2021.1.2,Win32,37.515006,,,space,0.412,0,54,54,60,1,,,,,,,,,,,,,,,,,
,,,,,,,,,,,,,,,,p,1,1.122,,,,,,,,tex_easy_TP/1.7_r=400_phi=135_seed=3.png,1,p,easy,texture,5f06eefaf3fc742667b4e79d,34,male,2021-05-03_11h59.51.799,search_v5,2021.1.2,Win32,37.515006,,,space,0.343,0,55,55,28,1,,,,,,,,,,,,,,,,,
,,,,,,,,,,,,,,,,p,0,5.821,,,,,,,,tex_easy_TA/1.7_r=TA_seed=3.png,0,a,easy,texture,5f06eefaf3fc742667b4e79d,34,male,2021-05-03_11h59.51.799,search_v5,2021.1.2,Win32,37.515006,,,space,3.295,0,56,56,104,1,,,,,,,,,,,,,,,,,
,,,,,,,,,,,,,,,,p,1,1.32,,,,,,,,tex_hard_TP/1.6_r=50_phi=315_seed=1.png,1,p,hard,texture,5f06eefaf3fc742667b4e79d,34,male,2021-05-03_11h59.51.799,search_v5,2021.1.2,Win32,37.515006,,,space,0.337,0,57,57,57,1,,,,,,,,,,,,,,,,,
,,,,,,,,,,,,,,,,a,1,4.219,,,,,,,,tex_mid_TA/1.65_r=TA_seed=2.png,0,a,mid,texture,5f06eefaf3fc742667b4e79d,34,male,2021-05-03_11h59.51.799,search_v5,2021.1.2,Win32,37.515006,,,space,0.424,0,58,58,81,1,,,,,,,,,,,,,,,,,
,,,,,,,,,,,,,,,,a,1,2.293,,,,,,,,tex_easy_TA/1.7_r=TA_seed=3.png,0,a,easy,texture,5f06eefaf3fc742667b4e79d,34,male,2021-05-03_11h59.51.799,search_v5,2021.1.2,Win32,37.515006,,,space,0.386,0,59,59,118,1,,,,,,,,,,,,,,,,,
,,,,,,,,,,,,,,,,a,1,1.725,,,,,,,,tex_easy_TA/1.7_r=TA_seed=3.png,0,a,easy,texture,5f06eefaf3fc742667b4e79d,34,male,2021-05-03_11h59.51.799,search_v5,2021.1.2,Win32,37.515006,,,space,0.387,0,60,60,126,1,,,,,,,,,,,,,,,,,
,,,,,,,,,,,,,,,,p,1,0.906,,,,,,,,tex_easy_TP/1.7_r=300_phi=315_seed=3.png,1,p,easy,texture,5f06eefaf3fc742667b4e79d,34,male,2021-05-03_11h59.51.799,search_v5,2021.1.2,Win32,37.515006,,,space,0.345,0,61,61,23,1,,,,,,,,,,,,,,,,,
,,,,,,,,,,,,,,,,a,1,4.408,,,,,,,,tex_hard_TA/1.6_r=TA_seed=1.png,0,a,hard,texture,5f06eefaf3fc742667b4e79d,34,male,2021-05-03_11h59.51.799,search_v5,2021.1.2,Win32,37.515006,,,space,0.441,0,62,62,134,1,,,,,,,,,,,,,,,,,
,,,,,,,,,,,,,,,,p,1,0.837,,,,,,,,tex_mid_TP/1.65_r=50_phi=270_seed=2.png,1,p,mid,texture,5f06eefaf3fc742667b4e79d,34,male,2021-05-03_11h59.51.799,search_v5,2021.1.2,Win32,37.515006,,,space,0.379,0,63,63,78,1,,,,,,,,,,,,,,,,,
,,,,,,,,,,,,,,,,p,1,1.924,,,,,,,,tex_mid_TP/1.65_r=300_phi=315_seed=2.png,1,p,mid,texture,5f06eefaf3fc742667b4e79d,34,male,2021-05-03_11h59.51.799,search_v5,2021.1.2,Win32,37.515006,,,space,0.406,0,64,64,68,1,,,,,,,,,,,,,,,,,
,,,,,,,,,,,,,,,,a,1,2.933,,,,,,,,tex_hard_TA/1.6_r=TA_seed=1.png,0,a,hard,texture,5f06eefaf3fc742667b4e79d,34,male,2021-05-03_11h59.51.799,search_v5,2021.1.2,Win32,37.515006,,,space,0.38,0,65,65,137,1,,,,,,,,,,,,,,,,,
,,,,,,,,,,,,,,,,a,1,4.233,,,,,,,,tex_mid_TA/1.65_r=TA_seed=2.png,0,a,mid,texture,5f06eefaf3fc742667b4e79d,34,male,2021-05-03_11h59.51.799,search_v5,2021.1.2,Win32,37.515006,,,space,0.393,0,66,66,101,1,,,,,,,,,,,,,,,,,
,,,,,,,,,,,,,,,,a,1,3.827,,,,,,,,tex_hard_TA/1.6_r=TA_seed=1.png,0,a,hard,texture,5f06eefaf3fc742667b4e79d,34,male,2021-05-03_11h59.51.799,search_v5,2021.1.2,Win32,37.515006,,,space,0.382,0,67,67,145,1,,,,,,,,,,,,,,,,,
,,,,,,,,,,,,,,,,p,1,0.783,,,,,,,,tex_mid_TP/1.65_r=100_phi=225_seed=2.png,1,p,mid,texture,5f06eefaf3fc742667b4e79d,34,male,2021-05-03_11h59.51.799,search_v5,2021.1.2,Win32,37.515006,,,space,0.323,0,68,68,4,1,,,,,,,,,,,,,,,,,
,,,,,,,,,,,,,,,,p,1,0.778,,,,,,,,tex_mid_TP/1.65_r=50_phi=45_seed=2.png,1,p,mid,texture,5f06eefaf3fc742667b4e79d,34,male,2021-05-03_11h59.51.799,search_v5,2021.1.2,Win32,37.515006,,,space,0.329,0,69,69,80,1,,,,,,,,,,,,,,,,,
,,,,,,,,,,,,,,,,a,1,2.598,,,,,,,,tex_easy_TA/1.7_r=TA_seed=3.png,0,a,easy,texture,5f06eefaf3fc742667b4e79d,34,male,2021-05-03_11h59.51.799,search_v5,2021.1.2,Win32,37.515006,,,space,0.44,0,70,70,9,1,,,,,,,,,,,,,,,,,
,,,,,,,,,,,,,,,,a,0,4.426,,,,,,,,tex_hard_TP/1.6_r=300_phi=90_seed=1.png,1,p,hard,texture,5f06eefaf3fc742667b4e79d,34,male,2021-05-03_11h59.51.799,search_v5,2021.1.2,Win32,37.515006,,,space,4.225,0,71,71,46,1,,,,,,,,,,,,,,,,,
,,,,,,,,,,,,,,,,a,1,5.203,,,,,,,,tex_easy_TA/1.7_r=TA_seed=3.png,0,a,easy,texture,5f06eefaf3fc742667b4e79d,34,male,2021-05-03_11h59.51.799,search_v5,2021.1.2,Win32,37.515006,,,space,0.419,0,72,72,8,1,,,,,,,,,,,,,,,,,
,,,,,,,,,,,,,,,,a,1,2.787,,,,,,,,tex_easy_TA/1.7_r=TA_seed=3.png,0,a,easy,texture,5f06eefaf3fc742667b4e79d,34,male,2021-05-03_11h59.51.799,search_v5,2021.1.2,Win32,37.515006,,,space,0.43,0,73,73,124,1,,,,,,,,,,,,,,,,,
,,,,,,,,,,,,,,,,a,1,3.686,,,,,,,,tex_mid_TA/1.65_r=TA_seed=2.png,0,a,mid,texture,5f06eefaf3fc742667b4e79d,34,male,2021-05-03_11h59.51.799,search_v5,2021.1.2,Win32,37.515006,,,space,0.361,0,74,74,91,1,,,,,,,,,,,,,,,,,
,,,,,,,,,,,,,,,,a,1,2.135,,,,,,,,tex_easy_TA/1.7_r=TA_seed=3.png,0,a,easy,texture,5f06eefaf3fc742667b4e79d,34,male,2021-05-03_11h59.51.799,search_v5,2021.1.2,Win32,37.515006,,,space,0.425,0,75,75,125,1,,,,,,,,,,,,,,,,,
,,,,,,,,,,,,,,,,a,0,5.359,,,,,,,,tex_hard_TP/1.6_r=50_phi=225_seed=1.png,1,p,hard,texture,5f06eefaf3fc742667b4e79d,34,male,2021-05-03_11h59.51.799,search_v5,2021.1.2,Win32,37.515006,,,space,4.144,0,76,76,56,1,,,,,,,,,,,,,,,,,
,,,,,,,,,,,,,,,,a,1,9.018,,,,,,,,tex_hard_TA/1.6_r=TA_seed=1.png,0,a,hard,texture,5f06eefaf3fc742667b4e79d,34,male,2021-05-03_11h59.51.799,search_v5,2021.1.2,Win32,37.515006,,,space,0.43,0,77,77,146,1,,,,,,,,,,,,,,,,,
,,,,,,,,,,,,,,,,a,0,4.111,,,,,,,,tex_hard_TP/1.6_r=400_phi=90_seed=1.png,1,p,hard,texture,5f06eefaf3fc742667b4e79d,34,male,2021-05-03_11h59.51.799,search_v5,2021.1.2,Win32,37.515006,,,space,0.396,0,78,78,51,1,,,,,,,,,,,,,,,,,
,,,,,,,,,,,,,,,,a,1,6.39,,,,,,,,tex_mid_TA/1.65_r=TA_seed=2.png,0,a,mid,texture,5f06eefaf3fc742667b4e79d,34,male,2021-05-03_11h59.51.799,search_v5,2021.1.2,Win32,37.515006,,,space,0.425,0,79,79,85,1,,,,,,,,,,,,,,,,,
,,,,,,,,,,,,,,,,a,1,3.164,,,,,,,,tex_mid_TA/1.65_r=TA_seed=2.png,0,a,mid,texture,5f06eefaf3fc742667b4e79d,34,male,2021-05-03_11h59.51.799,search_v5,2021.1.2,Win32,37.515006,,,space,0.404,0,80,80,90,1,,,,,,,,,,,,,,,,,
,,,,,,,,,,,,,,,,a,1,6.991,,,,,,,,tex_hard_TA/1.6_r=TA_seed=1.png,0,a,hard,texture,5f06eefaf3fc742667b4e79d,34,male,2021-05-03_11h59.51.799,search_v5,2021.1.2,Win32,37.515006,,,space,0.502,0,81,81,127,1,,,,,,,,,,,,,,,,,
,,,,,,,,,,,,,,,,a,1,1.836,,,,,,,,tex_mid_TA/1.65_r=TA_seed=2.png,0,a,mid,texture,5f06eefaf3fc742667b4e79d,34,male,2021-05-03_11h59.51.799,search_v5,2021.1.2,Win32,37.515006,,,space,0.422,0,82,82,102,1,,,,,,,,,,,,,,,,,
,,,,,,,,,,,,,,,,a,0,5.11,,,,,,,,tex_hard_TP/1.6_r=300_phi=315_seed=1.png,1,p,hard,texture,5f06eefaf3fc742667b4e79d,34,male,2021-05-03_11h59.51.799,search_v5,2021.1.2,Win32,37.515006,,,space,1.054,0,83,83,45,1,,,,,,,,,,,,,,,,,
,,,,,,,,,,,,,,,,p,1,0.922,,,,,,,,tex_easy_TP/1.7_r=250_phi=90_seed=3.png,1,p,easy,texture,5f06eefaf3fc742667b4e79d,34,male,2021-05-03_11h59.51.799,search_v5,2021.1.2,Win32,37.515006,,,space,0.356,0,84,84,20,1,,,,,,,,,,,,,,,,,
,,,,,,,,,,,,,,,,p,1,1.298,,,,,,,,tex_mid_TP/1.65_r=350_phi=0_seed=2.png,1,p,mid,texture,5f06eefaf3fc742667b4e79d,34,male,2021-05-03_11h59.51.799,search_v5,2021.1.2,Win32,37.515006,,,space,0.3,0,85,85,70,1,,,,,,,,,,,,,,,,,
,,,,,,,,,,,,,,,,p,1,0.931,,,,,,,,tex_easy_TP/1.7_r=200_phi=315_seed=3.png,1,p,easy,texture,5f06eefaf3fc742667b4e79d,34,male,2021-05-03_11h59.51.799,search_v5,2021.1.2,Win32,37.515006,,,space,0.36,0,86,86,15,1,,,,,,,,,,,,,,,,,
,,,,,,,,,,,,,,,,a,1,4.559,,,,,,,,tex_hard_TA/1.6_r=TA_seed=1.png,0,a,hard,texture,5f06eefaf3fc742667b4e79d,34,male,2021-05-03_11h59.51.799,search_v5,2021.1.2,Win32,37.515006,,,space,0.439,0,87,87,136,1,,,,,,,,,,,,,,,,,
,,,,,,,,,,,,,,,,p,1,1.299,,,,,,,,tex_mid_TP/1.65_r=400_phi=315_seed=2.png,1,p,mid,texture,5f06eefaf3fc742667b4e79d,34,male,2021-05-03_11h59.51.799,search_v5,2021.1.2,Win32,37.515006,,,space,0.369,0,88,88,73,1,,,,,,,,,,,,,,,,,
,,,,,,,,,,,,,,,,a,1,4.848,,,,,,,,tex_hard_TA/1.6_r=TA_seed=1.png,0,a,hard,texture,5f06eefaf3fc742667b4e79d,34,male,2021-05-03_11h59.51.799,search_v5,2021.1.2,Win32,37.515006,,,space,0.434,0,89,89,130,1,,,,,,,,,,,,,,,,,
,,,,,,,,,,,,,,,,a,1,3.935,,,,,,,,tex_easy_TA/1.7_r=TA_seed=3.png,0,a,easy,texture,5f06eefaf3fc742667b4e79d,34,male,2021-05-03_11h59.51.799,search_v5,2021.1.2,Win32,37.515006,,,space,0.383,0,90,90,109,1,,,,,,,,,,,,,,,,,
,,,,,,,,,,,,,,,,p,1,2.555,,,,,,,,tex_mid_TP/1.65_r=450_phi=0_seed=2.png,1,p,mid,texture,5f06eefaf3fc742667b4e79d,34,male,2021-05-03_11h59.51.799,search_v5,2021.1.2,Win32,37.515006,,,space,0.773,0,91,91,75,1,,,,,,,,,,,,,,,,,
,,,,,,,,,,,,,,,,p,1,1.411,,,,,,,,tex_hard_TP/1.6_r=150_phi=90_seed=1.png,1,p,hard,texture,5f06eefaf3fc742667b4e79d,34,male,2021-05-03_11h59.51.799,search_v5,2021.1.2,Win32,37.515006,,,space,0.343,0,92,92,37,1,,,,,,,,,,,,,,,,,
,,,,,,,,,,,,,,,,p,1,1.304,,,,,,,,tex_easy_TP/1.7_r=350_phi=90_seed=3.png,1,p,easy,texture,5f06eefaf3fc742667b4e79d,34,male,2021-05-03_11h59.51.799,search_v5,2021.1.2,Win32,37.515006,,,space,0.341,0,93,93,27,1,,,,,,,,,,,,,,,,,
,,,,,,,,,,,,,,,,a,1,3.228,,,,,,,,tex_easy_TA/1.7_r=TA_seed=3.png,0,a,easy,texture,5f06eefaf3fc742667b4e79d,34,male,2021-05-03_11h59.51.799,search_v5,2021.1.2,Win32,37.515006,,,space,0.362,0,94,94,117,1,,,,,,,,,,,,,,,,,
,,,,,,,,,,,,,,,,a,1,3.276,,,,,,,,tex_mid_TA/1.65_r=TA_seed=2.png,0,a,mid,texture,5f06eefaf3fc742667b4e79d,34,male,2021-05-03_11h59.51.799,search_v5,2021.1.2,Win32,37.515006,,,space,0.352,0,95,95,94,1,,,,,,,,,,,,,,,,,
,,,,,,,,,,,,,,,,a,0,5.734,,,,,,,,tex_hard_TP/1.6_r=100_phi=270_seed=1.png,1,p,hard,texture,5f06eefaf3fc742667b4e79d,34,male,2021-05-03_11h59.51.799,search_v5,2021.1.2,Win32,37.515006,,,space,0.814,0,96,96,3,1,,,,,,,,,,,,,,,,,
,,,,,,,,,,,,,,,,a,1,3.179,,,,,,,,tex_hard_TA/1.6_r=TA_seed=1.png,0,a,hard,texture,5f06eefaf3fc742667b4e79d,34,male,2021-05-03_11h59.51.799,search_v5,2021.1.2,Win32,37.515006,,,space,0.385,0,97,97,139,1,,,,,,,,,,,,,,,,,
,,,,,,,,,,,,,,,,a,0,4.475,,,,,,,,tex_hard_TP/1.6_r=450_phi=90_seed=1.png,1,p,hard,texture,5f06eefaf3fc742667b4e79d,34,male,2021-05-03_11h59.51.799,search_v5,2021.1.2,Win32,37.515006,,,space,2.739,0,98,98,54,1,,,,,,,,,,,,,,,,,
,,,,,,,,,,,,,,,,a,1,7.004,,,,,,,,tex_easy_TA/1.7_r=TA_seed=3.png,0,a,easy,texture,5f06eefaf3fc742667b4e79d,34,male,2021-05-03_11h59.51.799,search_v5,2021.1.2,Win32,37.515006,,,space,0.417,0,99,99,120,1,,,,,,,,,,,,,,,,,
,,,,,,,,,,,,,,,,a,1,1.737,,,,,,,,tex_mid_TA/1.65_r=TA_seed=2.png,0,a,mid,texture,5f06eefaf3fc742667b4e79d,34,male,2021-05-03_11h59.51.799,search_v5,2021.1.2,Win32,37.515006,,,space,0.393,0,100,100,87,1,,,,,,,,,,,,,,,,,
,,,,,,,,,,,,,,,,a,1,3.06,,,,,,,,tex_hard_TA/1.6_r=TA_seed=1.png,0,a,hard,texture,5f06eefaf3fc742667b4e79d,34,male,2021-05-03_11h59.51.799,search_v5,2021.1.2,Win32,37.515006,,,space,0.402,0,101,101,149,1,,,,,,,,,,,,,,,,,
,,,,,,,,,,,,,,,,p,1,1.131,,,,,,,,tex_easy_TP/1.7_r=400_phi=90_seed=3.png,1,p,easy,texture,5f06eefaf3fc742667b4e79d,34,male,2021-05-03_11h59.51.799,search_v5,2021.1.2,Win32,37.515006,,,space,0.359,0,102,102,31,1,,,,,,,,,,,,,,,,,
,,,,,,,,,,,,,,,,p,1,4.761,,,,,,,,tex_hard_TP/1.6_r=100_phi=0_seed=1.png,1,p,hard,texture,5f06eefaf3fc742667b4e79d,34,male,2021-05-03_11h59.51.799,search_v5,2021.1.2,Win32,37.515006,,,space,0.423,0,103,103,2,1,,,,,,,,,,,,,,,,,
,,,,,,,,,,,,,,,,p,1,3.356,,,,,,,,tex_hard_TP/1.6_r=50_phi=135_seed=1.png,1,p,hard,texture,5f06eefaf3fc742667b4e79d,34,male,2021-05-03_11h59.51.799,search_v5,2021.1.2,Win32,37.515006,,,space,0.384,0,104,104,55,1,,,,,,,,,,,,,,,,,
,,,,,,,,,,,,,,,,a,1,6.498,,,,,,,,tex_mid_TA/1.65_r=TA_seed=2.png,0,a,mid,texture,5f06eefaf3fc742667b4e79d,34,male,2021-05-03_11h59.51.799,search_v5,2021.1.2,Win32,37.515006,,,space,0.441,0,105,105,82,1,,,,,,,,,,,,,,,,,
,,,,,,,,,,,,,,,,p,1,1.322,,,,,,,,tex_hard_TP/1.6_r=200_phi=135_seed=1.png,1,p,hard,texture,5f06eefaf3fc742667b4e79d,34,male,2021-05-03_11h59.51.799,search_v5,2021.1.2,Win32,37.515006,,,space,0.347,0,106,106,38,1,,,,,,,,,,,,,,,,,
,,,,,,,,,,,,,,,,a,0,4.581,,,,,,,,tex_hard_TP/1.6_r=400_phi=315_seed=1.png,1,p,hard,texture,5f06eefaf3fc742667b4e79d,34,male,2021-05-03_11h59.51.799,search_v5,2021.1.2,Win32,37.515006,,,space,0.491,0,107,107,50,1,,,,,,,,,,,,,,,,,
,,,,,,,,,,,,,,,,p,1,1.146,,,,,,,,tex_hard_TP/1.6_r=150_phi=135_seed=1.png,1,p,hard,texture,5f06eefaf3fc742667b4e79d,34,male,2021-05-03_11h59.51.799,search_v5,2021.1.2,Win32,37.515006,,,space,0.353,0,108,108,36,1,,,,,,,,,,,,,,,,,
,,,,,,,,,,,,,,,,a,0,5.875,,,,,,,,tex_hard_TP/1.6_r=300_phi=225_seed=1.png,1,p,hard,texture,5f06eefaf3fc742667b4e79d,34,male,2021-05-03_11h59.51.799,search_v5,2021.1.2,Win32,37.515006,,,space,0.175,0,109,109,44,1,,,,,,,,,,,,,,,,,
,,,,,,,,,,,,,,,,a,1,8.374,,,,,,,,tex_mid_TA/1.65_r=TA_seed=2.png,0,a,mid,texture,5f06eefaf3fc742667b4e79d,34,male,2021-05-03_11h59.51.799,search_v5,2021.1.2,Win32,37.515006,,,space,0.492,0,110,110,84,1,,,,,,,,,,,,,,,,,
,,,,,,,,,,,,,,,,p,1,1.687,,,,,,,,tex_easy_TP/1.7_r=150_phi=315_seed=3.png,1,p,easy,texture,5f06eefaf3fc742667b4e79d,34,male,2021-05-03_11h59.51.799,search_v5,2021.1.2,Win32,37.515006,,,space,0.318,0,111,111,1,1,,,,,,,,,,,,,,,,,
,,,,,,,,,,,,,,,,a,1,4.42,,,,,,,,tex_hard_TA/1.6_r=TA_seed=1.png,0,a,hard,texture,5f06eefaf3fc742667b4e79d,34,male,2021-05-03_11h59.51.799,search_v5,2021.1.2,Win32,37.515006,,,space,0.407,0,112,112,11,1,,,,,,,,,,,,,,,,,
,,,,,,,,,,,,,,,,p,1,0.894,,,,,,,,tex_mid_TP/1.65_r=150_phi=45_seed=2.png,1,p,mid,texture,5f06eefaf3fc742667b4e79d,34,male,2021-05-03_11h59.51.799,search_v5,2021.1.2,Win32,37.515006,,,space,0.359,0,113,113,59,1,,,,,,,,,,,,,,,,,
,,,,,,,,,,,,,,,,a,1,3.744,,,,,,,,tex_mid_TA/1.65_r=TA_seed=2.png,0,a,mid,texture,5f06eefaf3fc742667b4e79d,34,male,2021-05-03_11h59.51.799,search_v5,2021.1.2,Win32,37.515006,,,space,0.37,0,114,114,89,1,,,,,,,,,,,,,,,,,
,,,,,,,,,,,,,,,,a,1,4.04,,,,,,,,tex_easy_TA/1.7_r=TA_seed=3.png,0,a,easy,texture,5f06eefaf3fc742667b4e79d,34,male,2021-05-03_11h59.51.799,search_v5,2021.1.2,Win32,37.515006,,,space,0.413,0,115,115,107,1,,,,,,,,,,,,,,,,,
,,,,,,,,,,,,,,,,p,1,1.178,,,,,,,,tex_easy_TP/1.7_r=450_phi=225_seed=3.png,1,p,easy,texture,5f06eefaf3fc742667b4e79d,34,male,2021-05-03_11h59.51.799,search_v5,2021.1.2,Win32,37.515006,,,space,0.342,0,116,116,33,1,,,,,,,,,,,,,,,,,
,,,,,,,,,,,,,,,,p,1,0.801,,,,,,,,tex_mid_TP/1.65_r=100_phi=270_seed=2.png,1,p,mid,texture,5f06eefaf3fc742667b4e79d,34,male,2021-05-03_11h59.51.799,search_v5,2021.1.2,Win32,37.515006,,,space,0.299,0,117,117,5,1,,,,,,,,,,,,,,,,,
,,,,,,,,,,,,,,,,p,1,2.186,,,,,,,,tex_mid_TP/1.65_r=400_phi=0_seed=2.png,1,p,mid,texture,5f06eefaf3fc742667b4e79d,34,male,2021-05-03_11h59.51.799,search_v5,2021.1.2,Win32,37.515006,,,space,0.3,0,118,118,72,1,,,,,,,,,,,,,,,,,
,,,,,,,,,,,,,,,,a,0,3.78,,,,,,,,tex_hard_TP/1.6_r=450_phi=315_seed=1.png,1,p,hard,texture,5f06eefaf3fc742667b4e79d,34,male,2021-05-03_11h59.51.799,search_v5,2021.1.2,Win32,37.515006,,,space,0.679,0,119,119,53,1,,,,,,,,,,,,,,,,,
,,,,,,,,,,,,,,,,a,1,9.115,,,,,,,,tex_mid_TA/1.65_r=TA_seed=2.png,0,a,mid,texture,5f06eefaf3fc742667b4e79d,34,male,2021-05-03_11h59.51.799,search_v5,2021.1.2,Win32,37.515006,,,space,0.428,0,120,120,98,1,,,,,,,,,,,,,,,,,
,,,,,,,,,,,,,,,,a,0,7.513,,,,,,,,tex_hard_TP/1.6_r=200_phi=315_seed=1.png,1,p,hard,texture,5f06eefaf3fc742667b4e79d,34,male,2021-05-03_11h59.51.799,search_v5,2021.1.2,Win32,37.515006,,,space,1.809,0,121,121,40,1,,,,,,,,,,,,,,,,,
,,,,,,,,,,,,,,,,a,1,10.005,,,,,,,,tex_hard_TA/1.6_r=TA_seed=1.png,0,a,hard,texture,5f06eefaf3fc742667b4e79d,34,male,2021-05-03_11h59.51.799,search_v5,2021.1.2,Win32,37.515006,,,space,0.433,0,122,122,138,1,,,,,,,,,,,,,,,,,
,,,,,,,,,,,,,,,,p,0,2.821,,,,,,,,tex_hard_TA/1.6_r=TA_seed=1.png,0,a,hard,texture,5f06eefaf3fc742667b4e79d,34,male,2021-05-03_11h59.51.799,search_v5,2021.1.2,Win32,37.515006,,,space,0.167,0,123,123,143,1,,,,,,,,,,,,,,,,,
,,,,,,,,,,,,,,,,p,1,0.822,,,,,,,,tex_mid_TP/1.65_r=100_phi=45_seed=2.png,1,p,mid,texture,5f06eefaf3fc742667b4e79d,34,male,2021-05-03_11h59.51.799,search_v5,2021.1.2,Win32,37.515006,,,space,0.3,0,124,124,58,1,,,,,,,,,,,,,,,,,
,,,,,,,,,,,,,,,,p,1,2.111,,,,,,,,tex_mid_TP/1.65_r=450_phi=135_seed=2.png,1,p,mid,texture,5f06eefaf3fc742667b4e79d,34,male,2021-05-03_11h59.51.799,search_v5,2021.1.2,Win32,37.515006,,,space,0.282,0,125,125,76,1,,,,,,,,,,,,,,,,,
,,,,,,,,,,,,,,,,a,1,3.246,,,,,,,,tex_mid_TA/1.65_r=TA_seed=2.png,0,a,mid,texture,5f06eefaf3fc742667b4e79d,34,male,2021-05-03_11h59.51.799,search_v5,2021.1.2,Win32,37.515006,,,space,0.399,0,126,126,6,1,,,,,,,,,,,,,,,,,
,,,,,,,,,,,,,,,,a,0,1.797,,,,,,,,tex_hard_TP/1.6_r=250_phi=315_seed=1.png,1,p,hard,texture,5f06eefaf3fc742667b4e79d,34,male,2021-05-03_11h59.51.799,search_v5,2021.1.2,Win32,37.515006,,,space,0.795,0,127,127,43,1,,,,,,,,,,,,,,,,,
,,,,,,,,,,,,,,,,a,1,5.43,,,,,,,,tex_hard_TA/1.6_r=TA_seed=1.png,0,a,hard,texture,5f06eefaf3fc742667b4e79d,34,male,2021-05-03_11h59.51.799,search_v5,2021.1.2,Win32,37.515006,,,space,0.424,0,128,128,148,1,,,,,,,,,,,,,,,,,
,,,,,,,,,,,,,,,,p,1,1.545,,,,,,,,tex_hard_TP/1.6_r=250_phi=135_seed=1.png,1,p,hard,texture,5f06eefaf3fc742667b4e79d,34,male,2021-05-03_11h59.51.799,search_v5,2021.1.2,Win32,37.515006,,,space,0.443,0,129,129,41,1,,,,,,,,,,,,,,,,,
,,,,,,,,,,,,,,,,p,1,0.73,,,,,,,,tex_easy_TP/1.7_r=200_phi=225_seed=3.png,1,p,easy,texture,5f06eefaf3fc742667b4e79d,34,male,2021-05-03_11h59.51.799,search_v5,2021.1.2,Win32,37.515006,,,space,0.328,0,130,130,14,1,,,,,,,,,,,,,,,,,
,,,,,,,,,,,,,,,,a,1,4.249,,,,,,,,tex_easy_TA/1.7_r=TA_seed=3.png,0,a,easy,texture,5f06eefaf3fc742667b4e79d,34,male,2021-05-03_11h59.51.799,search_v5,2021.1.2,Win32,37.515006,,,space,0.386,0,131,131,112,1,,,,,,,,,,,,,,,,,
,,,,,,,,,,,,,,,,p,0,3.105,,,,,,,,tex_mid_TA/1.65_r=TA_seed=2.png,0,a,mid,texture,5f06eefaf3fc742667b4e79d,34,male,2021-05-03_11h59.51.799,search_v5,2021.1.2,Win32,37.515006,,,space,0.079,0,132,132,88,1,,,,,,,,,,,,,,,,,
,,,,,,,,,,,,,,,,p,1,1.236,,,,,,,,tex_mid_TP/1.65_r=450_phi=90_seed=2.png,1,p,mid,texture,5f06eefaf3fc742667b4e79d,34,male,2021-05-03_11h59.51.799,search_v5,2021.1.2,Win32,37.515006,,,space,0.319,0,133,133,77,1,,,,,,,,,,,,,,,,,
,,,,,,,,,,,,,,,,a,1,2.538,,,,,,,,tex_easy_TA/1.7_r=TA_seed=3.png,0,a,easy,texture,5f06eefaf3fc742667b4e79d,34,male,2021-05-03_11h59.51.799,search_v5,2021.1.2,Win32,37.515006,,,space,0.364,0,134,134,122,1,,,,,,,,,,,,,,,,,
,,,,,,,,,,,,,,,,a,0,4.009,,,,,,,,tex_hard_TP/1.6_r=450_phi=135_seed=1.png,1,p,hard,texture,5f06eefaf3fc742667b4e79d,34,male,2021-05-03_11h59.51.799,search_v5,2021.1.2,Win32,37.515006,,,space,0.254,0,135,135,52,1,,,,,,,,,,,,,,,,,
,,,,,,,,,,,,,,,,p,1,0.861,,,,,,,,tex_mid_TP/1.65_r=400_phi=45_seed=2.png,1,p,mid,texture,5f06eefaf3fc742667b4e79d,34,male,2021-05-03_11h59.51.799,search_v5,2021.1.2,Win32,37.515006,,,space,0.292,0,136,136,74,1,,,,,,,,,,,,,,,,,
,,,,,,,,,,,,,,,,a,1,6.791,,,,,,,,tex_hard_TA/1.6_r=TA_seed=1.png,0,a,hard,texture,5f06eefaf3fc742667b4e79d,34,male,2021-05-03_11h59.51.799,search_v5,2021.1.2,Win32,37.515006,,,space,0.434,0,137,137,132,1,,,,,,,,,,,,,,,,,
,,,,,,,,,,,,,,,,p,1,0.99,,,,,,,,tex_easy_TP/1.7_r=250_phi=315_seed=3.png,1,p,easy,texture,5f06eefaf3fc742667b4e79d,34,male,2021-05-03_11h59.51.799,search_v5,2021.1.2,Win32,37.515006,,,space,0.327,0,138,138,19,1,,,,,,,,,,,,,,,,,
,,,,,,,,,,,,,,,,a,1,6.421,,,,,,,,tex_mid_TA/1.65_r=TA_seed=2.png,0,a,mid,texture,5f06eefaf3fc742667b4e79d,34,male,2021-05-03_11h59.51.799,search_v5,2021.1.2,Win32,37.515006,,,space,0.414,0,139,139,99,1,,,,,,,,,,,,,,,,,
,,,,,,,,,,,,,,,,a,1,6.702,,,,,,,,tex_easy_TA/1.7_r=TA_seed=3.png,0,a,easy,texture,5f06eefaf3fc742667b4e79d,34,male,2021-05-03_11h59.51.799,search_v5,2021.1.2,Win32,37.515006,,,space,0.428,0,140,140,121,1,,,,,,,,,,,,,,,,,
,,,,,,,,,,,,,,,,a,1,4.981,,,,,,,,tex_hard_TA/1.6_r=TA_seed=1.png,0,a,hard,texture,5f06eefaf3fc742667b4e79d,34,male,2021-05-03_11h59.51.799,search_v5,2021.1.2,Win32,37.515006,,,space,0.403,0,141,141,10,1,,,,,,,,,,,,,,,,,
,,,,,,,,,,,,,,,,a,0,4.074,,,,,,,,tex_hard_TP/1.6_r=100_phi=90_seed=1.png,1,p,hard,texture,5f06eefaf3fc742667b4e79d,34,male,2021-05-03_11h59.51.799,search_v5,2021.1.2,Win32,37.515006,,,space,0.684,0,142,142,35,1,,,,,,,,,,,,,,,,,
,,,,,,,,,,,,,,,,p,1,0.869,,,,,,,,tex_easy_TP/1.7_r=450_phi=135_seed=3.png,1,p,easy,texture,5f06eefaf3fc742667b4e79d,34,male,2021-05-03_11h59.51.799,search_v5,2021.1.2,Win32,37.515006,,,space,0.283,0,143,143,32,1,,,,,,,,,,,,,,,,,
,,,,,,,,,,,,,,,,p,1,0.857,,,,,,,,tex_mid_TP/1.65_r=300_phi=135_seed=2.png,1,p,mid,texture,5f06eefaf3fc742667b4e79d,34,male,2021-05-03_11h59.51.799,search_v5,2021.1.2,Win32,37.515006,,,space,0.293,0,144,144,66,1,,,,,,,,,,,,,,,,,
,,,,,,,,,,,,,,,,p,0,3.847,,,,,,,,tex_easy_TA/1.7_r=TA_seed=3.png,0,a,easy,texture,5f06eefaf3fc742667b4e79d,34,male,2021-05-03_11h59.51.799,search_v5,2021.1.2,Win32,37.515006,,,space,0.169,0,145,145,114,1,,,,,,,,,,,,,,,,,
,,,,,,,,,,,,,,,,a,1,3.767,,,,,,,,tex_hard_TA/1.6_r=TA_seed=1.png,0,a,hard,texture,5f06eefaf3fc742667b4e79d,34,male,2021-05-03_11h59.51.799,search_v5,2021.1.2,Win32,37.515006,,,space,0.385,0,146,146,131,1,,,,,,,,,,,,,,,,,
,,,,,,,,,,,,,,,,p,1,1.029,,,,,,,,tex_mid_TP/1.65_r=350_phi=90_seed=2.png,1,p,mid,texture,5f06eefaf3fc742667b4e79d,34,male,2021-05-03_11h59.51.799,search_v5,2021.1.2,Win32,37.515006,,,space,0.343,0,147,147,71,1,,,,,,,,,,,,,,,,,
,,,,,,,,,,,,,,,,p,1,0.682,,,,,,,,tex_easy_TP/1.7_r=200_phi=135_seed=3.png,1,p,easy,texture,5f06eefaf3fc742667b4e79d,34,male,2021-05-03_11h59.51.799,search_v5,2021.1.2,Win32,37.515006,,,space,0.306,0,148,148,13,1,,,,,,,,,,,,,,,,,
,,,,,,,,,,,,,,,,p,1,0.875,,,,,,,,tex_easy_TP/1.7_r=200_phi=90_seed=3.png,1,p,easy,texture,5f06eefaf3fc742667b4e79d,34,male,2021-05-03_11h59.51.799,search_v5,2021.1.2,Win32,37.515006,,,space,0.27,0,149,149,16,1,,,,,,,,,,,,,,,,,
,,,,,,,,,,,,,,,,,,,,,,,,,,,,,,,5f06eefaf3fc742667b4e79d,34,male,2021-05-03_11h59.51.799,search_v5,2021.1.2,Win32,37.515006,,,,,,,,,,0,0,0,1,1,condText.xlsx,texture,Look for a circular shape and indicate if it is present or absent in the array. If it is present press 'p' and if absent press 'a'. Press SPACE to start.,texture_example.jpg,,,,egText.xlsx,,,,
,,,,,,,,,,,,space,19.77,space,12.493,p,1,2.484,space,0.692,0,0,0,2,1,9_dist_green/trial1.png,1,p,mid,greenverival,5f06eefaf3fc742667b4e79d,34,male,2021-05-03_11h59.51.799,search_v5,2021.1.2,Win32,37.515006,,,,,,,,,,,,,,,,,,,,,,,,9,,
,,,,,,,,,,,,,,,,a,1,1.656,space,0.553,0,1,1,8,1,0_targ_10_dist_green/trial1.png,0,a,mid,greenverival,5f06eefaf3fc742667b4e79d,34,male,2021-05-03_11h59.51.799,search_v5,2021.1.2,Win32,37.515006,,,,,,,,,,,,,,,,,,,,,,,,10,,
,,,,,,,,,,,,,,,,p,1,0.974,space,0.422,0,2,2,4,1,15_dist_green/trial1.png,1,p,hard,greenverival,5f06eefaf3fc742667b4e79d,34,male,2021-05-03_11h59.51.799,search_v5,2021.1.2,Win32,37.515006,,,,,,,,,,,,,,,,,,,,,,,,15,,
,,,,,,,,,,,,,,,,a,1,1.151,space,0.357,0,3,3,7,1,0_targ_4_dist_green/trial2.png,0,a,easy,greenverival,5f06eefaf3fc742667b4e79d,34,male,2021-05-03_11h59.51.799,search_v5,2021.1.2,Win32,37.515006,,,,,,,,,,,,,,,,,,,,,,,,4,,
,,,,,,,,,,,,,,,,a,1,1.175,space,0.361,0,4,4,10,1,0_targ_16_dist_green/trial1.png,0,a,hard,greenverival,5f06eefaf3fc742667b4e79d,34,male,2021-05-03_11h59.51.799,search_v5,2021.1.2,Win32,37.515006,,,,,,,,,,,,,,,,,,,,,,,,16,,
,,,,,,,,,,,,,,,,p,1,1.01,space,0.39,0,5,5,3,1,9_dist_green/trial2.png,1,p,mid,greenverival,5f06eefaf3fc742667b4e79d,34,male,2021-05-03_11h59.51.799,search_v5,2021.1.2,Win32,37.515006,,,,,,,,,,,,,,,,,,,,,,,,9,,
,,,,,,,,,,,,,,,,p,1,1.184,space,0.329,0,6,6,1,1,3_dist_green/trial2.png,1,p,easy,greenverival,5f06eefaf3fc742667b4e79d,34,male,2021-05-03_11h59.51.799,search_v5,2021.1.2,Win32,37.515006,,,,,,,,,,,,,,,,,,,,,,,,3,,
,,,,,,,,,,,,,,,,a,1,0.928,space,0.322,0,7,7,6,1,0_targ_4_dist_green/trial1.png,0,a,easy,greenverival,5f06eefaf3fc742667b4e79d,34,male,2021-05-03_11h59.51.799,search_v5,2021.1.2,Win32,37.515006,,,,,,,,,,,,,,,,,,,,,,,,4,,
,,,,,,,,,,,,,,,,p,1,1.333,space,0.448,0,8,8,5,1,15_dist_green/trial2.png,1,p,hard,greenverival,5f06eefaf3fc742667b4e79d,34,male,2021-05-03_11h59.51.799,search_v5,2021.1.2,Win32,37.515006,,,,,,,,,,,,,,,,,,,,,,,,15,,
,,,,,,,,,,,,,,,,a,1,0.891,space,0.375,0,9,9,9,1,0_targ_10_dist_green/trial2.png,0,a,mid,greenverival,5f06eefaf3fc742667b4e79d,34,male,2021-05-03_11h59.51.799,search_v5,2021.1.2,Win32,37.515006,,,,,,,,,,,,,,,,,,,,,,,,10,,
,,,,,,,,,,,,,,,,a,1,1.028,space,0.351,0,10,10,11,1,0_targ_16_dist_green/trial2.png,0,a,hard,greenverival,5f06eefaf3fc742667b4e79d,34,male,2021-05-03_11h59.51.799,search_v5,2021.1.2,Win32,37.515006,,,,,,,,,,,,,,,,,,,,,,,,16,,
,,,,,,,,,,,,,,,,p,1,0.975,space,0.333,0,11,11,0,1,3_dist_green/trial1.png,1,p,easy,greenverival,5f06eefaf3fc742667b4e79d,34,male,2021-05-03_11h59.51.799,search_v5,2021.1.2,Win32,37.515006,,,,,,,,,,,,,,,,,,,,,,,,3,,
,,,,,,,,,,,,,,,,a,1,0.941,,,,,,,,0_targ_4_dist_green/trial12.png,0,a,easy,greenverival,5f06eefaf3fc742667b4e79d,34,male,2021-05-03_11h59.51.799,search_v5,2021.1.2,Win32,37.515006,space,2.871,space,0.373,0,0,0,90,1,,,,,,,,,,,,,,,4,,
,,,,,,,,,,,,,,,,p,1,0.724,,,,,,,,9_dist_green/trial13.png,1,p,mid,greenverival,5f06eefaf3fc742667b4e79d,34,male,2021-05-03_11h59.51.799,search_v5,2021.1.2,Win32,37.515006,,,space,0.308,0,1,1,45,1,,,,,,,,,,,,,,,9,,
,,,,,,,,,,,,,,,,a,1,1.024,,,,,,,,0_targ_10_dist_green/trial3.png,0,a,mid,greenverival,5f06eefaf3fc742667b4e79d,34,male,2021-05-03_11h59.51.799,search_v5,2021.1.2,Win32,37.515006,,,space,0.285,0,2,2,104,1,,,,,,,,,,,,,,,10,,
,,,,,,,,,,,,,,,,p,1,0.765,,,,,,,,3_dist_green/trial15.png,1,p,easy,greenverival,5f06eefaf3fc742667b4e79d,34,male,2021-05-03_11h59.51.799,search_v5,2021.1.2,Win32,37.515006,,,space,0.298,0,3,3,24,1,,,,,,,,,,,,,,,3,,
,,,,,,,,,,,,,,,,a,1,1.081,,,,,,,,0_targ_16_dist_green/trial13.png,0,a,hard,greenverival,5f06eefaf3fc742667b4e79d,34,male,2021-05-03_11h59.51.799,search_v5,2021.1.2,Win32,37.515006,,,space,0.317,0,4,4,137,1,,,,,,,,,,,,,,,16,,
,,,,,,,,,,,,,,,,a,1,0.733,,,,,,,,0_targ_4_dist_green/trial5.png,0,a,easy,greenverival,5f06eefaf3fc742667b4e79d,34,male,2021-05-03_11h59.51.799,search_v5,2021.1.2,Win32,37.515006,,,space,0.326,0,5,5,83,1,,,,,,,,,,,,,,,4,,
,,,,,,,,,,,,,,,,p,1,0.787,,,,,,,,9_dist_green/trial3.png,1,p,mid,greenverival,5f06eefaf3fc742667b4e79d,34,male,2021-05-03_11h59.51.799,search_v5,2021.1.2,Win32,37.515006,,,space,0.326,0,6,6,35,1,,,,,,,,,,,,,,,9,,
,,,,,,,,,,,,,,,,p,1,1.441,,,,,,,,9_dist_green/trial9.png,1,p,mid,greenverival,5f06eefaf3fc742667b4e79d,34,male,2021-05-03_11h59.51.799,search_v5,2021.1.2,Win32,37.515006,,,space,1.512,0,7,7,41,1,,,,,,,,,,,,,,,9,,
,,,,,,,,,,,,,,,,p,1,0.65,,,,,,,,3_dist_green/trial25.png,1,p,easy,greenverival,5f06eefaf3fc742667b4e79d,34,male,2021-05-03_11h59.51.799,search_v5,2021.1.2,Win32,37.515006,,,space,0.384,0,8,8,34,1,,,,,,,,,,,,,,,3,,
,,,,,,,,,,,,,,,,a,1,1.037,,,,,,,,0_targ_16_dist_green/trial7.png,0,a,hard,greenverival,5f06eefaf3fc742667b4e79d,34,male,2021-05-03_11h59.51.799,search_v5,2021.1.2,Win32,37.515006,,,space,0.359,0,9,9,131,1,,,,,,,,,,,,,,,16,,
,,,,,,,,,,,,,,,,a,1,0.93,,,,,,,,0_targ_4_dist_green/trial7.png,0,a,easy,greenverival,5f06eefaf3fc742667b4e79d,34,male,2021-05-03_11h59.51.799,search_v5,2021.1.2,Win32,37.515006,,,space,0.218,0,10,10,85,1,,,,,,,,,,,,,,,4,,
,,,,,,,,,,,,,,,,p,1,0.734,,,,,,,,15_dist_green/trial15.png,1,p,hard,greenverival,5f06eefaf3fc742667b4e79d,34,male,2021-05-03_11h59.51.799,search_v5,2021.1.2,Win32,37.515006,,,space,0.311,0,11,11,70,1,,,,,,,,,,,,,,,15,,
,,,,,,,,,,,,,,,,p,1,0.683,,,,,,,,9_dist_green/trial14.png,1,p,mid,greenverival,5f06eefaf3fc742667b4e79d,34,male,2021-05-03_11h59.51.799,search_v5,2021.1.2,Win32,37.515006,,,space,0.23,0,12,12,46,1,,,,,,,,,,,,,,,9,,
,,,,,,,,,,,,,,,,a,1,0.683,,,,,,,,0_targ_4_dist_green/trial8.png,0,a,easy,greenverival,5f06eefaf3fc742667b4e79d,34,male,2021-05-03_11h59.51.799,search_v5,2021.1.2,Win32,37.515006,,,space,0.233,0,13,13,86,1,,,,,,,,,,,,,,,4,,
,,,,,,,,,,,,,,,,p,1,0.75,,,,,,,,3_dist_green/trial12.png,1,p,easy,greenverival,5f06eefaf3fc742667b4e79d,34,male,2021-05-03_11h59.51.799,search_v5,2021.1.2,Win32,37.515006,,,space,0.241,0,14,14,21,1,,,,,,,,,,,,,,,3,,
,,,,,,,,,,,,,,,,p,1,0.63,,,,,,,,3_dist_green/trial9.png,1,p,easy,greenverival,5f06eefaf3fc742667b4e79d,34,male,2021-05-03_11h59.51.799,search_v5,2021.1.2,Win32,37.515006,,,space,0.208,0,15,15,18,1,,,,,,,,,,,,,,,3,,
,,,,,,,,,,,,,,,,a,1,0.795,,,,,,,,0_targ_16_dist_green/trial4.png,0,a,hard,greenverival,5f06eefaf3fc742667b4e79d,34,male,2021-05-03_11h59.51.799,search_v5,2021.1.2,Win32,37.515006,,,space,0.215,0,16,16,128,1,,,,,,,,,,,,,,,16,,
,,,,,,,,,,,,,,,,a,1,1.058,,,,,,,,0_targ_10_dist_green/trial6.png,0,a,mid,greenverival,5f06eefaf3fc742667b4e79d,34,male,2021-05-03_11h59.51.799,search_v5,2021.1.2,Win32,37.515006,,,space,0.182,0,17,17,107,1,,,,,,,,,,,,,,,10,,
,,,,,,,,,,,,,,,,a,1,0.96,,,,,,,,0_targ_16_dist_green/trial6.png,0,a,hard,greenverival,5f06eefaf3fc742667b4e79d,34,male,2021-05-03_11h59.51.799,search_v5,2021.1.2,Win32,37.515006,,,space,0.237,0,18,18,130,1,,,,,,,,,,,,,,,16,,
,,,,,,,,,,,,,,,,a,1,0.802,,,,,,,,0_targ_4_dist_green/trial15.png,0,a,easy,greenverival,5f06eefaf3fc742667b4e79d,34,male,2021-05-03_11h59.51.799,search_v5,2021.1.2,Win32,37.515006,,,space,0.257,0,19,19,93,1,,,,,,,,,,,,,,,4,,
,,,,,,,,,,,,,,,,p,1,0.64,,,,,,,,3_dist_green/trial23.png,1,p,easy,greenverival,5f06eefaf3fc742667b4e79d,34,male,2021-05-03_11h59.51.799,search_v5,2021.1.2,Win32,37.515006,,,space,0.192,0,20,20,32,1,,,,,,,,,,,,,,,3,,
,,,,,,,,,,,,,,,,p,1,0.607,,,,,,,,15_dist_green/trial8.png,1,p,hard,greenverival,5f06eefaf3fc742667b4e79d,34,male,2021-05-03_11h59.51.799,search_v5,2021.1.2,Win32,37.515006,,,space,0.213,0,21,21,63,1,,,,,,,,,,,,,,,15,,
,,,,,,,,,,,,,,,,a,0,0.674,,,,,,,,3_dist_green/trial2.png,1,p,easy,greenverival,5f06eefaf3fc742667b4e79d,34,male,2021-05-03_11h59.51.799,search_v5,2021.1.2,Win32,37.515006,,,space,1.939,0,22,22,1,1,,,,,,,,,,,,,,,3,,
,,,,,,,,,,,,,,,,p,1,1.074,,,,,,,,15_dist_green/trial21.png,1,p,hard,greenverival,5f06eefaf3fc742667b4e79d,34,male,2021-05-03_11h59.51.799,search_v5,2021.1.2,Win32,37.515006,,,space,0.27,0,23,23,76,1,,,,,,,,,,,,,,,15,,
,,,,,,,,,,,,,,,,a,1,1.406,,,,,,,,0_targ_16_dist_green/trial25.png,0,a,hard,greenverival,5f06eefaf3fc742667b4e79d,34,male,2021-05-03_11h59.51.799,search_v5,2021.1.2,Win32,37.515006,,,space,0.246,0,24,24,149,1,,,,,,,,,,,,,,,16,,
,,,,,,,,,,,,,,,,p,1,0.901,,,,,,,,15_dist_green/trial12.png,1,p,hard,greenverival,5f06eefaf3fc742667b4e79d,34,male,2021-05-03_11h59.51.799,search_v5,2021.1.2,Win32,37.515006,,,space,0.206,0,25,25,67,1,,,,,,,,,,,,,,,15,,
,,,,,,,,,,,,,,,,a,1,0.919,,,,,,,,0_targ_16_dist_green/trial9.png,0,a,hard,greenverival,5f06eefaf3fc742667b4e79d,34,male,2021-05-03_11h59.51.799,search_v5,2021.1.2,Win32,37.515006,,,space,0.261,0,26,26,133,1,,,,,,,,,,,,,,,16,,
,,,,,,,,,,,,,,,,p,1,0.697,,,,,,,,9_dist_green/trial6.png,1,p,mid,greenverival,5f06eefaf3fc742667b4e79d,34,male,2021-05-03_11h59.51.799,search_v5,2021.1.2,Win32,37.515006,,,space,0.241,0,27,27,38,1,,,,,,,,,,,,,,,9,,
,,,,,,,,,,,,,,,,p,1,0.621,,,,,,,,3_dist_green/trial19.png,1,p,easy,greenverival,5f06eefaf3fc742667b4e79d,34,male,2021-05-03_11h59.51.799,search_v5,2021.1.2,Win32,37.515006,,,space,0.242,0,28,28,28,1,,,,,,,,,,,,,,,3,,
,,,,,,,,,,,,,,,,p,1,0.735,,,,,,,,3_dist_green/trial1.png,1,p,easy,greenverival,5f06eefaf3fc742667b4e79d,34,male,2021-05-03_11h59.51.799,search_v5,2021.1.2,Win32,37.515006,,,space,0.226,0,29,29,0,1,,,,,,,,,,,,,,,3,,
,,,,,,,,,,,,,,,,p,1,0.569,,,,,,,,3_dist_green/trial20.png,1,p,easy,greenverival,5f06eefaf3fc742667b4e79d,34,male,2021-05-03_11h59.51.799,search_v5,2021.1.2,Win32,37.515006,,,space,0.209,0,30,30,29,1,,,,,,,,,,,,,,,3,,
,,,,,,,,,,,,,,,,p,1,0.56,,,,,,,,3_dist_green/trial10.png,1,p,easy,greenverival,5f06eefaf3fc742667b4e79d,34,male,2021-05-03_11h59.51.799,search_v5,2021.1.2,Win32,37.515006,,,space,0.192,0,31,31,19,1,,,,,,,,,,,,,,,3,,
,,,,,,,,,,,,,,,,a,1,0.781,,,,,,,,0_targ_4_dist_green/trial11.png,0,a,easy,greenverival,5f06eefaf3fc742667b4e79d,34,male,2021-05-03_11h59.51.799,search_v5,2021.1.2,Win32,37.515006,,,space,0.224,0,32,32,89,1,,,,,,,,,,,,,,,4,,
,,,,,,,,,,,,,,,,p,1,0.821,,,,,,,,3_dist_green/trial11.png,1,p,easy,greenverival,5f06eefaf3fc742667b4e79d,34,male,2021-05-03_11h59.51.799,search_v5,2021.1.2,Win32,37.515006,,,space,0.194,0,33,33,20,1,,,,,,,,,,,,,,,3,,
,,,,,,,,,,,,,,,,a,1,0.913,,,,,,,,0_targ_16_dist_green/trial2.png,0,a,hard,greenverival,5f06eefaf3fc742667b4e79d,34,male,2021-05-03_11h59.51.799,search_v5,2021.1.2,Win32,37.515006,,,space,0.224,0,34,34,11,1,,,,,,,,,,,,,,,16,,
,,,,,,,,,,,,,,,,a,1,1.287,,,,,,,,0_targ_10_dist_green/trial1.png,0,a,mid,greenverival,5f06eefaf3fc742667b4e79d,34,male,2021-05-03_11h59.51.799,search_v5,2021.1.2,Win32,37.515006,,,space,0.184,0,35,35,8,1,,,,,,,,,,,,,,,10,,
,,,,,,,,,,,,,,,,a,1,0.936,,,,,,,,0_targ_10_dist_green/trial14.png,0,a,mid,greenverival,5f06eefaf3fc742667b4e79d,34,male,2021-05-03_11h59.51.799,search_v5,2021.1.2,Win32,37.515006,,,space,0.252,0,36,36,115,1,,,,,,,,,,,,,,,10,,
,,,,,,,,,,,,,,,,a,1,1.074,,,,,,,,0_targ_10_dist_green/trial9.png,0,a,mid,greenverival,5f06eefaf3fc742667b4e79d,34,male,2021-05-03_11h59.51.799,search_v5,2021.1.2,Win32,37.515006,,,space,0.161,0,37,37,110,1,,,,,,,,,,,,,,,10,,
,,,,,,,,,,,,,,,,p,1,0.866,,,,,,,,15_dist_green/trial25.png,1,p,hard,greenverival,5f06eefaf3fc742667b4e79d,34,male,2021-05-03_11h59.51.799,search_v5,2021.1.2,Win32,37.515006,,,space,0.198,0,38,38,80,1,,,,,,,,,,,,,,,15,,
,,,,,,,,,,,,,,,,a,1,1.313,,,,,,,,0_targ_16_dist_green/trial20.png,0,a,hard,greenverival,5f06eefaf3fc742667b4e79d,34,male,2021-05-03_11h59.51.799,search_v5,2021.1.2,Win32,37.515006,,,space,0.166,0,39,39,144,1,,,,,,,,,,,,,,,16,,
,,,,,,,,,,,,,,,,p,1,0.905,,,,,,,,9_dist_green/trial5.png,1,p,mid,greenverival,5f06eefaf3fc742667b4e79d,34,male,2021-05-03_11h59.51.799,search_v5,2021.1.2,Win32,37.515006,,,space,0.191,0,40,40,37,1,,,,,,,,,,,,,,,9,,
,,,,,,,,,,,,,,,,a,1,1.042,,,,,,,,0_targ_16_dist_green/trial14.png,0,a,hard,greenverival,5f06eefaf3fc742667b4e79d,34,male,2021-05-03_11h59.51.799,search_v5,2021.1.2,Win32,37.515006,,,space,0.161,0,41,41,138,1,,,,,,,,,,,,,,,16,,
,,,,,,,,,,,,,,,,a,1,0.951,,,,,,,,0_targ_10_dist_green/trial5.png,0,a,mid,greenverival,5f06eefaf3fc742667b4e79d,34,male,2021-05-03_11h59.51.799,search_v5,2021.1.2,Win32,37.515006,,,space,0.192,0,42,42,106,1,,,,,,,,,,,,,,,10,,
,,,,,,,,,,,,,,,,a,1,0.865,,,,,,,,0_targ_16_dist_green/trial21.png,0,a,hard,greenverival,5f06eefaf3fc742667b4e79d,34,male,2021-05-03_11h59.51.799,search_v5,2021.1.2,Win32,37.515006,,,space,0.198,0,43,43,145,1,,,,,,,,,,,,,,,16,,
,,,,,,,,,,,,,,,,p,1,0.644,,,,,,,,15_dist_green/trial24.png,1,p,hard,greenverival,5f06eefaf3fc742667b4e79d,34,male,2021-05-03_11h59.51.799,search_v5,2021.1.2,Win32,37.515006,,,space,0.191,0,44,44,79,1,,,,,,,,,,,,,,,15,,
,,,,,,,,,,,,,,,,p,1,0.797,,,,,,,,15_dist_green/trial20.png,1,p,hard,greenverival,5f06eefaf3fc742667b4e79d,34,male,2021-05-03_11h59.51.799,search_v5,2021.1.2,Win32,37.515006,,,space,0.186,0,45,45,75,1,,,,,,,,,,,,,,,15,,
,,,,,,,,,,,,,,,,p,1,0.645,,,,,,,,9_dist_green/trial20.png,1,p,mid,greenverival,5f06eefaf3fc742667b4e79d,34,male,2021-05-03_11h59.51.799,search_v5,2021.1.2,Win32,37.515006,,,space,0.202,0,46,46,52,1,,,,,,,,,,,,,,,9,,
,,,,,,,,,,,,,,,,a,1,0.827,,,,,,,,0_targ_10_dist_green/trial25.png,0,a,mid,greenverival,5f06eefaf3fc742667b4e79d,34,male,2021-05-03_11h59.51.799,search_v5,2021.1.2,Win32,37.515006,,,space,0.218,0,47,47,126,1,,,,,,,,,,,,,,,10,,
,,,,,,,,,,,,,,,,a,1,0.942,,,,,,,,0_targ_16_dist_green/trial5.png,0,a,hard,greenverival,5f06eefaf3fc742667b4e79d,34,male,2021-05-03_11h59.51.799,search_v5,2021.1.2,Win32,37.515006,,,space,0.147,0,48,48,129,1,,,,,,,,,,,,,,,16,,
,,,,,,,,,,,,,,,,a,1,1.238,,,,,,,,0_targ_16_dist_green/trial10.png,0,a,hard,greenverival,5f06eefaf3fc742667b4e79d,34,male,2021-05-03_11h59.51.799,search_v5,2021.1.2,Win32,37.515006,,,space,0.116,0,49,49,134,1,,,,,,,,,,,,,,,16,,
,,,,,,,,,,,,,,,,a,1,1.219,,,,,,,,0_targ_16_dist_green/trial22.png,0,a,hard,greenverival,5f06eefaf3fc742667b4e79d,34,male,2021-05-03_11h59.51.799,search_v5,2021.1.2,Win32,37.515006,,,space,0.11,0,50,50,146,1,,,,,,,,,,,,,,,16,,
,,,,,,,,,,,,,,,,a,1,0.878,,,,,,,,0_targ_10_dist_green/trial22.png,0,a,mid,greenverival,5f06eefaf3fc742667b4e79d,34,male,2021-05-03_11h59.51.799,search_v5,2021.1.2,Win32,37.515006,,,space,0.141,0,51,51,123,1,,,,,,,,,,,,,,,10,,
,,,,,,,,,,,,,,,,a,1,0.812,,,,,,,,0_targ_10_dist_green/trial20.png,0,a,mid,greenverival,5f06eefaf3fc742667b4e79d,34,male,2021-05-03_11h59.51.799,search_v5,2021.1.2,Win32,37.515006,,,space,0.135,0,52,52,121,1,,,,,,,,,,,,,,,10,,
,,,,,,,,,,,,,,,,a,1,0.853,,,,,,,,0_targ_10_dist_green/trial12.png,0,a,mid,greenverival,5f06eefaf3fc742667b4e79d,34,male,2021-05-03_11h59.51.799,search_v5,2021.1.2,Win32,37.515006,,,space,0.14,0,53,53,113,1,,,,,,,,,,,,,,,10,,
,,,,,,,,,,,,,,,,a,1,0.919,,,,,,,,0_targ_10_dist_green/trial4.png,0,a,mid,greenverival,5f06eefaf3fc742667b4e79d,34,male,2021-05-03_11h59.51.799,search_v5,2021.1.2,Win32,37.515006,,,space,0.141,0,54,54,105,1,,,,,,,,,,,,,,,10,,
,,,,,,,,,,,,,,,,a,1,0.733,,,,,,,,0_targ_16_dist_green/trial16.png,0,a,hard,greenverival,5f06eefaf3fc742667b4e79d,34,male,2021-05-03_11h59.51.799,search_v5,2021.1.2,Win32,37.515006,,,space,0.136,0,55,55,140,1,,,,,,,,,,,,,,,16,,
,,,,,,,,,,,,,,,,a,1,0.742,,,,,,,,0_targ_16_dist_green/trial1.png,0,a,hard,greenverival,5f06eefaf3fc742667b4e79d,34,male,2021-05-03_11h59.51.799,search_v5,2021.1.2,Win32,37.515006,,,space,0.172,0,56,56,10,1,,,,,,,,,,,,,,,16,,
,,,,,,,,,,,,,,,,p,1,0.659,,,,,,,,3_dist_green/trial24.png,1,p,easy,greenverival,5f06eefaf3fc742667b4e79d,34,male,2021-05-03_11h59.51.799,search_v5,2021.1.2,Win32,37.515006,,,space,0.213,0,57,57,33,1,,,,,,,,,,,,,,,3,,
,,,,,,,,,,,,,,,,a,1,0.687,,,,,,,,0_targ_4_dist_green/trial6.png,0,a,easy,greenverival,5f06eefaf3fc742667b4e79d,34,male,2021-05-03_11h59.51.799,search_v5,2021.1.2,Win32,37.515006,,,space,0.23,0,58,58,94,1,,,,,,,,,,,,,,,4,,
,,,,,,,,,,,,,,,,p,1,0.65,,,,,,,,9_dist_green/trial23.png,1,p,mid,greenverival,5f06eefaf3fc742667b4e79d,34,male,2021-05-03_11h59.51.799,search_v5,2021.1.2,Win32,37.515006,,,space,0.246,0,59,59,55,1,,,,,,,,,,,,,,,9,,
,,,,,,,,,,,,,,,,p,1,0.75,,,,,,,,15_dist_green/trial5.png,1,p,hard,greenverival,5f06eefaf3fc742667b4e79d,34,male,2021-05-03_11h59.51.799,search_v5,2021.1.2,Win32,37.515006,,,space,0.232,0,60,60,60,1,,,,,,,,,,,,,,,15,,
,,,,,,,,,,,,,,,,a,1,0.857,,,,,,,,0_targ_16_dist_green/trial15.png,0,a,hard,greenverival,5f06eefaf3fc742667b4e79d,34,male,2021-05-03_11h59.51.799,search_v5,2021.1.2,Win32,37.515006,,,space,0.275,0,61,61,139,1,,,,,,,,,,,,,,,16,,
,,,,,,,,,,,,,,,,a,1,2.237,,,,,,,,0_targ_4_dist_green/trial22.png,0,a,easy,greenverival,5f06eefaf3fc742667b4e79d,34,male,2021-05-03_11h59.51.799,search_v5,2021.1.2,Win32,37.515006,,,space,0.303,0,62,62,100,1,,,,,,,,,,,,,,,4,,
,,,,,,,,,,,,,,,,p,1,0.937,,,,,,,,9_dist_green/trial21.png,1,p,mid,greenverival,5f06eefaf3fc742667b4e79d,34,male,2021-05-03_11h59.51.799,search_v5,2021.1.2,Win32,37.515006,,,space,0.23,0,63,63,53,1,,,,,,,,,,,,,,,9,,
,,,,,,,,,,,,,,,,p,1,0.772,,,,,,,,9_dist_green/trial10.png,1,p,mid,greenverival,5f06eefaf3fc742667b4e79d,34,male,2021-05-03_11h59.51.799,search_v5,2021.1.2,Win32,37.515006,,,space,0.235,0,64,64,42,1,,,,,,,,,,,,,,,9,,
,,,,,,,,,,,,,,,,p,1,0.739,,,,,,,,15_dist_green/trial3.png,1,p,hard,greenverival,5f06eefaf3fc742667b4e79d,34,male,2021-05-03_11h59.51.799,search_v5,2021.1.2,Win32,37.515006,,,space,0.263,0,65,65,58,1,,,,,,,,,,,,,,,15,,
,,,,,,,,,,,,,,,,a,1,0.776,,,,,,,,0_targ_10_dist_green/trial17.png,0,a,mid,greenverival,5f06eefaf3fc742667b4e79d,34,male,2021-05-03_11h59.51.799,search_v5,2021.1.2,Win32,37.515006,,,space,0.263,0,66,66,118,1,,,,,,,,,,,,,,,10,,
,,,,,,,,,,,,,,,,a,1,0.735,,,,,,,,0_targ_4_dist_green/trial25.png,0,a,easy,greenverival,5f06eefaf3fc742667b4e79d,34,male,2021-05-03_11h59.51.799,search_v5,2021.1.2,Win32,37.515006,,,space,0.273,0,67,67,103,1,,,,,,,,,,,,,,,4,,
,,,,,,,,,,,,,,,,p,1,0.914,,,,,,,,9_dist_green/trial18.png,1,p,mid,greenverival,5f06eefaf3fc742667b4e79d,34,male,2021-05-03_11h59.51.799,search_v5,2021.1.2,Win32,37.515006,,,space,0.275,0,68,68,50,1,,,,,,,,,,,,,,,9,,
,,,,,,,,,,,,,,,,a,1,0.951,,,,,,,,0_targ_4_dist_green/trial3.png,0,a,easy,greenverival,5f06eefaf3fc742667b4e79d,34,male,2021-05-03_11h59.51.799,search_v5,2021.1.2,Win32,37.515006,,,space,0.286,0,69,69,81,1,,,,,,,,,,,,,,,4,,
,,,,,,,,,,,,,,,,p,1,0.851,,,,,,,,3_dist_green/trial22.png,1,p,easy,greenverival,5f06eefaf3fc742667b4e79d,34,male,2021-05-03_11h59.51.799,search_v5,2021.1.2,Win32,37.515006,,,space,0.219,0,70,70,31,1,,,,,,,,,,,,,,,3,,
,,,,,,,,,,,,,,,,a,1,0.941,,,,,,,,0_targ_4_dist_green/trial20.png,0,a,easy,greenverival,5f06eefaf3fc742667b4e79d,34,male,2021-05-03_11h59.51.799,search_v5,2021.1.2,Win32,37.515006,,,space,0.215,0,71,71,98,1,,,,,,,,,,,,,,,4,,
,,,,,,,,,,,,,,,,p,1,0.687,,,,,,,,15_dist_green/trial13.png,1,p,hard,greenverival,5f06eefaf3fc742667b4e79d,34,male,2021-05-03_11h59.51.799,search_v5,2021.1.2,Win32,37.515006,,,space,0.241,0,72,72,68,1,,,,,,,,,,,,,,,15,,
,,,,,,,,,,,,,,,,a,1,0.856,,,,,,,,0_targ_4_dist_green/trial4.png,0,a,easy,greenverival,5f06eefaf3fc742667b4e79d,34,male,2021-05-03_11h59.51.799,search_v5,2021.1.2,Win32,37.515006,,,space,0.237,0,73,73,82,1,,,,,,,,,,,,,,,4,,
,,,,,,,,,,,,,,,,p,1,0.806,,,,,,,,3_dist_green/trial5.png,1,p,easy,greenverival,5f06eefaf3fc742667b4e79d,34,male,2021-05-03_11h59.51.799,search_v5,2021.1.2,Win32,37.515006,,,space,0.187,0,74,74,14,1,,,,,,,,,,,,,,,3,,
,,,,,,,,,,,,,,,,a,1,0.954,,,,,,,,0_targ_4_dist_green/trial17.png,0,a,easy,greenverival,5f06eefaf3fc742667b4e79d,34,male,2021-05-03_11h59.51.799,search_v5,2021.1.2,Win32,37.515006,,,space,0.223,0,75,75,95,1,,,,,,,,,,,,,,,4,,
,,,,,,,,,,,,,,,,p,1,0.806,,,,,,,,3_dist_green/trial14.png,1,p,easy,greenverival,5f06eefaf3fc742667b4e79d,34,male,2021-05-03_11h59.51.799,search_v5,2021.1.2,Win32,37.515006,,,space,0.235,0,76,76,23,1,,,,,,,,,,,,,,,3,,
,,,,,,,,,,,,,,,,a,1,1.51,,,,,,,,0_targ_4_dist_green/trial21.png,0,a,easy,greenverival,5f06eefaf3fc742667b4e79d,34,male,2021-05-03_11h59.51.799,search_v5,2021.1.2,Win32,37.515006,,,space,0.215,0,77,77,99,1,,,,,,,,,,,,,,,4,,
,,,,,,,,,,,,,,,,a,1,0.847,,,,,,,,0_targ_4_dist_green/trial19.png,0,a,easy,greenverival,5f06eefaf3fc742667b4e79d,34,male,2021-05-03_11h59.51.799,search_v5,2021.1.2,Win32,37.515006,,,space,0.21,0,78,78,97,1,,,,,,,,,,,,,,,4,,
,,,,,,,,,,,,,,,,a,1,0.817,,,,,,,,0_targ_10_dist_green/trial16.png,0,a,mid,greenverival,5f06eefaf3fc742667b4e79d,34,male,2021-05-03_11h59.51.799,search_v5,2021.1.2,Win32,37.515006,,,space,0.237,0,79,79,117,1,,,,,,,,,,,,,,,10,,
,,,,,,,,,,,,,,,,a,1,0.641,,,,,,,,0_targ_4_dist_green/trial13.png,0,a,easy,greenverival,5f06eefaf3fc742667b4e79d,34,male,2021-05-03_11h59.51.799,search_v5,2021.1.2,Win32,37.515006,,,space,0.217,0,80,80,91,1,,,,,,,,,,,,,,,4,,
,,,,,,,,,,,,,,,,a,1,0.639,,,,,,,,0_targ_4_dist_green/trial9.png,0,a,easy,greenverival,5f06eefaf3fc742667b4e79d,34,male,2021-05-03_11h59.51.799,search_v5,2021.1.2,Win32,37.515006,,,space,0.242,0,81,81,87,1,,,,,,,,,,,,,,,4,,
,,,,,,,,,,,,,,,,p,1,0.778,,,,,,,,3_dist_green/trial6.png,1,p,easy,greenverival,5f06eefaf3fc742667b4e79d,34,male,2021-05-03_11h59.51.799,search_v5,2021.1.2,Win32,37.515006,,,space,0.202,0,82,82,15,1,,,,,,,,,,,,,,,3,,
,,,,,,,,,,,,,,,,a,1,0.842,,,,,,,,0_targ_4_dist_green/trial6.png,0,a,easy,greenverival,5f06eefaf3fc742667b4e79d,34,male,2021-05-03_11h59.51.799,search_v5,2021.1.2,Win32,37.515006,,,space,0.184,0,83,83,84,1,,,,,,,,,,,,,,,4,,
,,,,,,,,,,,,,,,,p,1,0.709,,,,,,,,15_dist_green/trial7.png,1,p,hard,greenverival,5f06eefaf3fc742667b4e79d,34,male,2021-05-03_11h59.51.799,search_v5,2021.1.2,Win32,37.515006,,,space,0.203,0,84,84,62,1,,,,,,,,,,,,,,,15,,
,,,,,,,,,,,,,,,,p,1,0.619,,,,,,,,15_dist_green/trial18.png,1,p,hard,greenverival,5f06eefaf3fc742667b4e79d,34,male,2021-05-03_11h59.51.799,search_v5,2021.1.2,Win32,37.515006,,,space,0.17,0,85,85,73,1,,,,,,,,,,,,,,,15,,
,,,,,,,,,,,,,,,,p,1,0.647,,,,,,,,3_dist_green/trial21.png,1,p,easy,greenverival,5f06eefaf3fc742667b4e79d,34,male,2021-05-03_11h59.51.799,search_v5,2021.1.2,Win32,37.515006,,,space,0.186,0,86,86,30,1,,,,,,,,,,,,,,,3,,
,,,,,,,,,,,,,,,,p,1,0.532,,,,,,,,3_dist_green/trial13.png,1,p,easy,greenverival,5f06eefaf3fc742667b4e79d,34,male,2021-05-03_11h59.51.799,search_v5,2021.1.2,Win32,37.515006,,,space,0.252,0,87,87,22,1,,,,,,,,,,,,,,,3,,
,,,,,,,,,,,,,,,,a,1,0.902,,,,,,,,0_targ_16_dist_green/trial12.png,0,a,hard,greenverival,5f06eefaf3fc742667b4e79d,34,male,2021-05-03_11h59.51.799,search_v5,2021.1.2,Win32,37.515006,,,space,0.192,0,88,88,136,1,,,,,,,,,,,,,,,16,,
,,,,,,,,,,,,,,,,a,1,0.856,,,,,,,,0_targ_10_dist_green/trial7.png,0,a,mid,greenverival,5f06eefaf3fc742667b4e79d,34,male,2021-05-03_11h59.51.799,search_v5,2021.1.2,Win32,37.515006,,,space,0.187,0,89,89,108,1,,,,,,,,,,,,,,,10,,
,,,,,,,,,,,,,,,,p,1,0.775,,,,,,,,9_dist_green/trial8.png,1,p,mid,greenverival,5f06eefaf3fc742667b4e79d,34,male,2021-05-03_11h59.51.799,search_v5,2021.1.2,Win32,37.515006,,,space,0.244,0,90,90,40,1,,,,,,,,,,,,,,,9,,
,,,,,,,,,,,,,,,,p,1,0.767,,,,,,,,9_dist_green/trial16.png,1,p,mid,greenverival,5f06eefaf3fc742667b4e79d,34,male,2021-05-03_11h59.51.799,search_v5,2021.1.2,Win32,37.515006,,,space,0.173,0,91,91,48,1,,,,,,,,,,,,,,,9,,
,,,,,,,,,,,,,,,,p,1,0.655,,,,,,,,3_dist_green/trial8.png,1,p,easy,greenverival,5f06eefaf3fc742667b4e79d,34,male,2021-05-03_11h59.51.799,search_v5,2021.1.2,Win32,37.515006,,,space,0.294,0,92,92,17,1,,,,,,,,,,,,,,,3,,
,,,,,,,,,,,,,,,,a,1,0.849,,,,,,,,0_targ_16_dist_green/trial17.png,0,a,hard,greenverival,5f06eefaf3fc742667b4e79d,34,male,2021-05-03_11h59.51.799,search_v5,2021.1.2,Win32,37.515006,,,space,0.254,0,93,93,141,1,,,,,,,,,,,,,,,16,,
,,,,,,,,,,,,,,,,p,1,0.731,,,,,,,,9_dist_green/trial25.png,1,p,mid,greenverival,5f06eefaf3fc742667b4e79d,34,male,2021-05-03_11h59.51.799,search_v5,2021.1.2,Win32,37.515006,,,space,0.289,0,94,94,57,1,,,,,,,,,,,,,,,9,,
,,,,,,,,,,,,,,,,p,1,0.614,,,,,,,,9_dist_green/trial15.png,1,p,mid,greenverival,5f06eefaf3fc742667b4e79d,34,male,2021-05-03_11h59.51.799,search_v5,2021.1.2,Win32,37.515006,,,space,0.326,0,95,95,47,1,,,,,,,,,,,,,,,9,,
,,,,,,,,,,,,,,,,p,1,0.593,,,,,,,,3_dist_green/trial18.png,1,p,easy,greenverival,5f06eefaf3fc742667b4e79d,34,male,2021-05-03_11h59.51.799,search_v5,2021.1.2,Win32,37.515006,,,space,0.271,0,96,96,27,1,,,,,,,,,,,,,,,3,,
,,,,,,,,,,,,,,,,a,1,0.93,,,,,,,,0_targ_16_dist_green/trial3.png,0,a,hard,greenverival,5f06eefaf3fc742667b4e79d,34,male,2021-05-03_11h59.51.799,search_v5,2021.1.2,Win32,37.515006,,,space,0.28,0,97,97,127,1,,,,,,,,,,,,,,,16,,
,,,,,,,,,,,,,,,,p,1,0.682,,,,,,,,9_dist_green/trial4.png,1,p,mid,greenverival,5f06eefaf3fc742667b4e79d,34,male,2021-05-03_11h59.51.799,search_v5,2021.1.2,Win32,37.515006,,,space,0.279,0,98,98,36,1,,,,,,,,,,,,,,,9,,
,,,,,,,,,,,,,,,,p,1,0.623,,,,,,,,3_dist_green/trial3.png,1,p,easy,greenverival,5f06eefaf3fc742667b4e79d,34,male,2021-05-03_11h59.51.799,search_v5,2021.1.2,Win32,37.515006,,,space,0.3,0,99,99,12,1,,,,,,,,,,,,,,,3,,
,,,,,,,,,,,,,,,,p,1,0.604,,,,,,,,3_dist_green/trial4.png,1,p,easy,greenverival,5f06eefaf3fc742667b4e79d,34,male,2021-05-03_11h59.51.799,search_v5,2021.1.2,Win32,37.515006,,,space,0.27,0,100,100,13,1,,,,,,,,,,,,,,,3,,
,,,,,,,,,,,,,,,,a,1,0.823,,,,,,,,0_targ_10_dist_green/trial21.png,0,a,mid,greenverival,5f06eefaf3fc742667b4e79d,34,male,2021-05-03_11h59.51.799,search_v5,2021.1.2,Win32,37.515006,,,space,0.236,0,101,101,122,1,,,,,,,,,,,,,,,10,,
,,,,,,,,,,,,,,,,a,1,0.76,,,,,,,,0_targ_16_dist_green/trial18.png,0,a,hard,greenverival,5f06eefaf3fc742667b4e79d,34,male,2021-05-03_11h59.51.799,search_v5,2021.1.2,Win32,37.515006,,,space,0.27,0,102,102,142,1,,,,,,,,,,,,,,,16,,
,,,,,,,,,,,,,,,,p,1,0.819,,,,,,,,9_dist_green/trial7.png,1,p,mid,greenverival,5f06eefaf3fc742667b4e79d,34,male,2021-05-03_11h59.51.799,search_v5,2021.1.2,Win32,37.515006,,,space,0.212,0,103,103,39,1,,,,,,,,,,,,,,,9,,
,,,,,,,,,,,,,,,,p,1,1.022,,,,,,,,15_dist_green/trial1.png,1,p,hard,greenverival,5f06eefaf3fc742667b4e79d,34,male,2021-05-03_11h59.51.799,search_v5,2021.1.2,Win32,37.515006,,,space,0.257,0,104,104,4,1,,,,,,,,,,,,,,,15,,
,,,,,,,,,,,,,,,,a,1,0.848,,,,,,,,0_targ_16_dist_green/trial23.png,0,a,hard,greenverival,5f06eefaf3fc742667b4e79d,34,male,2021-05-03_11h59.51.799,search_v5,2021.1.2,Win32,37.515006,,,space,0.231,0,105,105,147,1,,,,,,,,,,,,,,,16,,
,,,,,,,,,,,,,,,,a,1,1.326,,,,,,,,0_targ_10_dist_green/trial24.png,0,a,mid,greenverival,5f06eefaf3fc742667b4e79d,34,male,2021-05-03_11h59.51.799,search_v5,2021.1.2,Win32,37.515006,,,space,0.176,0,106,106,125,1,,,,,,,,,,,,,,,10,,
,,,,,,,,,,,,,,,,p,1,1.048,,,,,,,,15_dist_green/trial4.png,1,p,hard,greenverival,5f06eefaf3fc742667b4e79d,34,male,2021-05-03_11h59.51.799,search_v5,2021.1.2,Win32,37.515006,,,space,0.189,0,107,107,59,1,,,,,,,,,,,,,,,15,,
,,,,,,,,,,,,,,,,p,1,0.978,,,,,,,,15_dist_green/trial16.png,1,p,hard,greenverival,5f06eefaf3fc742667b4e79d,34,male,2021-05-03_11h59.51.799,search_v5,2021.1.2,Win32,37.515006,,,space,0.217,0,108,108,71,1,,,,,,,,,,,,,,,15,,
,,,,,,,,,,,,,,,,p,0,1.049,,,,,,,,0_targ_10_dist_green/trial8.png,0,a,mid,greenverival,5f06eefaf3fc742667b4e79d,34,male,2021-05-03_11h59.51.799,search_v5,2021.1.2,Win32,37.515006,,,space,0.727,0,109,109,109,1,,,,,,,,,,,,,,,10,,
,,,,,,,,,,,,,,,,a,1,0.75,,,,,,,,0_targ_10_dist_green/trial13.png,0,a,mid,greenverival,5f06eefaf3fc742667b4e79d,34,male,2021-05-03_11h59.51.799,search_v5,2021.1.2,Win32,37.515006,,,space,0.225,0,110,110,114,1,,,,,,,,,,,,,,,10,,
,,,,,,,,,,,,,,,,a,1,0.758,,,,,,,,0_targ_4_dist_green/trial2.png,0,a,easy,greenverival,5f06eefaf3fc742667b4e79d,34,male,2021-05-03_11h59.51.799,search_v5,2021.1.2,Win32,37.515006,,,space,0.279,0,111,111,7,1,,,,,,,,,,,,,,,4,,
,,,,,,,,,,,,,,,,p,1,0.742,,,,,,,,3_dist_green/trial16.png,1,p,easy,greenverival,5f06eefaf3fc742667b4e79d,34,male,2021-05-03_11h59.51.799,search_v5,2021.1.2,Win32,37.515006,,,space,0.224,0,112,112,25,1,,,,,,,,,,,,,,,3,,
,,,,,,,,,,,,,,,,p,1,0.767,,,,,,,,9_dist_green/trial1.png,1,p,mid,greenverival,5f06eefaf3fc742667b4e79d,34,male,2021-05-03_11h59.51.799,search_v5,2021.1.2,Win32,37.515006,,,space,0.327,0,113,113,2,1,,,,,,,,,,,,,,,9,,
,,,,,,,,,,,,,,,,p,1,0.601,,,,,,,,9_dist_green/trial24.png,1,p,mid,greenverival,5f06eefaf3fc742667b4e79d,34,male,2021-05-03_11h59.51.799,search_v5,2021.1.2,Win32,37.515006,,,space,0.309,0,114,114,56,1,,,,,,,,,,,,,,,9,,
,,,,,,,,,,,,,,,,p,1,0.821,,,,,,,,9_dist_green/trial17.png,1,p,mid,greenverival,5f06eefaf3fc742667b4e79d,34,male,2021-05-03_11h59.51.799,search_v5,2021.1.2,Win32,37.515006,,,space,0.293,0,115,115,49,1,,,,,,,,,,,,,,,9,,
,,,,,,,,,,,,,,,,p,1,0.723,,,,,,,,9_dist_green/trial2.png,1,p,mid,greenverival,5f06eefaf3fc742667b4e79d,34,male,2021-05-03_11h59.51.799,search_v5,2021.1.2,Win32,37.515006,,,space,0.251,0,116,116,3,1,,,,,,,,,,,,,,,9,,
,,,,,,,,,,,,,,,,p,1,0.63,,,,,,,,9_dist_green/trial12.png,1,p,mid,greenverival,5f06eefaf3fc742667b4e79d,34,male,2021-05-03_11h59.51.799,search_v5,2021.1.2,Win32,37.515006,,,space,0.344,0,117,117,44,1,,,,,,,,,,,,,,,9,,
,,,,,,,,,,,,,,,,p,1,0.675,,,,,,,,15_dist_green/trial6.png,1,p,hard,greenverival,5f06eefaf3fc742667b4e79d,34,male,2021-05-03_11h59.51.799,search_v5,2021.1.2,Win32,37.515006,,,space,0.316,0,118,118,61,1,,,,,,,,,,,,,,,15,,
,,,,,,,,,,,,,,,,a,1,0.917,,,,,,,,0_targ_4_dist_green/trial18.png,0,a,easy,greenverival,5f06eefaf3fc742667b4e79d,34,male,2021-05-03_11h59.51.799,search_v5,2021.1.2,Win32,37.515006,,,space,0.26,0,119,119,96,1,,,,,,,,,,,,,,,4,,
,,,,,,,,,,,,,,,,a,1,0.813,,,,,,,,0_targ_10_dist_green/trial15.png,0,a,mid,greenverival,5f06eefaf3fc742667b4e79d,34,male,2021-05-03_11h59.51.799,search_v5,2021.1.2,Win32,37.515006,,,space,0.272,0,120,120,116,1,,,,,,,,,,,,,,,10,,
,,,,,,,,,,,,,,,,p,1,0.754,,,,,,,,15_dist_green/trial23.png,1,p,hard,greenverival,5f06eefaf3fc742667b4e79d,34,male,2021-05-03_11h59.51.799,search_v5,2021.1.2,Win32,37.515006,,,space,0.226,0,121,121,78,1,,,,,,,,,,,,,,,15,,
,,,,,,,,,,,,,,,,a,1,0.778,,,,,,,,0_targ_4_dist_green/trial1.png,0,a,easy,greenverival,5f06eefaf3fc742667b4e79d,34,male,2021-05-03_11h59.51.799,search_v5,2021.1.2,Win32,37.515006,,,space,0.223,0,122,122,6,1,,,,,,,,,,,,,,,4,,
,,,,,,,,,,,,,,,,a,1,0.887,,,,,,,,0_targ_10_dist_green/trial10.png,0,a,mid,greenverival,5f06eefaf3fc742667b4e79d,34,male,2021-05-03_11h59.51.799,search_v5,2021.1.2,Win32,37.515006,,,space,0.29,0,123,123,111,1,,,,,,,,,,,,,,,10,,
,,,,,,,,,,,,,,,,a,1,0.769,,,,,,,,0_targ_10_dist_green/trial2.png,0,a,mid,greenverival,5f06eefaf3fc742667b4e79d,34,male,2021-05-03_11h59.51.799,search_v5,2021.1.2,Win32,37.515006,,,space,0.307,0,124,124,9,1,,,,,,,,,,,,,,,10,,
,,,,,,,,,,,,,,,,p,1,0.894,,,,,,,,15_dist_green/trial19.png,1,p,hard,greenverival,5f06eefaf3fc742667b4e79d,34,male,2021-05-03_11h59.51.799,search_v5,2021.1.2,Win32,37.515006,,,space,0.196,0,125,125,74,1,,,,,,,,,,,,,,,15,,
,,,,,,,,,,,,,,,,a,1,0.799,,,,,,,,0_targ_4_dist_green/trial23.png,0,a,easy,greenverival,5f06eefaf3fc742667b4e79d,34,male,2021-05-03_11h59.51.799,search_v5,2021.1.2,Win32,37.515006,,,space,0.254,0,126,126,101,1,,,,,,,,,,,,,,,4,,
,,,,,,,,,,,,,,,,p,1,0.82,,,,,,,,9_dist_green/trial22.png,1,p,mid,greenverival,5f06eefaf3fc742667b4e79d,34,male,2021-05-03_11h59.51.799,search_v5,2021.1.2,Win32,37.515006,,,space,0.237,0,127,127,54,1,,,,,,,,,,,,,,,9,,
,,,,,,,,,,,,,,,,p,1,0.764,,,,,,,,15_dist_green/trial11.png,1,p,hard,greenverival,5f06eefaf3fc742667b4e79d,34,male,2021-05-03_11h59.51.799,search_v5,2021.1.2,Win32,37.515006,,,space,0.233,0,128,128,66,1,,,,,,,,,,,,,,,15,,
,,,,,,,,,,,,,,,,a,1,0.671,,,,,,,,0_targ_4_dist_green/trial24.png,0,a,easy,greenverival,5f06eefaf3fc742667b4e79d,34,male,2021-05-03_11h59.51.799,search_v5,2021.1.2,Win32,37.515006,,,space,0.277,0,129,129,102,1,,,,,,,,,,,,,,,4,,
,,,,,,,,,,,,,,,,a,1,0.698,,,,,,,,0_targ_4_dist_green/trial14.png,0,a,easy,greenverival,5f06eefaf3fc742667b4e79d,34,male,2021-05-03_11h59.51.799,search_v5,2021.1.2,Win32,37.515006,,,space,0.264,0,130,130,92,1,,,,,,,,,,,,,,,4,,
,,,,,,,,,,,,,,,,a,1,0.906,,,,,,,,0_targ_16_dist_green/trial11.png,0,a,hard,greenverival,5f06eefaf3fc742667b4e79d,34,male,2021-05-03_11h59.51.799,search_v5,2021.1.2,Win32,37.515006,,,space,0.303,0,131,131,135,1,,,,,,,,,,,,,,,16,,
,,,,,,,,,,,,,,,,p,1,0.654,,,,,,,,3_dist_green/trial7.png,1,p,easy,greenverival,5f06eefaf3fc742667b4e79d,34,male,2021-05-03_11h59.51.799,search_v5,2021.1.2,Win32,37.515006,,,space,0.289,0,132,132,16,1,,,,,,,,,,,,,,,3,,
,,,,,,,,,,,,,,,,p,1,0.7,,,,,,,,15_dist_green/trial14.png,1,p,hard,greenverival,5f06eefaf3fc742667b4e79d,34,male,2021-05-03_11h59.51.799,search_v5,2021.1.2,Win32,37.515006,,,space,0.296,0,133,133,69,1,,,,,,,,,,,,,,,15,,
,,,,,,,,,,,,,,,,a,1,0.837,,,,,,,,0_targ_16_dist_green/trial24.png,0,a,hard,greenverival,5f06eefaf3fc742667b4e79d,34,male,2021-05-03_11h59.51.799,search_v5,2021.1.2,Win32,37.515006,,,space,0.268,0,134,134,148,1,,,,,,,,,,,,,,,16,,
,,,,,,,,,,,,,,,,p,1,0.861,,,,,,,,9_dist_green/trial19.png,1,p,mid,greenverival,5f06eefaf3fc742667b4e79d,34,male,2021-05-03_11h59.51.799,search_v5,2021.1.2,Win32,37.515006,,,space,0.209,0,135,135,51,1,,,,,,,,,,,,,,,9,,
,,,,,,,,,,,,,,,,a,1,1.033,,,,,,,,0_targ_10_dist_green/trial18.png,0,a,mid,greenverival,5f06eefaf3fc742667b4e79d,34,male,2021-05-03_11h59.51.799,search_v5,2021.1.2,Win32,37.515006,,,space,0.254,0,136,136,119,1,,,,,,,,,,,,,,,10,,
,,,,,,,,,,,,,,,,a,1,0.695,,,,,,,,0_targ_10_dist_green/trial23.png,0,a,mid,greenverival,5f06eefaf3fc742667b4e79d,34,male,2021-05-03_11h59.51.799,search_v5,2021.1.2,Win32,37.515006,,,space,0.276,0,137,137,124,1,,,,,,,,,,,,,,,10,,
,,,,,,,,,,,,,,,,p,1,0.736,,,,,,,,15_dist_green/trial17.png,1,p,hard,greenverival,5f06eefaf3fc742667b4e79d,34,male,2021-05-03_11h59.51.799,search_v5,2021.1.2,Win32,37.515006,,,space,0.253,0,138,138,72,1,,,,,,,,,,,,,,,15,,
,,,,,,,,,,,,,,,,a,1,0.788,,,,,,,,0_targ_16_dist_green/trial19.png,0,a,hard,greenverival,5f06eefaf3fc742667b4e79d,34,male,2021-05-03_11h59.51.799,search_v5,2021.1.2,Win32,37.515006,,,space,0.249,0,139,139,143,1,,,,,,,,,,,,,,,16,,
,,,,,,,,,,,,,,,,p,1,0.83,,,,,,,,15_dist_green/trial10.png,1,p,hard,greenverival,5f06eefaf3fc742667b4e79d,34,male,2021-05-03_11h59.51.799,search_v5,2021.1.2,Win32,37.515006,,,space,0.189,0,140,140,65,1,,,,,,,,,,,,,,,15,,
,,,,,,,,,,,,,,,,a,1,0.796,,,,,,,,0_targ_4_dist_green/trial10.png,0,a,easy,greenverival,5f06eefaf3fc742667b4e79d,34,male,2021-05-03_11h59.51.799,search_v5,2021.1.2,Win32,37.515006,,,space,0.194,0,141,141,88,1,,,,,,,,,,,,,,,4,,
,,,,,,,,,,,,,,,,p,1,1.029,,,,,,,,15_dist_green/trial2.png,1,p,hard,greenverival,5f06eefaf3fc742667b4e79d,34,male,2021-05-03_11h59.51.799,search_v5,2021.1.2,Win32,37.515006,,,space,0.255,0,142,142,5,1,,,,,,,,,,,,,,,15,,
,,,,,,,,,,,,,,,,a,1,1.217,,,,,,,,0_targ_10_dist_green/trial19.png,0,a,mid,greenverival,5f06eefaf3fc742667b4e79d,34,male,2021-05-03_11h59.51.799,search_v5,2021.1.2,Win32,37.515006,,,space,0.208,0,143,143,120,1,,,,,,,,,,,,,,,10,,
,,,,,,,,,,,,,,,,p,1,1.013,,,,,,,,15_dist_green/trial22.png,1,p,hard,greenverival,5f06eefaf3fc742667b4e79d,34,male,2021-05-03_11h59.51.799,search_v5,2021.1.2,Win32,37.515006,,,space,0.231,0,144,144,77,1,,,,,,,,,,,,,,,15,,
,,,,,,,,,,,,,,,,p,1,0.676,,,,,,,,15_dist_green/trial9.png,1,p,hard,greenverival,5f06eefaf3fc742667b4e79d,34,male,2021-05-03_11h59.51.799,search_v5,2021.1.2,Win32,37.515006,,,space,0.226,0,145,145,64,1,,,,,,,,,,,,,,,15,,
,,,,,,,,,,,,,,,,p,1,0.594,,,,,,,,3_dist_green/trial17.png,1,p,easy,greenverival,5f06eefaf3fc742667b4e79d,34,male,2021-05-03_11h59.51.799,search_v5,2021.1.2,Win32,37.515006,,,space,0.25,0,146,146,26,1,,,,,,,,,,,,,,,3,,
,,,,,,,,,,,,,,,,a,1,0.819,,,,,,,,0_targ_10_dist_green/trial11.png,0,a,mid,greenverival,5f06eefaf3fc742667b4e79d,34,male,2021-05-03_11h59.51.799,search_v5,2021.1.2,Win32,37.515006,,,space,0.22,0,147,147,112,1,,,,,,,,,,,,,,,10,,
,,,,,,,,,,,,,,,,p,1,0.699,,,,,,,,9_dist_green/trial11.png,1,p,mid,greenverival,5f06eefaf3fc742667b4e79d,34,male,2021-05-03_11h59.51.799,search_v5,2021.1.2,Win32,37.515006,,,space,0.22,0,148,148,43,1,,,,,,,,,,,,,,,9,,
,,,,,,,,,,,,,,,,a,1,1.169,,,,,,,,0_targ_16_dist_green/trial8.png,0,a,hard,greenverival,5f06eefaf3fc742667b4e79d,34,male,2021-05-03_11h59.51.799,search_v5,2021.1.2,Win32,37.515006,,,space,0.241,0,149,149,132,1,,,,,,,,,,,,,,,16,,
,,,,,,,,,,,,,,,,,,,,,,,,,,,,,,,5f06eefaf3fc742667b4e79d,34,male,2021-05-03_11h59.51.799,search_v5,2021.1.2,Win32,37.515006,,,,,,,,,,0,1,1,0,1,conGreen.xlsx,green vertical,Look for green vertical bar (target) and indicate if it is present or absent in the array. If green vertical target is present press 'p' and if absent press 'a'. Press SPACE to start.,green_bar_example.jpg,,,,egGreen.xlsx,,,,
,,,,,,,,,,,,space,11.546,space,14.732,p,0,7.008,space,1.15,0,0,0,4,1,line_hard_TA/10_4_NaN_none_absent.jpg,0,a,hard,line,5f06eefaf3fc742667b4e79d,34,male,2021-05-03_11h59.51.799,search_v5,2021.1.2,Win32,37.515006,,,,,,,,,,,,,,,,,,,,,,,,,,
,,,,,,,,,,,,,,,,p,1,2.126,space,0.557,0,1,1,3,1,line_easy_TP/11_2_0.5236_all_right_col_14_row_9.jpg,1,p,easy,line,5f06eefaf3fc742667b4e79d,34,male,2021-05-03_11h59.51.799,search_v5,2021.1.2,Win32,37.515006,,,,,,,,,,,,,,,,,,,,,,,,,,
,,,,,,,,,,,,,,,,a,1,4.931,space,0.468,0,2,2,9,1,line_mid_TA/10_2_NaN_none_absent.jpg,0,a,mid,line,5f06eefaf3fc742667b4e79d,34,male,2021-05-03_11h59.51.799,search_v5,2021.1.2,Win32,37.515006,,,,,,,,,,,,,,,,,,,,,,,,,,
,,,,,,,,,,,,,,,,p,1,1.479,space,0.367,0,3,3,11,1,line_mid_TP/9_3_1.1424_none_left_col_10_row_8.jpg,1,p,mid,line,5f06eefaf3fc742667b4e79d,34,male,2021-05-03_11h59.51.799,search_v5,2021.1.2,Win32,37.515006,,,,,,,,,,,,,,,,,,,,,,,,,,
,,,,,,,,,,,,,,,,a,1,2.726,space,0.444,0,4,4,8,1,line_mid_TA/10_1_NaN_none_absent.jpg,0,a,mid,line,5f06eefaf3fc742667b4e79d,34,male,2021-05-03_11h59.51.799,search_v5,2021.1.2,Win32,37.515006,,,,,,,,,,,,,,,,,,,,,,,,,,
,,,,,,,,,,,,,,,,a,1,2.867,space,0.402,0,5,5,5,1,line_hard_TA/11_3_NaN_none_absent.jpg,0,a,hard,line,5f06eefaf3fc742667b4e79d,34,male,2021-05-03_11h59.51.799,search_v5,2021.1.2,Win32,37.515006,,,,,,,,,,,,,,,,,,,,,,,,,,
,,,,,,,,,,,,,,,,a,1,1.616,space,0.313,0,6,6,0,1,line_easy_TA/10_3_NaN_all_absent.jpg,0,a,easy,line,5f06eefaf3fc742667b4e79d,34,male,2021-05-03_11h59.51.799,search_v5,2021.1.2,Win32,37.515006,,,,,,,,,,,,,,,,,,,,,,,,,,
,,,,,,,,,,,,,,,,a,1,1.132,space,0.258,0,7,7,1,1,line_easy_TA/11_1_NaN_all_absent.jpg,0,a,easy,line,5f06eefaf3fc742667b4e79d,34,male,2021-05-03_11h59.51.799,search_v5,2021.1.2,Win32,37.515006,,,,,,,,,,,,,,,,,,,,,,,,,,
,,,,,,,,,,,,,,,,a,0,1.746,space,0.294,0,8,8,10,1,line_mid_TP/9_2_1.1424_none_right_col_20_row_1.jpg,1,p,mid,line,5f06eefaf3fc742667b4e79d,34,male,2021-05-03_11h59.51.799,search_v5,2021.1.2,Win32,37.515006,,,,,,,,,,,,,,,,,,,,,,,,,,
,,,,,,,,,,,,,,,,p,1,1.035,space,0.309,0,9,9,2,1,line_easy_TP/10_2_0.5236_all_right_col_18_row_7.jpg,1,p,easy,line,5f06eefaf3fc742667b4e79d,34,male,2021-05-03_11h59.51.799,search_v5,2021.1.2,Win32,37.515006,,,,,,,,,,,,,,,,,,,,,,,,,,
,,,,,,,,,,,,,,,,a,0,8.542,space,0.523,0,10,10,6,1,line_hard_TP/10_1_2.0944_none_left_col_10_row_11.jpg,1,p,hard,line,5f06eefaf3fc742667b4e79d,34,male,2021-05-03_11h59.51.799,search_v5,2021.1.2,Win32,37.515006,,,,,,,,,,,,,,,,,,,,,,,,,,
,,,,,,,,,,,,,,,,p,1,1.739,space,0.466,0,11,11,7,1,line_hard_TP/11_4_2.0944_none_right_col_18_row_11.jpg,1,p,hard,line,5f06eefaf3fc742667b4e79d,34,male,2021-05-03_11h59.51.799,search_v5,2021.1.2,Win32,37.515006,,,,,,,,,,,,,,,,,,,,,,,,,,
,,,,,,,,,,,,,,,,a,0,5.327,,,,,,,,line_hard_TP/19_4_2.0944_none_right_col_16_row_3.jpg,1,p,hard,line,5f06eefaf3fc742667b4e79d,34,male,2021-05-03_11h59.51.799,search_v5,2021.1.2,Win32,37.515006,space,3.484,space,1.079,0,0,0,89,1,,,,,,,,,,,,,,,,,
,,,,,,,,,,,,,,,,p,1,0.99,,,,,,,,line_easy_TP/6_4_0.5236_all_right_col_18_row_7.jpg,1,p,easy,line,5f06eefaf3fc742667b4e79d,34,male,2021-05-03_11h59.51.799,search_v5,2021.1.2,Win32,37.515006,,,space,0.368,0,1,1,52,1,,,,,,,,,,,,,,,,,
,,,,,,,,,,,,,,,,a,1,5.153,,,,,,,,line_mid_TA/4_0_NaN_none_absent.jpg,0,a,mid,line,5f06eefaf3fc742667b4e79d,34,male,2021-05-03_11h59.51.799,search_v5,2021.1.2,Win32,37.515006,,,space,0.402,0,2,2,117,1,,,,,,,,,,,,,,,,,
,,,,,,,,,,,,,,,,a,1,2.508,,,,,,,,line_easy_TA/17_2_NaN_all_absent.jpg,0,a,easy,line,5f06eefaf3fc742667b4e79d,34,male,2021-05-03_11h59.51.799,search_v5,2021.1.2,Win32,37.515006,,,space,0.272,0,3,3,17,1,,,,,,,,,,,,,,,,,
,,,,,,,,,,,,,,,,a,1,10.09,,,,,,,,line_hard_TA/4_0_NaN_none_absent.jpg,0,a,hard,line,5f06eefaf3fc742667b4e79d,34,male,2021-05-03_11h59.51.799,search_v5,2021.1.2,Win32,37.515006,,,space,0.436,0,4,4,77,1,,,,,,,,,,,,,,,,,
,,,,,,,,,,,,,,,,a,0,4.802,,,,,,,,line_mid_TP/2_1_1.7453_all_right_col_14_row_16.jpg,1,p,mid,line,5f06eefaf3fc742667b4e79d,34,male,2021-05-03_11h59.51.799,search_v5,2021.1.2,Win32,37.515006,,,space,0.495,0,5,5,131,1,,,,,,,,,,,,,,,,,
,,,,,,,,,,,,,,,,p,1,2.549,,,,,,,,line_mid_TP/5_0_1.1424_none_left_col_7_row_16.jpg,1,p,mid,line,5f06eefaf3fc742667b4e79d,34,male,2021-05-03_11h59.51.799,search_v5,2021.1.2,Win32,37.515006,,,space,0.354,0,6,6,138,1,,,,,,,,,,,,,,,,,
,,,,,,,,,,,,,,,,p,1,0.883,,,,,,,,line_mid_TP/9_3_1.1424_none_left_col_10_row_8.jpg,1,p,mid,line,5f06eefaf3fc742667b4e79d,34,male,2021-05-03_11h59.51.799,search_v5,2021.1.2,Win32,37.515006,,,space,0.33,0,7,7,11,1,,,,,,,,,,,,,,,,,
,,,,,,,,,,,,,,,,a,0,6.913,,,,,,,,line_mid_TP/6_3_1.7453_all_right_col_13_row_7.jpg,1,p,mid,line,5f06eefaf3fc742667b4e79d,34,male,2021-05-03_11h59.51.799,search_v5,2021.1.2,Win32,37.515006,,,space,0.024,0,8,8,143,1,,,,,,,,,,,,,,,,,
,,,,,,,,,,,,,,,,a,1,9.475,,,,,,,,line_mid_TA/10_4_NaN_all_absent.jpg,0,a,mid,line,5f06eefaf3fc742667b4e79d,34,male,2021-05-03_11h59.51.799,search_v5,2021.1.2,Win32,37.515006,,,space,0.425,0,9,9,104,1,,,,,,,,,,,,,,,,,
,,,,,,,,,,,,,,,,a,1,11.663,,,,,,,,line_hard_TA/20_2_NaN_none_absent.jpg,0,a,hard,line,5f06eefaf3fc742667b4e79d,34,male,2021-05-03_11h59.51.799,search_v5,2021.1.2,Win32,37.515006,,,space,0.484,0,10,10,69,1,,,,,,,,,,,,,,,,,
,,,,,,,,,,,,,,,,p,1,2.829,,,,,,,,line_mid_TP/6_2_1.1424_none_left_col_2_row_6.jpg,1,p,mid,line,5f06eefaf3fc742667b4e79d,34,male,2021-05-03_11h59.51.799,search_v5,2021.1.2,Win32,37.515006,,,space,0.379,0,11,11,142,1,,,,,,,,,,,,,,,,,
,,,,,,,,,,,,,,,,a,1,5.738,,,,,,,,line_mid_TA/12_1_NaN_all_absent.jpg,0,a,mid,line,5f06eefaf3fc742667b4e79d,34,male,2021-05-03_11h59.51.799,search_v5,2021.1.2,Win32,37.515006,,,space,0.475,0,12,12,109,1,,,,,,,,,,,,,,,,,
,,,,,,,,,,,,,,,,a,0,6.355,,,,,,,,line_mid_TP/6_4_1.7453_all_left_col_6_row_5.jpg,1,p,mid,line,5f06eefaf3fc742667b4e79d,34,male,2021-05-03_11h59.51.799,search_v5,2021.1.2,Win32,37.515006,,,space,0.251,0,13,13,144,1,,,,,,,,,,,,,,,,,
,,,,,,,,,,,,,,,,p,1,12.016,,,,,,,,line_hard_TP/9_2_2.0944_none_right_col_21_row_2.jpg,1,p,hard,line,5f06eefaf3fc742667b4e79d,34,male,2021-05-03_11h59.51.799,search_v5,2021.1.2,Win32,37.515006,,,space,0.551,0,14,14,102,1,,,,,,,,,,,,,,,,,
,,,,,,,,,,,,,,,,p,1,4.197,,,,,,,,line_mid_TP/1_0_1.7453_all_right_col_13_row_9.jpg,1,p,mid,line,5f06eefaf3fc742667b4e79d,34,male,2021-05-03_11h59.51.799,search_v5,2021.1.2,Win32,37.515006,,,space,0.423,0,15,15,127,1,,,,,,,,,,,,,,,,,
,,,,,,,,,,,,,,,,a,0,10.584,,,,,,,,line_hard_TP/18_4_2.0944_none_left_col_4_row_9.jpg,1,p,hard,line,5f06eefaf3fc742667b4e79d,34,male,2021-05-03_11h59.51.799,search_v5,2021.1.2,Win32,37.515006,,,space,0.266,0,16,16,88,1,,,,,,,,,,,,,,,,,
,,,,,,,,,,,,,,,,a,1,3.106,,,,,,,,line_mid_TA/2_2_NaN_none_absent.jpg,0,a,mid,line,5f06eefaf3fc742667b4e79d,34,male,2021-05-03_11h59.51.799,search_v5,2021.1.2,Win32,37.515006,,,space,0.408,0,17,17,112,1,,,,,,,,,,,,,,,,,
,,,,,,,,,,,,,,,,p,1,5.784,,,,,,,,line_hard_TP/2_1_2.0944_none_right_col_16_row_14.jpg,1,p,hard,line,5f06eefaf3fc742667b4e79d,34,male,2021-05-03_11h59.51.799,search_v5,2021.1.2,Win32,37.515006,,,space,0.424,0,18,18,95,1,,,,,,,,,,,,,,,,,
,,,,,,,,,,,,,,,,p,1,12.118,,,,,,,,line_hard_TP/17_1_2.0944_none_right_col_18_row_9.jpg,1,p,hard,line,5f06eefaf3fc742667b4e79d,34,male,2021-05-03_11h59.51.799,search_v5,2021.1.2,Win32,37.515006,,,space,0.371,0,19,19,85,1,,,,,,,,,,,,,,,,,
,,,,,,,,,,,,,,,,a,1,12.864,,,,,,,,line_hard_TA/4_2_NaN_none_absent.jpg,0,a,hard,line,5f06eefaf3fc742667b4e79d,34,male,2021-05-03_11h59.51.799,search_v5,2021.1.2,Win32,37.515006,,,space,0.446,0,20,20,78,1,,,,,,,,,,,,,,,,,
,,,,,,,,,,,,,,,,p,0,6.451,,,,,,,,line_hard_TA/11_3_NaN_none_absent.jpg,0,a,hard,line,5f06eefaf3fc742667b4e79d,34,male,2021-05-03_11h59.51.799,search_v5,2021.1.2,Win32,37.515006,,,space,0.561,0,21,21,5,1,,,,,,,,,,,,,,,,,
,,,,,,,,,,,,,,,,p,1,1.323,,,,,,,,line_easy_TP/8_4_0.5236_all_left_col_2_row_6.jpg,1,p,easy,line,5f06eefaf3fc742667b4e79d,34,male,2021-05-03_11h59.51.799,search_v5,2021.1.2,Win32,37.515006,,,space,0.331,0,22,22,56,1,,,,,,,,,,,,,,,,,
,,,,,,,,,,,,,,,,p,0,8.883,,,,,,,,line_hard_TA/6_1_NaN_none_absent.jpg,0,a,hard,line,5f06eefaf3fc742667b4e79d,34,male,2021-05-03_11h59.51.799,search_v5,2021.1.2,Win32,37.515006,,,space,0.5,0,23,23,80,1,,,,,,,,,,,,,,,,,
,,,,,,,,,,,,,,,,p,1,1.06,,,,,,,,line_mid_TP/6_0_1.1424_none_left_col_8_row_9.jpg,1,p,mid,line,5f06eefaf3fc742667b4e79d,34,male,2021-05-03_11h59.51.799,search_v5,2021.1.2,Win32,37.515006,,,space,0.32,0,24,24,141,1,,,,,,,,,,,,,,,,,
,,,,,,,,,,,,,,,,a,0,6.174,,,,,,,,line_mid_TP/1_1_1.1424_none_right_col_21_row_2.jpg,1,p,mid,line,5f06eefaf3fc742667b4e79d,34,male,2021-05-03_11h59.51.799,search_v5,2021.1.2,Win32,37.515006,,,space,0.145,0,25,25,128,1,,,,,,,,,,,,,,,,,
,,,,,,,,,,,,,,,,a,1,20.997,,,,,,,,line_hard_TA/22_4_NaN_none_absent.jpg,0,a,hard,line,5f06eefaf3fc742667b4e79d,34,male,2021-05-03_11h59.51.799,search_v5,2021.1.2,Win32,37.515006,,,space,0.529,0,26,26,72,1,,,,,,,,,,,,,,,,,
,,,,,,,,,,,,,,,,a,1,15.66,,,,,,,,line_hard_TA/24_3_NaN_none_absent.jpg,0,a,hard,line,5f06eefaf3fc742667b4e79d,34,male,2021-05-03_11h59.51.799,search_v5,2021.1.2,Win32,37.515006,,,space,0.59,0,27,27,75,1,,,,,,,,,,,,,,,,,
,,,,,,,,,,,,,,,,p,1,7.118,,,,,,,,line_mid_TP/9_1_1.7453_all_left_col_4_row_15.jpg,1,p,mid,line,5f06eefaf3fc742667b4e79d,34,male,2021-05-03_11h59.51.799,search_v5,2021.1.2,Win32,37.515006,,,space,0.534,0,28,28,149,1,,,,,,,,,,,,,,,,,
,,,,,,,,,,,,,,,,p,1,15.263,,,,,,,,line_hard_TP/18_1_2.0944_none_left_col_4_row_3.jpg,1,p,hard,line,5f06eefaf3fc742667b4e79d,34,male,2021-05-03_11h59.51.799,search_v5,2021.1.2,Win32,37.515006,,,space,0.589,0,29,29,87,1,,,,,,,,,,,,,,,,,
,,,,,,,,,,,,,,,,a,1,13.696,,,,,,,,line_hard_TA/10_4_NaN_none_absent.jpg,0,a,hard,line,5f06eefaf3fc742667b4e79d,34,male,2021-05-03_11h59.51.799,search_v5,2021.1.2,Win32,37.515006,,,space,0.461,0,30,30,4,1,,,,,,,,,,,,,,,,,
,,,,,,,,,,,,,,,,a,0,17.971,,,,,,,,line_hard_TP/12_4_2.0944_none_right_col_17_row_12.jpg,1,p,hard,line,5f06eefaf3fc742667b4e79d,34,male,2021-05-03_11h59.51.799,search_v5,2021.1.2,Win32,37.515006,,,space,0.188,0,31,31,82,1,,,,,,,,,,,,,,,,,
,,,,,,,,,,,,,,,,a,1,19.849,,,,,,,,line_hard_TA/20_1_NaN_none_absent.jpg,0,a,hard,line,5f06eefaf3fc742667b4e79d,34,male,2021-05-03_11h59.51.799,search_v5,2021.1.2,Win32,37.515006,,,space,0.449,0,32,32,68,1,,,,,,,,,,,,,,,,,
,,,,,,,,,,,,,,,,a,1,4.305,,,,,,,,line_easy_TA/2_4_NaN_all_absent.jpg,0,a,easy,line,5f06eefaf3fc742667b4e79d,34,male,2021-05-03_11h59.51.799,search_v5,2021.1.2,Win32,37.515006,,,space,0.418,0,33,33,24,1,,,,,,,,,,,,,,,,,
,,,,,,,,,,,,,,,,a,1,26.142,,,,,,,,line_hard_TA/23_1_NaN_none_absent.jpg,0,a,hard,line,5f06eefaf3fc742667b4e79d,34,male,2021-05-03_11h59.51.799,search_v5,2021.1.2,Win32,37.515006,,,space,0.453,0,34,34,73,1,,,,,,,,,,,,,,,,,
,,,,,,,,,,,,,,,,p,1,1.493,,,,,,,,line_mid_TP/5_2_1.1424_none_right_col_17_row_9.jpg,1,p,mid,line,5f06eefaf3fc742667b4e79d,34,male,2021-05-03_11h59.51.799,search_v5,2021.1.2,Win32,37.515006,,,space,0.513,0,35,35,140,1,,,,,,,,,,,,,,,,,
,,,,,,,,,,,,,,,,p,1,7.026,,,,,,,,line_hard_TP/9_3_2.0944_none_right_col_16_row_16.jpg,1,p,hard,line,5f06eefaf3fc742667b4e79d,34,male,2021-05-03_11h59.51.799,search_v5,2021.1.2,Win32,37.515006,,,space,0.447,0,36,36,103,1,,,,,,,,,,,,,,,,,
,,,,,,,,,,,,,,,,p,1,1.075,,,,,,,,line_easy_TP/11_2_0.5236_all_right_col_14_row_9.jpg,1,p,easy,line,5f06eefaf3fc742667b4e79d,34,male,2021-05-03_11h59.51.799,search_v5,2021.1.2,Win32,37.515006,,,space,0.417,0,37,37,3,1,,,,,,,,,,,,,,,,,
,,,,,,,,,,,,,,,,p,1,6.048,,,,,,,,line_mid_TP/4_3_1.7453_all_left_col_9_row_4.jpg,1,p,mid,line,5f06eefaf3fc742667b4e79d,34,male,2021-05-03_11h59.51.799,search_v5,2021.1.2,Win32,37.515006,,,space,0.43,0,38,38,136,1,,,,,,,,,,,,,,,,,
,,,,,,,,,,,,,,,,a,1,9.093,,,,,,,,line_mid_TA/4_2_NaN_all_absent.jpg,0,a,mid,line,5f06eefaf3fc742667b4e79d,34,male,2021-05-03_11h59.51.799,search_v5,2021.1.2,Win32,37.515006,,,space,0.478,0,39,39,118,1,,,,,,,,,,,,,,,,,
,,,,,,,,,,,,,,,,a,1,3.292,,,,,,,,line_easy_TA/19_2_NaN_all_absent.jpg,0,a,easy,line,5f06eefaf3fc742667b4e79d,34,male,2021-05-03_11h59.51.799,search_v5,2021.1.2,Win32,37.515006,,,space,0.438,0,40,40,18,1,,,,,,,,,,,,,,,,,
,,,,,,,,,,,,,,,,p,1,1.032,,,,,,,,line_easy_TP/21_2_0.5236_all_right_col_16_row_1.jpg,1,p,easy,line,5f06eefaf3fc742667b4e79d,34,male,2021-05-03_11h59.51.799,search_v5,2021.1.2,Win32,37.515006,,,space,0.356,0,41,41,45,1,,,,,,,,,,,,,,,,,
,,,,,,,,,,,,,,,,a,1,13.731,,,,,,,,line_hard_TA/13_1_NaN_none_absent.jpg,0,a,hard,line,5f06eefaf3fc742667b4e79d,34,male,2021-05-03_11h59.51.799,search_v5,2021.1.2,Win32,37.515006,,,space,0.453,0,42,42,58,1,,,,,,,,,,,,,,,,,
,,,,,,,,,,,,,,,,p,1,1.065,,,,,,,,line_easy_TP/19_1_0.5236_all_left_col_6_row_1.jpg,1,p,easy,line,5f06eefaf3fc742667b4e79d,34,male,2021-05-03_11h59.51.799,search_v5,2021.1.2,Win32,37.515006,,,space,0.346,0,43,43,41,1,,,,,,,,,,,,,,,,,
,,,,,,,,,,,,,,,,a,1,3.298,,,,,,,,line_easy_TA/9_1_NaN_all_absent.jpg,0,a,easy,line,5f06eefaf3fc742667b4e79d,34,male,2021-05-03_11h59.51.799,search_v5,2021.1.2,Win32,37.515006,,,space,0.496,0,44,44,34,1,,,,,,,,,,,,,,,,,
,,,,,,,,,,,,,,,,p,1,2.347,,,,,,,,line_hard_TP/17_3_2.0944_none_right_col_17_row_12.jpg,1,p,hard,line,5f06eefaf3fc742667b4e79d,34,male,2021-05-03_11h59.51.799,search_v5,2021.1.2,Win32,37.515006,,,space,0.475,0,45,45,86,1,,,,,,,,,,,,,,,,,
,,,,,,,,,,,,,,,,p,1,0.975,,,,,,,,line_easy_TP/13_4_0.5236_all_right_col_13_row_13.jpg,1,p,easy,line,5f06eefaf3fc742667b4e79d,34,male,2021-05-03_11h59.51.799,search_v5,2021.1.2,Win32,37.515006,,,space,0.326,0,46,46,37,1,,,,,,,,,,,,,,,,,
,,,,,,,,,,,,,,,,a,1,16.003,,,,,,,,line_hard_TA/17_4_NaN_none_absent.jpg,0,a,hard,line,5f06eefaf3fc742667b4e79d,34,male,2021-05-03_11h59.51.799,search_v5,2021.1.2,Win32,37.515006,,,space,0.428,0,47,47,65,1,,,,,,,,,,,,,,,,,
,,,,,,,,,,,,,,,,p,1,1.27,,,,,,,,line_mid_TP/5_1_1.1424_none_right_col_20_row_16.jpg,1,p,mid,line,5f06eefaf3fc742667b4e79d,34,male,2021-05-03_11h59.51.799,search_v5,2021.1.2,Win32,37.515006,,,space,0.371,0,48,48,139,1,,,,,,,,,,,,,,,,,
,,,,,,,,,,,,,,,,a,1,9.561,,,,,,,,line_mid_TA/11_2_NaN_all_absent.jpg,0,a,mid,line,5f06eefaf3fc742667b4e79d,34,male,2021-05-03_11h59.51.799,search_v5,2021.1.2,Win32,37.515006,,,space,0.371,0,49,49,106,1,,,,,,,,,,,,,,,,,
,,,,,,,,,,,,,,,,p,1,0.835,,,,,,,,line_easy_TP/9_4_0.5236_all_right_col_16_row_3.jpg,1,p,easy,line,5f06eefaf3fc742667b4e79d,34,male,2021-05-03_11h59.51.799,search_v5,2021.1.2,Win32,37.515006,,,space,0.323,0,50,50,57,1,,,,,,,,,,,,,,,,,
,,,,,,,,,,,,,,,,a,1,2.076,,,,,,,,line_easy_TA/4_3_NaN_all_absent.jpg,0,a,easy,line,5f06eefaf3fc742667b4e79d,34,male,2021-05-03_11h59.51.799,search_v5,2021.1.2,Win32,37.515006,,,space,0.385,0,51,51,28,1,,,,,,,,,,,,,,,,,
,,,,,,,,,,,,,,,,a,0,10.284,,,,,,,,line_hard_TP/24_2_2.0944_none_left_col_9_row_8.jpg,1,p,hard,line,5f06eefaf3fc742667b4e79d,34,male,2021-05-03_11h59.51.799,search_v5,2021.1.2,Win32,37.515006,,,space,0.428,0,52,52,94,1,,,,,,,,,,,,,,,,,
,,,,,,,,,,,,,,,,a,1,12.034,,,,,,,,line_hard_TA/15_4_NaN_none_absent.jpg,0,a,hard,line,5f06eefaf3fc742667b4e79d,34,male,2021-05-03_11h59.51.799,search_v5,2021.1.2,Win32,37.515006,,,space,0.366,0,53,53,63,1,,,,,,,,,,,,,,,,,
,,,,,,,,,,,,,,,,p,1,1.235,,,,,,,,line_mid_TP/8_1_1.1424_none_left_col_6_row_14.jpg,1,p,mid,line,5f06eefaf3fc742667b4e79d,34,male,2021-05-03_11h59.51.799,search_v5,2021.1.2,Win32,37.515006,,,space,0.309,0,54,54,148,1,,,,,,,,,,,,,,,,,
,,,,,,,,,,,,,,,,a,1,2.088,,,,,,,,line_easy_TA/3_4_NaN_all_absent.jpg,0,a,easy,line,5f06eefaf3fc742667b4e79d,34,male,2021-05-03_11h59.51.799,search_v5,2021.1.2,Win32,37.515006,,,space,0.359,0,55,55,27,1,,,,,,,,,,,,,,,,,
,,,,,,,,,,,,,,,,p,1,0.874,,,,,,,,line_easy_TP/6_3_0.5236_all_left_col_10_row_2.jpg,1,p,easy,line,5f06eefaf3fc742667b4e79d,34,male,2021-05-03_11h59.51.799,search_v5,2021.1.2,Win32,37.515006,,,space,0.313,0,56,56,51,1,,,,,,,,,,,,,,,,,
,,,,,,,,,,,,,,,,a,1,3,,,,,,,,line_easy_TA/11_1_NaN_all_absent.jpg,0,a,easy,line,5f06eefaf3fc742667b4e79d,34,male,2021-05-03_11h59.51.799,search_v5,2021.1.2,Win32,37.515006,,,space,0.357,0,57,57,1,1,,,,,,,,,,,,,,,,,
,,,,,,,,,,,,,,,,p,1,6.852,,,,,,,,line_hard_TP/14_3_2.0944_none_right_col_19_row_11.jpg,1,p,hard,line,5f06eefaf3fc742667b4e79d,34,male,2021-05-03_11h59.51.799,search_v5,2021.1.2,Win32,37.515006,,,space,0.589,0,58,58,84,1,,,,,,,,,,,,,,,,,
,,,,,,,,,,,,,,,,a,1,7.043,,,,,,,,line_mid_TA/11_4_NaN_all_absent.jpg,0,a,mid,line,5f06eefaf3fc742667b4e79d,34,male,2021-05-03_11h59.51.799,search_v5,2021.1.2,Win32,37.515006,,,space,0.446,0,59,59,108,1,,,,,,,,,,,,,,,,,
,,,,,,,,,,,,,,,,p,1,2.996,,,,,,,,line_mid_TP/4_4_1.1424_none_left_col_3_row_10.jpg,1,p,mid,line,5f06eefaf3fc742667b4e79d,34,male,2021-05-03_11h59.51.799,search_v5,2021.1.2,Win32,37.515006,,,space,0.379,0,60,60,137,1,,,,,,,,,,,,,,,,,
,,,,,,,,,,,,,,,,p,1,9.738,,,,,,,,line_hard_TP/6_0_2.0944_none_right_col_18_row_7.jpg,1,p,hard,line,5f06eefaf3fc742667b4e79d,34,male,2021-05-03_11h59.51.799,search_v5,2021.1.2,Win32,37.515006,,,space,0.534,0,61,61,98,1,,,,,,,,,,,,,,,,,
,,,,,,,,,,,,,,,,p,1,1.091,,,,,,,,line_mid_TP/2_4_1.1424_none_right_col_18_row_13.jpg,1,p,mid,line,5f06eefaf3fc742667b4e79d,34,male,2021-05-03_11h59.51.799,search_v5,2021.1.2,Win32,37.515006,,,space,0.321,0,62,62,133,1,,,,,,,,,,,,,,,,,
,,,,,,,,,,,,,,,,p,1,0.979,,,,,,,,line_mid_TP/2_3_1.1424_none_right_col_21_row_15.jpg,1,p,mid,line,5f06eefaf3fc742667b4e79d,34,male,2021-05-03_11h59.51.799,search_v5,2021.1.2,Win32,37.515006,,,space,0.297,0,63,63,132,1,,,,,,,,,,,,,,,,,
,,,,,,,,,,,,,,,,a,1,11.342,,,,,,,,line_mid_TA/1_2_NaN_all_absent.jpg,0,a,mid,line,5f06eefaf3fc742667b4e79d,34,male,2021-05-03_11h59.51.799,search_v5,2021.1.2,Win32,37.515006,,,space,0.447,0,64,64,110,1,,,,,,,,,,,,,,,,,
,,,,,,,,,,,,,,,,a,0,12.832,,,,,,,,line_hard_TP/24_1_2.0944_none_right_col_16_row_6.jpg,1,p,hard,line,5f06eefaf3fc742667b4e79d,34,male,2021-05-03_11h59.51.799,search_v5,2021.1.2,Win32,37.515006,,,space,1.727,0,65,65,93,1,,,,,,,,,,,,,,,,,
,,,,,,,,,,,,,,,,p,1,0.965,,,,,,,,line_easy_TP/13_3_0.5236_all_left_col_4_row_12.jpg,1,p,easy,line,5f06eefaf3fc742667b4e79d,34,male,2021-05-03_11h59.51.799,search_v5,2021.1.2,Win32,37.515006,,,space,0.377,0,66,66,36,1,,,,,,,,,,,,,,,,,
,,,,,,,,,,,,,,,,p,0,6.747,,,,,,,,line_hard_TA/3_2_NaN_none_absent.jpg,0,a,hard,line,5f06eefaf3fc742667b4e79d,34,male,2021-05-03_11h59.51.799,search_v5,2021.1.2,Win32,37.515006,,,space,0.174,0,67,67,76,1,,,,,,,,,,,,,,,,,
,,,,,,,,,,,,,,,,a,1,6.611,,,,,,,,line_mid_TA/5_4_NaN_none_absent.jpg,0,a,mid,line,5f06eefaf3fc742667b4e79d,34,male,2021-05-03_11h59.51.799,search_v5,2021.1.2,Win32,37.515006,,,space,0.438,0,68,68,120,1,,,,,,,,,,,,,,,,,
,,,,,,,,,,,,,,,,a,1,2.676,,,,,,,,line_easy_TA/16_2_NaN_all_absent.jpg,0,a,easy,line,5f06eefaf3fc742667b4e79d,34,male,2021-05-03_11h59.51.799,search_v5,2021.1.2,Win32,37.515006,,,space,0.435,0,69,69,15,1,,,,,,,,,,,,,,,,,
,,,,,,,,,,,,,,,,a,1,11.618,,,,,,,,line_hard_TA/1_4_NaN_none_absent.jpg,0,a,hard,line,5f06eefaf3fc742667b4e79d,34,male,2021-05-03_11h59.51.799,search_v5,2021.1.2,Win32,37.515006,,,space,0.384,0,70,70,67,1,,,,,,,,,,,,,,,,,
,,,,,,,,,,,,,,,,a,1,5.502,,,,,,,,line_mid_TA/3_2_NaN_none_absent.jpg,0,a,mid,line,5f06eefaf3fc742667b4e79d,34,male,2021-05-03_11h59.51.799,search_v5,2021.1.2,Win32,37.515006,,,space,0.351,0,71,71,114,1,,,,,,,,,,,,,,,,,
,,,,,,,,,,,,,,,,a,1,1.389,,,,,,,,line_easy_TA/7_3_NaN_all_absent.jpg,0,a,easy,line,5f06eefaf3fc742667b4e79d,34,male,2021-05-03_11h59.51.799,search_v5,2021.1.2,Win32,37.515006,,,space,0.306,0,72,72,33,1,,,,,,,,,,,,,,,,,
,,,,,,,,,,,,,,,,a,1,16.173,,,,,,,,line_hard_TA/15_1_NaN_none_absent.jpg,0,a,hard,line,5f06eefaf3fc742667b4e79d,34,male,2021-05-03_11h59.51.799,search_v5,2021.1.2,Win32,37.515006,,,space,0.46,0,73,73,61,1,,,,,,,,,,,,,,,,,
,,,,,,,,,,,,,,,,a,1,2.552,,,,,,,,line_easy_TA/15_2_NaN_all_absent.jpg,0,a,easy,line,5f06eefaf3fc742667b4e79d,34,male,2021-05-03_11h59.51.799,search_v5,2021.1.2,Win32,37.515006,,,space,0.365,0,74,74,13,1,,,,,,,,,,,,,,,,,
,,,,,,,,,,,,,,,,a,1,13.239,,,,,,,,line_hard_TA/23_2_NaN_none_absent.jpg,0,a,hard,line,5f06eefaf3fc742667b4e79d,34,male,2021-05-03_11h59.51.799,search_v5,2021.1.2,Win32,37.515006,,,space,0.514,0,75,75,74,1,,,,,,,,,,,,,,,,,
,,,,,,,,,,,,,,,,p,1,0.947,,,,,,,,line_easy_TP/7_2_0.5236_all_right_col_14_row_5.jpg,1,p,easy,line,5f06eefaf3fc742667b4e79d,34,male,2021-05-03_11h59.51.799,search_v5,2021.1.2,Win32,37.515006,,,space,0.305,0,76,76,53,1,,,,,,,,,,,,,,,,,
,,,,,,,,,,,,,,,,a,1,7.76,,,,,,,,line_hard_TA/22_3_NaN_none_absent.jpg,0,a,hard,line,5f06eefaf3fc742667b4e79d,34,male,2021-05-03_11h59.51.799,search_v5,2021.1.2,Win32,37.515006,,,space,0.46,0,77,77,71,1,,,,,,,,,,,,,,,,,
,,,,,,,,,,,,,,,,p,1,1.084,,,,,,,,line_easy_TP/1_0_0.5236_all_left_col_2_row_16.jpg,1,p,easy,line,5f06eefaf3fc742667b4e79d,34,male,2021-05-03_11h59.51.799,search_v5,2021.1.2,Win32,37.515006,,,space,0.349,0,78,78,43,1,,,,,,,,,,,,,,,,,
,,,,,,,,,,,,,,,,a,1,7.099,,,,,,,,line_mid_TA/10_1_NaN_none_absent.jpg,0,a,mid,line,5f06eefaf3fc742667b4e79d,34,male,2021-05-03_11h59.51.799,search_v5,2021.1.2,Win32,37.515006,,,space,0.44,0,79,79,8,1,,,,,,,,,,,,,,,,,
,,,,,,,,,,,,,,,,a,1,9.022,,,,,,,,line_mid_TA/7_1_NaN_all_absent.jpg,0,a,mid,line,5f06eefaf3fc742667b4e79d,34,male,2021-05-03_11h59.51.799,search_v5,2021.1.2,Win32,37.515006,,,space,0.395,0,80,80,122,1,,,,,,,,,,,,,,,,,
,,,,,,,,,,,,,,,,p,1,1.174,,,,,,,,line_hard_TP/14_1_2.0944_none_right_col_15_row_6.jpg,1,p,hard,line,5f06eefaf3fc742667b4e79d,34,male,2021-05-03_11h59.51.799,search_v5,2021.1.2,Win32,37.515006,,,space,0.326,0,81,81,83,1,,,,,,,,,,,,,,,,,
,,,,,,,,,,,,,,,,p,1,0.921,,,,,,,,line_easy_TP/18_3_0.5236_all_right_col_20_row_10.jpg,1,p,easy,line,5f06eefaf3fc742667b4e79d,34,male,2021-05-03_11h59.51.799,search_v5,2021.1.2,Win32,37.515006,,,space,0.278,0,82,82,40,1,,,,,,,,,,,,,,,,,
,,,,,,,,,,,,,,,,a,1,7.904,,,,,,,,line_mid_TA/8_4_NaN_all_absent.jpg,0,a,mid,line,5f06eefaf3fc742667b4e79d,34,male,2021-05-03_11h59.51.799,search_v5,2021.1.2,Win32,37.515006,,,space,0.384,0,83,83,125,1,,,,,,,,,,,,,,,,,
,,,,,,,,,,,,,,,,a,0,10.477,,,,,,,,line_hard_TP/6_2_2.0944_none_left_col_10_row_2.jpg,1,p,hard,line,5f06eefaf3fc742667b4e79d,34,male,2021-05-03_11h59.51.799,search_v5,2021.1.2,Win32,37.515006,,,space,0.077,0,84,84,99,1,,,,,,,,,,,,,,,,,
,,,,,,,,,,,,,,,,a,0,10.623,,,,,,,,line_hard_TP/21_3_2.0944_none_right_col_15_row_13.jpg,1,p,hard,line,5f06eefaf3fc742667b4e79d,34,male,2021-05-03_11h59.51.799,search_v5,2021.1.2,Win32,37.515006,,,space,0.411,0,85,85,92,1,,,,,,,,,,,,,,,,,
,,,,,,,,,,,,,,,,a,1,10.448,,,,,,,,line_hard_TA/14_2_NaN_none_absent.jpg,0,a,hard,line,5f06eefaf3fc742667b4e79d,34,male,2021-05-03_11h59.51.799,search_v5,2021.1.2,Win32,37.515006,,,space,0.403,0,86,86,60,1,,,,,,,,,,,,,,,,,
,,,,,,,,,,,,,,,,p,1,4.361,,,,,,,,line_mid_TP/2_0_1.7453_all_left_col_8_row_12.jpg,1,p,mid,line,5f06eefaf3fc742667b4e79d,34,male,2021-05-03_11h59.51.799,search_v5,2021.1.2,Win32,37.515006,,,space,0.375,0,87,87,130,1,,,,,,,,,,,,,,,,,
,,,,,,,,,,,,,,,,p,1,1.876,,,,,,,,line_mid_TP/3_1_1.1424_none_left_col_10_row_2.jpg,1,p,mid,line,5f06eefaf3fc742667b4e79d,34,male,2021-05-03_11h59.51.799,search_v5,2021.1.2,Win32,37.515006,,,space,0.327,0,88,88,134,1,,,,,,,,,,,,,,,,,
,,,,,,,,,,,,,,,,a,1,15.422,,,,,,,,line_hard_TA/5_3_NaN_none_absent.jpg,0,a,hard,line,5f06eefaf3fc742667b4e79d,34,male,2021-05-03_11h59.51.799,search_v5,2021.1.2,Win32,37.515006,,,space,0.424,0,89,89,79,1,,,,,,,,,,,,,,,,,
,,,,,,,,,,,,,,,,a,1,2.042,,,,,,,,line_easy_TA/5_4_NaN_all_absent.jpg,0,a,easy,line,5f06eefaf3fc742667b4e79d,34,male,2021-05-03_11h59.51.799,search_v5,2021.1.2,Win32,37.515006,,,space,0.357,0,90,90,31,1,,,,,,,,,,,,,,,,,
,,,,,,,,,,,,,,,,p,1,0.837,,,,,,,,line_easy_TP/7_4_0.5236_all_left_col_6_row_11.jpg,1,p,easy,line,5f06eefaf3fc742667b4e79d,34,male,2021-05-03_11h59.51.799,search_v5,2021.1.2,Win32,37.515006,,,space,0.308,0,91,91,54,1,,,,,,,,,,,,,,,,,
,,,,,,,,,,,,,,,,p,1,2.138,,,,,,,,line_mid_TP/9_2_1.1424_none_right_col_20_row_1.jpg,1,p,mid,line,5f06eefaf3fc742667b4e79d,34,male,2021-05-03_11h59.51.799,search_v5,2021.1.2,Win32,37.515006,,,space,0.386,0,92,92,10,1,,,,,,,,,,,,,,,,,
,,,,,,,,,,,,,,,,a,0,7.02,,,,,,,,line_mid_TP/7_4_1.7453_all_right_col_17_row_6.jpg,1,p,mid,line,5f06eefaf3fc742667b4e79d,34,male,2021-05-03_11h59.51.799,search_v5,2021.1.2,Win32,37.515006,,,space,0.423,0,93,93,147,1,,,,,,,,,,,,,,,,,
,,,,,,,,,,,,,,,,a,1,2.493,,,,,,,,line_easy_TA/7_1_NaN_all_absent.jpg,0,a,easy,line,5f06eefaf3fc742667b4e79d,34,male,2021-05-03_11h59.51.799,search_v5,2021.1.2,Win32,37.515006,,,space,0.38,0,94,94,32,1,,,,,,,,,,,,,,,,,
,,,,,,,,,,,,,,,,p,1,0.791,,,,,,,,line_easy_TP/4_1_0.5236_all_left_col_6_row_4.jpg,1,p,easy,line,5f06eefaf3fc742667b4e79d,34,male,2021-05-03_11h59.51.799,search_v5,2021.1.2,Win32,37.515006,,,space,0.302,0,95,95,49,1,,,,,,,,,,,,,,,,,
,,,,,,,,,,,,,,,,a,1,8.003,,,,,,,,line_mid_TA/9_4_NaN_none_absent.jpg,0,a,mid,line,5f06eefaf3fc742667b4e79d,34,male,2021-05-03_11h59.51.799,search_v5,2021.1.2,Win32,37.515006,,,space,0.426,0,96,96,126,1,,,,,,,,,,,,,,,,,
,,,,,,,,,,,,,,,,a,1,8.353,,,,,,,,line_hard_TA/16_4_NaN_none_absent.jpg,0,a,hard,line,5f06eefaf3fc742667b4e79d,34,male,2021-05-03_11h59.51.799,search_v5,2021.1.2,Win32,37.515006,,,space,0.397,0,97,97,64,1,,,,,,,,,,,,,,,,,
,,,,,,,,,,,,,,,,a,1,1.312,,,,,,,,line_easy_TA/16_1_NaN_all_absent.jpg,0,a,easy,line,5f06eefaf3fc742667b4e79d,34,male,2021-05-03_11h59.51.799,search_v5,2021.1.2,Win32,37.515006,,,space,0.423,0,98,98,14,1,,,,,,,,,,,,,,,,,
,,,,,,,,,,,,,,,,p,1,0.76,,,,,,,,line_easy_TP/2_0_0.5236_all_right_col_16_row_4.jpg,1,p,easy,line,5f06eefaf3fc742667b4e79d,34,male,2021-05-03_11h59.51.799,search_v5,2021.1.2,Win32,37.515006,,,space,0.273,0,99,99,47,1,,,,,,,,,,,,,,,,,
,,,,,,,,,,,,,,,,p,1,0.678,,,,,,,,line_easy_TP/18_2_0.5236_all_right_col_15_row_1.jpg,1,p,easy,line,5f06eefaf3fc742667b4e79d,34,male,2021-05-03_11h59.51.799,search_v5,2021.1.2,Win32,37.515006,,,space,0.28,0,100,100,39,1,,,,,,,,,,,,,,,,,
,,,,,,,,,,,,,,,,p,1,1.107,,,,,,,,line_mid_TP/7_3_1.7453_all_right_col_15_row_2.jpg,1,p,mid,line,5f06eefaf3fc742667b4e79d,34,male,2021-05-03_11h59.51.799,search_v5,2021.1.2,Win32,37.515006,,,space,0.262,0,101,101,146,1,,,,,,,,,,,,,,,,,
,,,,,,,,,,,,,,,,a,0,4.563,,,,,,,,line_hard_TP/2_2_2.0944_none_right_col_19_row_11.jpg,1,p,hard,line,5f06eefaf3fc742667b4e79d,34,male,2021-05-03_11h59.51.799,search_v5,2021.1.2,Win32,37.515006,,,space,0.365,0,102,102,96,1,,,,,,,,,,,,,,,,,
,,,,,,,,,,,,,,,,p,1,3.495,,,,,,,,line_hard_TP/5_0_2.0944_none_right_col_17_row_1.jpg,1,p,hard,line,5f06eefaf3fc742667b4e79d,34,male,2021-05-03_11h59.51.799,search_v5,2021.1.2,Win32,37.515006,,,space,0.412,0,103,103,97,1,,,,,,,,,,,,,,,,,
