key_resp_6.keys,key_resp_6.rt,key_resp_7.keys,key_resp_7.rt,key_resp_8.keys,key_resp_8.rt,key_resp_10.keys,key_resp_10.rt,key_resp_9.keys,key_resp_9.rt,key_resp_3.keys,key_resp_3.rt,key_resp_5.keys,key_resp_5.rt,key_resp.keys,key_resp.corr,key_resp.rt,key_resp_4.keys,key_resp_4.rt,trials.thisRepN,trials.thisTrialN,trials.thisN,trials.thisIndex,trials.ran,ImageFile,tarPos,tarSize,targPres,numDist,targetName,correctAns,participant,age,sex,date,expName,psychopyVersion,OS,frameRate,trials_2.thisRepN,trials_2.thisTrialN,trials_2.thisN,trials_2.thisIndex,trials_2.ran,condsFile,targName,instructionText,colTarget,sizeTarg,posit
space,3.13751,space,8.1111,space,4.78875,space,11.54885,space,3.482435,space,11.605455,space,5.082075,p,0,0.873035,space,0.187975,0,0,0,183,1,0_targ_16_dist_red/trial9.png,,,0,16,redHorizontal,a,23,26,female,2021-02-19_10h19.10.781,exp11,2020.2.6,Win32,60,,,,,,,,,,,
,,,,,,,,,,,,,,p,0,1.321065,space,6.779535,0,1,1,132,1,0_targ_4_dist_red/trial8.png,,,0,4,redHorizontal,a,23,26,female,2021-02-19_10h19.10.781,exp11,2020.2.6,Win32,60,,,,,,,,,,,
,,,,,,,,,,,,,,p,1,0.934255,space,3.755945,0,2,2,54,1,9_dist_red/trial5.png,,,1,9,redHorizontal,p,23,26,female,2021-02-19_10h19.10.781,exp11,2020.2.6,Win32,60,,,,,,,,,,,
,,,,,,,,,,,,,,a,1,1.633275,space,0.658225,0,3,3,184,1,0_targ_16_dist_red/trial10.png,,,0,16,redHorizontal,a,23,26,female,2021-02-19_10h19.10.781,exp11,2020.2.6,Win32,60,,,,,,,,,,,
,,,,,,,,,,,,,,a,1,0.834695,space,0.416695,0,4,4,186,1,0_targ_16_dist_red/trial12.png,,,0,16,redHorizontal,a,23,26,female,2021-02-19_10h19.10.781,exp11,2020.2.6,Win32,60,,,,,,,,,,,
,,,,,,,,,,,,,,a,1,0.97822,space,0.368095,0,5,5,154,1,0_targ_10_dist_red/trial5.png,,,0,10,redHorizontal,a,23,26,female,2021-02-19_10h19.10.781,exp11,2020.2.6,Win32,60,,,,,,,,,,,
,,,,,,,,,,,,,,a,1,0.58313,space,0.405555,0,6,6,106,1,0_targ_1_dist_red/trial7.png,,,0,1,redHorizontal,a,23,26,female,2021-02-19_10h19.10.781,exp11,2020.2.6,Win32,60,,,,,,,,,,,
,,,,,,,,,,,,,,p,1,0.677515,space,0.407875,0,7,7,45,1,3_dist_red/trial21.png,,,1,3,redHorizontal,p,23,26,female,2021-02-19_10h19.10.781,exp11,2020.2.6,Win32,60,,,,,,,,,,,
,,,,,,,,,,,,,,a,1,0.68487,space,0.39982,0,8,8,104,1,0_targ_1_dist_red/trial5.png,,,0,1,redHorizontal,a,23,26,female,2021-02-19_10h19.10.781,exp11,2020.2.6,Win32,60,,,,,,,,,,,
,,,,,,,,,,,,,,p,1,0.644285,space,0.4558,0,9,9,22,1,0_dist_red/trial23.png,,,1,0,redHorizontal,p,23,26,female,2021-02-19_10h19.10.781,exp11,2020.2.6,Win32,60,,,,,,,,,,,
,,,,,,,,,,,,,,a,1,0.795935,space,0.38627,0,10,10,162,1,0_targ_10_dist_red/trial13.png,,,0,10,redHorizontal,a,23,26,female,2021-02-19_10h19.10.781,exp11,2020.2.6,Win32,60,,,,,,,,,,,
,,,,,,,,,,,,,,p,1,0.65194,space,0.4167,0,11,11,12,1,0_dist_red/trial13.png,,,1,0,redHorizontal,p,23,26,female,2021-02-19_10h19.10.781,exp11,2020.2.6,Win32,60,,,,,,,,,,,
,,,,,,,,,,,,,,a,0,0.688365,space,0.06033,0,12,12,55,1,9_dist_red/trial6.png,,,1,9,redHorizontal,p,23,26,female,2021-02-19_10h19.10.781,exp11,2020.2.6,Win32,60,,,,,,,,,,,
,,,,,,,,,,,,,,p,0,0.67056,space,0.23878,0,13,13,111,1,0_targ_1_dist_red/trial12.png,,,0,1,redHorizontal,a,23,26,female,2021-02-19_10h19.10.781,exp11,2020.2.6,Win32,60,,,,,,,,,,,
,,,,,,,,,,,,,,p,1,0.794595,space,0.463075,0,14,14,48,1,3_dist_red/trial24.png,,,1,3,redHorizontal,p,23,26,female,2021-02-19_10h19.10.781,exp11,2020.2.6,Win32,60,,,,,,,,,,,
,,,,,,,,,,,,,,p,1,0.70578,space,0.42194,0,15,15,98,1,15_dist_red/trial24.png,,,1,15,redHorizontal,p,23,26,female,2021-02-19_10h19.10.781,exp11,2020.2.6,Win32,60,,,,,,,,,,,
,,,,,,,,,,,,,,p,1,0.54884,space,0.47369,0,16,16,24,1,0_dist_red/trial25.png,,,1,0,redHorizontal,p,23,26,female,2021-02-19_10h19.10.781,exp11,2020.2.6,Win32,60,,,,,,,,,,,
,,,,,,,,,,,,,,p,1,0.73409,space,0.375955,0,17,17,83,1,15_dist_red/trial9.png,,,1,15,redHorizontal,p,23,26,female,2021-02-19_10h19.10.781,exp11,2020.2.6,Win32,60,,,,,,,,,,,
,,,,,,,,,,,,,,a,1,0.685055,space,0.502425,0,18,18,108,1,0_targ_1_dist_red/trial9.png,,,0,1,redHorizontal,a,23,26,female,2021-02-19_10h19.10.781,exp11,2020.2.6,Win32,60,,,,,,,,,,,
,,,,,,,,,,,,,,p,1,0.7066,space,0.39944,0,19,19,65,1,9_dist_red/trial16.png,,,1,9,redHorizontal,p,23,26,female,2021-02-19_10h19.10.781,exp11,2020.2.6,Win32,60,,,,,,,,,,,
,,,,,,,,,,,,,,p,1,0.703335,space,1.14126,0,20,20,62,1,9_dist_red/trial13.png,,,1,9,redHorizontal,p,23,26,female,2021-02-19_10h19.10.781,exp11,2020.2.6,Win32,60,,,,,,,,,,,
,,,,,,,,,,,,,,p,1,0.62112,space,0.36961,0,21,21,5,1,0_dist_red/trial6.png,,,1,0,redHorizontal,p,23,26,female,2021-02-19_10h19.10.781,exp11,2020.2.6,Win32,60,,,,,,,,,,,
,,,,,,,,,,,,,,a,1,0.6627,space,0.38589,0,22,22,118,1,0_targ_1_dist_red/trial19.png,,,0,1,redHorizontal,a,23,26,female,2021-02-19_10h19.10.781,exp11,2020.2.6,Win32,60,,,,,,,,,,,
,,,,,,,,,,,,,,a,1,0.85364,space,0.450115,0,23,23,174,1,0_targ_10_dist_red/trial25.png,,,0,10,redHorizontal,a,23,26,female,2021-02-19_10h19.10.781,exp11,2020.2.6,Win32,60,,,,,,,,,,,
,,,,,,,,,,,,,,a,1,0.823455,space,0.3185,0,24,24,160,1,0_targ_10_dist_red/trial11.png,,,0,10,redHorizontal,a,23,26,female,2021-02-19_10h19.10.781,exp11,2020.2.6,Win32,60,,,,,,,,,,,
,,,,,,,,,,,,,,p,1,0.614765,space,0.34172,0,25,25,32,1,3_dist_red/trial8.png,,,1,3,redHorizontal,p,23,26,female,2021-02-19_10h19.10.781,exp11,2020.2.6,Win32,60,,,,,,,,,,,
,,,,,,,,,,,,,,a,1,0.701165,space,0.383635,0,26,26,126,1,0_targ_4_dist_red/trial2.png,,,0,4,redHorizontal,a,23,26,female,2021-02-19_10h19.10.781,exp11,2020.2.6,Win32,60,,,,,,,,,,,
,,,,,,,,,,,,,,p,1,0.633865,space,12.48405,0,27,27,11,1,0_dist_red/trial12.png,,,1,0,redHorizontal,p,23,26,female,2021-02-19_10h19.10.781,exp11,2020.2.6,Win32,60,,,,,,,,,,,
,,,,,,,,,,,,,,p,1,2.48859,space,0.754005,0,28,28,1,1,0_dist_red/trial2.png,,,1,0,redHorizontal,p,23,26,female,2021-02-19_10h19.10.781,exp11,2020.2.6,Win32,60,,,,,,,,,,,
,,,,,,,,,,,,,,a,1,1.056615,space,0.43618,0,29,29,125,1,0_targ_4_dist_red/trial1.png,,,0,4,redHorizontal,a,23,26,female,2021-02-19_10h19.10.781,exp11,2020.2.6,Win32,60,,,,,,,,,,,
,,,,,,,,,,,,,,p,1,0.634595,space,0.416785,0,30,30,27,1,3_dist_red/trial3.png,,,1,3,redHorizontal,p,23,26,female,2021-02-19_10h19.10.781,exp11,2020.2.6,Win32,60,,,,,,,,,,,
,,,,,,,,,,,,,,a,1,0.77829,space,0.39978,0,31,31,159,1,0_targ_10_dist_red/trial10.png,,,0,10,redHorizontal,a,23,26,female,2021-02-19_10h19.10.781,exp11,2020.2.6,Win32,60,,,,,,,,,,,
,,,,,,,,,,,,,,a,1,1.05795,space,0.333795,0,32,32,161,1,0_targ_10_dist_red/trial12.png,,,0,10,redHorizontal,a,23,26,female,2021-02-19_10h19.10.781,exp11,2020.2.6,Win32,60,,,,,,,,,,,
,,,,,,,,,,,,,,p,1,0.83859,space,0.322045,0,33,33,74,1,9_dist_red/trial25.png,,,1,9,redHorizontal,p,23,26,female,2021-02-19_10h19.10.781,exp11,2020.2.6,Win32,60,,,,,,,,,,,
,,,,,,,,,,,,,,p,1,0.47399,space,0.354365,0,34,34,19,1,0_dist_red/trial20.png,,,1,0,redHorizontal,p,23,26,female,2021-02-19_10h19.10.781,exp11,2020.2.6,Win32,60,,,,,,,,,,,
,,,,,,,,,,,,,,p,1,0.55076,space,0.32059,0,35,35,2,1,0_dist_red/trial3.png,,,1,0,redHorizontal,p,23,26,female,2021-02-19_10h19.10.781,exp11,2020.2.6,Win32,60,,,,,,,,,,,
,,,,,,,,,,,,,,p,1,0.415405,space,0.339425,0,36,36,16,1,0_dist_red/trial17.png,,,1,0,redHorizontal,p,23,26,female,2021-02-19_10h19.10.781,exp11,2020.2.6,Win32,60,,,,,,,,,,,
,,,,,,,,,,,,,,p,1,0.372145,space,0.339615,0,37,37,20,1,0_dist_red/trial21.png,,,1,0,redHorizontal,p,23,26,female,2021-02-19_10h19.10.781,exp11,2020.2.6,Win32,60,,,,,,,,,,,
,,,,,,,,,,,,,,a,1,0.516765,space,0.31142,0,38,38,142,1,0_targ_4_dist_red/trial18.png,,,0,4,redHorizontal,a,23,26,female,2021-02-19_10h19.10.781,exp11,2020.2.6,Win32,60,,,,,,,,,,,
,,,,,,,,,,,,,,a,1,0.75301,space,0.318255,0,39,39,123,1,0_targ_1_dist_red/trial24.png,,,0,1,redHorizontal,a,23,26,female,2021-02-19_10h19.10.781,exp11,2020.2.6,Win32,60,,,,,,,,,,,
,,,,,,,,,,,,,,p,1,0.78903,space,0.26861,0,40,40,78,1,15_dist_red/trial4.png,,,1,15,redHorizontal,p,23,26,female,2021-02-19_10h19.10.781,exp11,2020.2.6,Win32,60,,,,,,,,,,,
,,,,,,,,,,,,,,a,1,0.691005,space,0.25009,0,41,41,169,1,0_targ_10_dist_red/trial20.png,,,0,10,redHorizontal,a,23,26,female,2021-02-19_10h19.10.781,exp11,2020.2.6,Win32,60,,,,,,,,,,,
,,,,,,,,,,,,,,p,1,0.725825,space,0.25907,0,42,42,64,1,9_dist_red/trial15.png,,,1,9,redHorizontal,p,23,26,female,2021-02-19_10h19.10.781,exp11,2020.2.6,Win32,60,,,,,,,,,,,
,,,,,,,,,,,,,,p,1,0.50929,space,0.28446,0,43,43,14,1,0_dist_red/trial15.png,,,1,0,redHorizontal,p,23,26,female,2021-02-19_10h19.10.781,exp11,2020.2.6,Win32,60,,,,,,,,,,,
,,,,,,,,,,,,,,p,1,0.639225,space,0.24357,0,44,44,6,1,0_dist_red/trial7.png,,,1,0,redHorizontal,p,23,26,female,2021-02-19_10h19.10.781,exp11,2020.2.6,Win32,60,,,,,,,,,,,
,,,,,,,,,,,,,,a,1,1.62167,space,0.005905,0,45,45,151,1,0_targ_10_dist_red/trial2.png,,,0,10,redHorizontal,a,23,26,female,2021-02-19_10h19.10.781,exp11,2020.2.6,Win32,60,,,,,,,,,,,
,,,,,,,,,,,,,,a,0,0.00146,space,3.1764,0,46,46,18,1,0_dist_red/trial19.png,,,1,0,redHorizontal,p,23,26,female,2021-02-19_10h19.10.781,exp11,2020.2.6,Win32,60,,,,,,,,,,,
,,,,,,,,,,,,,,p,1,0.56102,space,0.329145,0,47,47,0,1,0_dist_red/trial1.png,,,1,0,redHorizontal,p,23,26,female,2021-02-19_10h19.10.781,exp11,2020.2.6,Win32,60,,,,,,,,,,,
,,,,,,,,,,,,,,p,1,1.158175,space,0.0039,0,48,48,34,1,3_dist_red/trial10.png,,,1,3,redHorizontal,p,23,26,female,2021-02-19_10h19.10.781,exp11,2020.2.6,Win32,60,,,,,,,,,,,
,,,,,,,,,,,,,,p,1,0.66171,space,0.40124,0,49,49,41,1,3_dist_red/trial17.png,,,1,3,redHorizontal,p,23,26,female,2021-02-19_10h19.10.781,exp11,2020.2.6,Win32,60,,,,,,,,,,,
,,,,,,,,,,,,,,a,1,0.91107,space,0.35094,0,50,50,182,1,0_targ_16_dist_red/trial8.png,,,0,16,redHorizontal,a,23,26,female,2021-02-19_10h19.10.781,exp11,2020.2.6,Win32,60,,,,,,,,,,,
,,,,,,,,,,,,,,p,1,0.66533,space,0.35316,0,51,51,89,1,15_dist_red/trial15.png,,,1,15,redHorizontal,p,23,26,female,2021-02-19_10h19.10.781,exp11,2020.2.6,Win32,60,,,,,,,,,,,
,,,,,,,,,,,,,,a,0,0.84758,space,0.67366,0,52,52,90,1,15_dist_red/trial16.png,,,1,15,redHorizontal,p,23,26,female,2021-02-19_10h19.10.781,exp11,2020.2.6,Win32,60,,,,,,,,,,,
,,,,,,,,,,,,,,a,1,1.234745,space,0.3516,0,53,53,143,1,0_targ_4_dist_red/trial19.png,,,0,4,redHorizontal,a,23,26,female,2021-02-19_10h19.10.781,exp11,2020.2.6,Win32,60,,,,,,,,,,,
,,,,,,,,,,,,,,p,1,0.75549,space,0.281855,0,54,54,30,1,3_dist_red/trial6.png,,,1,3,redHorizontal,p,23,26,female,2021-02-19_10h19.10.781,exp11,2020.2.6,Win32,60,,,,,,,,,,,
,,,,,,,,,,,,,,a,1,0.76633,space,0.310635,0,55,55,185,1,0_targ_16_dist_red/trial11.png,,,0,16,redHorizontal,a,23,26,female,2021-02-19_10h19.10.781,exp11,2020.2.6,Win32,60,,,,,,,,,,,
,,,,,,,,,,,,,,a,1,1.26069,space,0.30169,0,56,56,195,1,0_targ_16_dist_red/trial21.png,,,0,16,redHorizontal,a,23,26,female,2021-02-19_10h19.10.781,exp11,2020.2.6,Win32,60,,,,,,,,,,,
,,,,,,,,,,,,,,p,1,0.52909,space,0.3342,0,57,57,49,1,3_dist_red/trial25.png,,,1,3,redHorizontal,p,23,26,female,2021-02-19_10h19.10.781,exp11,2020.2.6,Win32,60,,,,,,,,,,,
,,,,,,,,,,,,,,p,1,0.80599,space,0.3071,0,58,58,87,1,15_dist_red/trial13.png,,,1,15,redHorizontal,p,23,26,female,2021-02-19_10h19.10.781,exp11,2020.2.6,Win32,60,,,,,,,,,,,
,,,,,,,,,,,,,,a,1,0.571655,space,0.317335,0,59,59,101,1,0_targ_1_dist_red/trial2.png,,,0,1,redHorizontal,a,23,26,female,2021-02-19_10h19.10.781,exp11,2020.2.6,Win32,60,,,,,,,,,,,
,,,,,,,,,,,,,,a,1,0.78258,space,0.43412,0,60,60,163,1,0_targ_10_dist_red/trial14.png,,,0,10,redHorizontal,a,23,26,female,2021-02-19_10h19.10.781,exp11,2020.2.6,Win32,60,,,,,,,,,,,
,,,,,,,,,,,,,,p,1,0.78415,space,0.298815,0,61,61,86,1,15_dist_red/trial12.png,,,1,15,redHorizontal,p,23,26,female,2021-02-19_10h19.10.781,exp11,2020.2.6,Win32,60,,,,,,,,,,,
,,,,,,,,,,,,,,a,1,0.691205,space,0.315675,0,62,62,180,1,0_targ_16_dist_red/trial6.png,,,0,16,redHorizontal,a,23,26,female,2021-02-19_10h19.10.781,exp11,2020.2.6,Win32,60,,,,,,,,,,,
,,,,,,,,,,,,,,a,1,0.840585,space,0.28742,0,63,63,103,1,0_targ_1_dist_red/trial4.png,,,0,1,redHorizontal,a,23,26,female,2021-02-19_10h19.10.781,exp11,2020.2.6,Win32,60,,,,,,,,,,,
,,,,,,,,,,,,,,a,1,0.92086,space,0.25402,0,64,64,191,1,0_targ_16_dist_red/trial17.png,,,0,16,redHorizontal,a,23,26,female,2021-02-19_10h19.10.781,exp11,2020.2.6,Win32,60,,,,,,,,,,,
,,,,,,,,,,,,,,a,1,0.523435,space,0.302475,0,65,65,109,1,0_targ_1_dist_red/trial10.png,,,0,1,redHorizontal,a,23,26,female,2021-02-19_10h19.10.781,exp11,2020.2.6,Win32,60,,,,,,,,,,,
,,,,,,,,,,,,,,p,1,0.623325,space,0.28223,0,66,66,73,1,9_dist_red/trial24.png,,,1,9,redHorizontal,p,23,26,female,2021-02-19_10h19.10.781,exp11,2020.2.6,Win32,60,,,,,,,,,,,
,,,,,,,,,,,,,,p,1,0.506915,space,0.30231,0,67,67,57,1,9_dist_red/trial8.png,,,1,9,redHorizontal,p,23,26,female,2021-02-19_10h19.10.781,exp11,2020.2.6,Win32,60,,,,,,,,,,,
,,,,,,,,,,,,,,a,1,0.89749,space,0.40089,0,68,68,197,1,0_targ_16_dist_red/trial23.png,,,0,16,redHorizontal,a,23,26,female,2021-02-19_10h19.10.781,exp11,2020.2.6,Win32,60,,,,,,,,,,,
,,,,,,,,,,,,,,p,1,0.857815,space,0.266095,0,69,69,76,1,15_dist_red/trial2.png,,,1,15,redHorizontal,p,23,26,female,2021-02-19_10h19.10.781,exp11,2020.2.6,Win32,60,,,,,,,,,,,
,,,,,,,,,,,,,,a,1,0.71064,space,0.31048,0,70,70,130,1,0_targ_4_dist_red/trial6.png,,,0,4,redHorizontal,a,23,26,female,2021-02-19_10h19.10.781,exp11,2020.2.6,Win32,60,,,,,,,,,,,
,,,,,,,,,,,,,,a,1,0.608855,space,0.30833,0,71,71,135,1,0_targ_4_dist_red/trial11.png,,,0,4,redHorizontal,a,23,26,female,2021-02-19_10h19.10.781,exp11,2020.2.6,Win32,60,,,,,,,,,,,
,,,,,,,,,,,,,,a,1,1.09,space,0.6057,0,72,72,107,1,0_targ_1_dist_red/trial8.png,,,0,1,redHorizontal,a,23,26,female,2021-02-19_10h19.10.781,exp11,2020.2.6,Win32,60,,,,,,,,,,,
,,,,,,,,,,,,,,a,1,0.442235,space,0.36776,0,73,73,115,1,0_targ_1_dist_red/trial6.png,,,0,1,redHorizontal,a,23,26,female,2021-02-19_10h19.10.781,exp11,2020.2.6,Win32,60,,,,,,,,,,,
,,,,,,,,,,,,,,a,1,0.372275,space,0.346435,0,74,74,100,1,0_targ_1_dist_red/trial1.png,,,0,1,redHorizontal,a,23,26,female,2021-02-19_10h19.10.781,exp11,2020.2.6,Win32,60,,,,,,,,,,,
,,,,,,,,,,,,,,p,1,0.457775,space,0.26719,0,75,75,37,1,3_dist_red/trial13.png,,,1,3,redHorizontal,p,23,26,female,2021-02-19_10h19.10.781,exp11,2020.2.6,Win32,60,,,,,,,,,,,
,,,,,,,,,,,,,,a,1,0.75456,space,0.282905,0,76,76,178,1,0_targ_16_dist_red/trial4.png,,,0,16,redHorizontal,a,23,26,female,2021-02-19_10h19.10.781,exp11,2020.2.6,Win32,60,,,,,,,,,,,
,,,,,,,,,,,,,,a,1,0.774065,space,0.31031,0,77,77,196,1,0_targ_16_dist_red/trial22.png,,,0,16,redHorizontal,a,23,26,female,2021-02-19_10h19.10.781,exp11,2020.2.6,Win32,60,,,,,,,,,,,
,,,,,,,,,,,,,,a,1,0.64827,space,0.26156,0,78,78,164,1,0_targ_10_dist_red/trial15.png,,,0,10,redHorizontal,a,23,26,female,2021-02-19_10h19.10.781,exp11,2020.2.6,Win32,60,,,,,,,,,,,
,,,,,,,,,,,,,,a,0,0.99047,space,1.80164,0,79,79,59,1,9_dist_red/trial10.png,,,1,9,redHorizontal,p,23,26,female,2021-02-19_10h19.10.781,exp11,2020.2.6,Win32,60,,,,,,,,,,,
,,,,,,,,,,,,,,p,1,0.9509,space,0.233395,0,80,80,56,1,9_dist_red/trial7.png,,,1,9,redHorizontal,p,23,26,female,2021-02-19_10h19.10.781,exp11,2020.2.6,Win32,60,,,,,,,,,,,
,,,,,,,,,,,,,,p,1,0.51928,space,0.23496,0,81,81,4,1,0_dist_red/trial5.png,,,1,0,redHorizontal,p,23,26,female,2021-02-19_10h19.10.781,exp11,2020.2.6,Win32,60,,,,,,,,,,,
,,,,,,,,,,,,,,a,1,0.729595,space,0.220055,0,82,82,133,1,0_targ_4_dist_red/trial9.png,,,0,4,redHorizontal,a,23,26,female,2021-02-19_10h19.10.781,exp11,2020.2.6,Win32,60,,,,,,,,,,,
,,,,,,,,,,,,,,a,1,1.37486,space,0.236715,0,83,83,166,1,0_targ_10_dist_red/trial17.png,,,0,10,redHorizontal,a,23,26,female,2021-02-19_10h19.10.781,exp11,2020.2.6,Win32,60,,,,,,,,,,,
,,,,,,,,,,,,,,a,1,0.955865,space,0.301725,0,84,84,172,1,0_targ_10_dist_red/trial23.png,,,0,10,redHorizontal,a,23,26,female,2021-02-19_10h19.10.781,exp11,2020.2.6,Win32,60,,,,,,,,,,,
,,,,,,,,,,,,,,p,1,0.582135,space,0.307515,0,85,85,7,1,0_dist_red/trial8.png,,,1,0,redHorizontal,p,23,26,female,2021-02-19_10h19.10.781,exp11,2020.2.6,Win32,60,,,,,,,,,,,
,,,,,,,,,,,,,,a,1,0.92425,space,0.29441,0,86,86,190,1,0_targ_16_dist_red/trial16.png,,,0,16,redHorizontal,a,23,26,female,2021-02-19_10h19.10.781,exp11,2020.2.6,Win32,60,,,,,,,,,,,
,,,,,,,,,,,,,,p,1,0.596685,space,0.31496,0,87,87,96,1,15_dist_red/trial22.png,,,1,15,redHorizontal,p,23,26,female,2021-02-19_10h19.10.781,exp11,2020.2.6,Win32,60,,,,,,,,,,,
,,,,,,,,,,,,,,p,1,0.563195,space,0.32574,0,88,88,92,1,15_dist_red/trial18.png,,,1,15,redHorizontal,p,23,26,female,2021-02-19_10h19.10.781,exp11,2020.2.6,Win32,60,,,,,,,,,,,
,,,,,,,,,,,,,,p,1,0.467455,space,0.36727,0,89,89,23,1,0_dist_red/trial24.png,,,1,0,redHorizontal,p,23,26,female,2021-02-19_10h19.10.781,exp11,2020.2.6,Win32,60,,,,,,,,,,,
,,,,,,,,,,,,,,p,1,0.518115,space,0.316315,0,90,90,42,1,3_dist_red/trial18.png,,,1,3,redHorizontal,p,23,26,female,2021-02-19_10h19.10.781,exp11,2020.2.6,Win32,60,,,,,,,,,,,
,,,,,,,,,,,,,,a,1,0.63253,space,0.29181,0,91,91,156,1,0_targ_10_dist_red/trial7.png,,,0,10,redHorizontal,a,23,26,female,2021-02-19_10h19.10.781,exp11,2020.2.6,Win32,60,,,,,,,,,,,
,,,,,,,,,,,,,,p,1,0.58452,space,0.273855,0,92,92,61,1,9_dist_red/trial12.png,,,1,9,redHorizontal,p,23,26,female,2021-02-19_10h19.10.781,exp11,2020.2.6,Win32,60,,,,,,,,,,,
,,,,,,,,,,,,,,a,1,0.619545,space,0.284315,0,93,93,157,1,0_targ_10_dist_red/trial8.png,,,0,10,redHorizontal,a,23,26,female,2021-02-19_10h19.10.781,exp11,2020.2.6,Win32,60,,,,,,,,,,,
,,,,,,,,,,,,,,p,1,0.515575,space,0.28473,0,94,94,82,1,15_dist_red/trial8.png,,,1,15,redHorizontal,p,23,26,female,2021-02-19_10h19.10.781,exp11,2020.2.6,Win32,60,,,,,,,,,,,
,,,,,,,,,,,,,,a,1,0.677895,space,0.28485,0,95,95,176,1,0_targ_16_dist_red/trial2.png,,,0,16,redHorizontal,a,23,26,female,2021-02-19_10h19.10.781,exp11,2020.2.6,Win32,60,,,,,,,,,,,
,,,,,,,,,,,,,,p,1,0.77845,space,0.288395,0,96,96,95,1,15_dist_red/trial21.png,,,1,15,redHorizontal,p,23,26,female,2021-02-19_10h19.10.781,exp11,2020.2.6,Win32,60,,,,,,,,,,,
,,,,,,,,,,,,,,p,1,0.848555,space,0.267035,0,97,97,75,1,15_dist_red/trial1.png,,,1,15,redHorizontal,p,23,26,female,2021-02-19_10h19.10.781,exp11,2020.2.6,Win32,60,,,,,,,,,,,
,,,,,,,,,,,,,,a,1,0.683635,space,0.268895,0,98,98,105,1,0_targ_1_dist_red/trial6.png,,,0,1,redHorizontal,a,23,26,female,2021-02-19_10h19.10.781,exp11,2020.2.6,Win32,60,,,,,,,,,,,
,,,,,,,,,,,,,,a,0,1.187125,space,0.303955,0,99,99,80,1,15_dist_red/trial6.png,,,1,15,redHorizontal,p,23,26,female,2021-02-19_10h19.10.781,exp11,2020.2.6,Win32,60,,,,,,,,,,,
,,,,,,,,,,,,,,p,1,1.10301,space,0.266175,0,100,100,52,1,9_dist_red/trial3.png,,,1,9,redHorizontal,p,23,26,female,2021-02-19_10h19.10.781,exp11,2020.2.6,Win32,60,,,,,,,,,,,
,,,,,,,,,,,,,,p,1,0.560585,space,0.25368,0,101,101,25,1,3_dist_red/trial1.png,,,1,3,redHorizontal,p,23,26,female,2021-02-19_10h19.10.781,exp11,2020.2.6,Win32,60,,,,,,,,,,,
,,,,,,,,,,,,,,a,1,0.704765,space,0.36922,0,102,102,147,1,0_targ_4_dist_red/trial23.png,,,0,4,redHorizontal,a,23,26,female,2021-02-19_10h19.10.781,exp11,2020.2.6,Win32,60,,,,,,,,,,,
,,,,,,,,,,,,,,a,1,0.67382,space,0.30297,0,103,103,181,1,0_targ_16_dist_red/trial7.png,,,0,16,redHorizontal,a,23,26,female,2021-02-19_10h19.10.781,exp11,2020.2.6,Win32,60,,,,,,,,,,,
,,,,,,,,,,,,,,a,1,0.891575,space,0.268165,0,104,104,192,1,0_targ_16_dist_red/trial18.png,,,0,16,redHorizontal,a,23,26,female,2021-02-19_10h19.10.781,exp11,2020.2.6,Win32,60,,,,,,,,,,,
,,,,,,,,,,,,,,p,1,0.63165,space,0.291895,0,105,105,71,1,9_dist_red/trial22.png,,,1,9,redHorizontal,p,23,26,female,2021-02-19_10h19.10.781,exp11,2020.2.6,Win32,60,,,,,,,,,,,
,,,,,,,,,,,,,,p,1,0.478515,space,0.305885,0,106,106,33,1,3_dist_red/trial9.png,,,1,3,redHorizontal,p,23,26,female,2021-02-19_10h19.10.781,exp11,2020.2.6,Win32,60,,,,,,,,,,,
,,,,,,,,,,,,,,a,1,0.755475,space,0.47086,0,107,107,117,1,0_targ_1_dist_red/trial18.png,,,0,1,redHorizontal,a,23,26,female,2021-02-19_10h19.10.781,exp11,2020.2.6,Win32,60,,,,,,,,,,,
,,,,,,,,,,,,,,a,1,0.480195,space,0.33002,0,108,108,116,1,0_targ_1_dist_red/trial17.png,,,0,1,redHorizontal,a,23,26,female,2021-02-19_10h19.10.781,exp11,2020.2.6,Win32,60,,,,,,,,,,,
,,,,,,,,,,,,,,p,1,0.774735,space,0.27005,0,109,109,69,1,9_dist_red/trial20.png,,,1,9,redHorizontal,p,23,26,female,2021-02-19_10h19.10.781,exp11,2020.2.6,Win32,60,,,,,,,,,,,
,,,,,,,,,,,,,,a,1,0.640445,space,0.305985,0,110,110,179,1,0_targ_16_dist_red/trial5.png,,,0,16,redHorizontal,a,23,26,female,2021-02-19_10h19.10.781,exp11,2020.2.6,Win32,60,,,,,,,,,,,
,,,,,,,,,,,,,,p,1,0.64796,space,0.292705,0,111,111,50,1,9_dist_red/trial1.png,,,1,9,redHorizontal,p,23,26,female,2021-02-19_10h19.10.781,exp11,2020.2.6,Win32,60,,,,,,,,,,,
,,,,,,,,,,,,,,p,1,0.700305,space,0.28377,0,112,112,93,1,15_dist_red/trial19.png,,,1,15,redHorizontal,p,23,26,female,2021-02-19_10h19.10.781,exp11,2020.2.6,Win32,60,,,,,,,,,,,
,,,,,,,,,,,,,,p,1,0.697215,space,0.274355,0,113,113,68,1,9_dist_red/trial19.png,,,1,9,redHorizontal,p,23,26,female,2021-02-19_10h19.10.781,exp11,2020.2.6,Win32,60,,,,,,,,,,,
,,,,,,,,,,,,,,a,1,0.58751,space,0.35144,0,114,114,165,1,0_targ_10_dist_red/trial16.png,,,0,10,redHorizontal,a,23,26,female,2021-02-19_10h19.10.781,exp11,2020.2.6,Win32,60,,,,,,,,,,,
,,,,,,,,,,,,,,a,1,0.57859,space,0.32316,0,115,115,175,1,0_targ_16_dist_red/trial1.png,,,0,16,redHorizontal,a,23,26,female,2021-02-19_10h19.10.781,exp11,2020.2.6,Win32,60,,,,,,,,,,,
,,,,,,,,,,,,,,p,1,0.54269,space,0.35305,0,116,116,40,1,3_dist_red/trial16.png,,,1,3,redHorizontal,p,23,26,female,2021-02-19_10h19.10.781,exp11,2020.2.6,Win32,60,,,,,,,,,,,
,,,,,,,,,,,,,,a,1,0.630845,space,0.299705,0,117,117,153,1,0_targ_10_dist_red/trial4.png,,,0,10,redHorizontal,a,23,26,female,2021-02-19_10h19.10.781,exp11,2020.2.6,Win32,60,,,,,,,,,,,
,,,,,,,,,,,,,,p,1,0.50075,space,0.31089,0,118,118,43,1,3_dist_red/trial19.png,,,1,3,redHorizontal,p,23,26,female,2021-02-19_10h19.10.781,exp11,2020.2.6,Win32,60,,,,,,,,,,,
,,,,,,,,,,,,,,a,1,0.691605,space,0.318915,0,119,119,193,1,0_targ_16_dist_red/trial19.png,,,0,16,redHorizontal,a,23,26,female,2021-02-19_10h19.10.781,exp11,2020.2.6,Win32,60,,,,,,,,,,,
,,,,,,,,,,,,,,a,1,0.81449,space,0.293235,0,120,120,173,1,0_targ_10_dist_red/trial24.png,,,0,10,redHorizontal,a,23,26,female,2021-02-19_10h19.10.781,exp11,2020.2.6,Win32,60,,,,,,,,,,,
,,,,,,,,,,,,,,p,1,0.609785,space,0.270365,0,121,121,63,1,9_dist_red/trial14.png,,,1,9,redHorizontal,p,23,26,female,2021-02-19_10h19.10.781,exp11,2020.2.6,Win32,60,,,,,,,,,,,
,,,,,,,,,,,,,,p,1,1.29393,space,0.26768,0,122,122,97,1,15_dist_red/trial23.png,,,1,15,redHorizontal,p,23,26,female,2021-02-19_10h19.10.781,exp11,2020.2.6,Win32,60,,,,,,,,,,,
,,,,,,,,,,,,,,p,1,0.592425,space,0.35228,0,123,123,9,1,0_dist_red/trial10.png,,,1,0,redHorizontal,p,23,26,female,2021-02-19_10h19.10.781,exp11,2020.2.6,Win32,60,,,,,,,,,,,
,,,,,,,,,,,,,,a,1,0.884265,space,0.277835,0,124,124,138,1,0_targ_4_dist_red/trial14.png,,,0,4,redHorizontal,a,23,26,female,2021-02-19_10h19.10.781,exp11,2020.2.6,Win32,60,,,,,,,,,,,
,,,,,,,,,,,,,,a,1,0.777215,space,0.26582,0,125,125,187,1,0_targ_16_dist_red/trial13.png,,,0,16,redHorizontal,a,23,26,female,2021-02-19_10h19.10.781,exp11,2020.2.6,Win32,60,,,,,,,,,,,
,,,,,,,,,,,,,,p,1,0.57737,space,0.319125,0,126,126,70,1,9_dist_red/trial21.png,,,1,9,redHorizontal,p,23,26,female,2021-02-19_10h19.10.781,exp11,2020.2.6,Win32,60,,,,,,,,,,,
,,,,,,,,,,,,,,a,1,0.803645,space,0.20132,0,127,127,121,1,0_targ_1_dist_red/trial22.png,,,0,1,redHorizontal,a,23,26,female,2021-02-19_10h19.10.781,exp11,2020.2.6,Win32,60,,,,,,,,,,,
,,,,,,,,,,,,,,a,1,0.59715,space,0.32131,0,128,128,146,1,0_targ_4_dist_red/trial22.png,,,0,4,redHorizontal,a,23,26,female,2021-02-19_10h19.10.781,exp11,2020.2.6,Win32,60,,,,,,,,,,,
,,,,,,,,,,,,,,a,1,0.67355,space,0.316095,0,129,129,168,1,0_targ_10_dist_red/trial19.png,,,0,10,redHorizontal,a,23,26,female,2021-02-19_10h19.10.781,exp11,2020.2.6,Win32,60,,,,,,,,,,,
,,,,,,,,,,,,,,p,1,0.886765,space,0.283865,0,130,130,79,1,15_dist_red/trial5.png,,,1,15,redHorizontal,p,23,26,female,2021-02-19_10h19.10.781,exp11,2020.2.6,Win32,60,,,,,,,,,,,
,,,,,,,,,,,,,,p,1,0.493065,space,0.289835,0,131,131,17,1,0_dist_red/trial18.png,,,1,0,redHorizontal,p,23,26,female,2021-02-19_10h19.10.781,exp11,2020.2.6,Win32,60,,,,,,,,,,,
,,,,,,,,,,,,,,a,1,0.644745,space,0.26036,0,132,132,102,1,0_targ_1_dist_red/trial3.png,,,0,1,redHorizontal,a,23,26,female,2021-02-19_10h19.10.781,exp11,2020.2.6,Win32,60,,,,,,,,,,,
,,,,,,,,,,,,,,p,1,0.64416,space,0.25643,0,133,133,3,1,0_dist_red/trial4.png,,,1,0,redHorizontal,p,23,26,female,2021-02-19_10h19.10.781,exp11,2020.2.6,Win32,60,,,,,,,,,,,
,,,,,,,,,,,,,,p,1,0.622985,space,0.250935,0,134,134,31,1,3_dist_red/trial7.png,,,1,3,redHorizontal,p,23,26,female,2021-02-19_10h19.10.781,exp11,2020.2.6,Win32,60,,,,,,,,,,,
,,,,,,,,,,,,,,a,1,0.89658,space,0.26449,0,135,135,129,1,0_targ_4_dist_red/trial5.png,,,0,4,redHorizontal,a,23,26,female,2021-02-19_10h19.10.781,exp11,2020.2.6,Win32,60,,,,,,,,,,,
,,,,,,,,,,,,,,p,0,0.536435,space,1.3147,0,136,136,119,1,0_targ_1_dist_red/trial20.png,,,0,1,redHorizontal,a,23,26,female,2021-02-19_10h19.10.781,exp11,2020.2.6,Win32,60,,,,,,,,,,,
,,,,,,,,,,,,,,a,1,0.77743,space,0.28832,0,137,137,152,1,0_targ_10_dist_red/trial3.png,,,0,10,redHorizontal,a,23,26,female,2021-02-19_10h19.10.781,exp11,2020.2.6,Win32,60,,,,,,,,,,,
,,,,,,,,,,,,,,a,1,0.751735,space,0.38616,0,138,138,194,1,0_targ_16_dist_red/trial20.png,,,0,16,redHorizontal,a,23,26,female,2021-02-19_10h19.10.781,exp11,2020.2.6,Win32,60,,,,,,,,,,,
,,,,,,,,,,,,,,p,1,0.70639,space,0.26091,0,139,139,67,1,9_dist_red/trial18.png,,,1,9,redHorizontal,p,23,26,female,2021-02-19_10h19.10.781,exp11,2020.2.6,Win32,60,,,,,,,,,,,
,,,,,,,,,,,,,,p,1,0.67221,space,0.274565,0,140,140,53,1,9_dist_red/trial4.png,,,1,9,redHorizontal,p,23,26,female,2021-02-19_10h19.10.781,exp11,2020.2.6,Win32,60,,,,,,,,,,,
,,,,,,,,,,,,,,p,1,0.484515,space,0.352045,0,141,141,28,1,3_dist_red/trial4.png,,,1,3,redHorizontal,p,23,26,female,2021-02-19_10h19.10.781,exp11,2020.2.6,Win32,60,,,,,,,,,,,
,,,,,,,,,,,,,,a,1,0.59141,space,0.31679,0,142,142,137,1,0_targ_4_dist_red/trial13.png,,,0,4,redHorizontal,a,23,26,female,2021-02-19_10h19.10.781,exp11,2020.2.6,Win32,60,,,,,,,,,,,
,,,,,,,,,,,,,,p,1,0.636905,space,0.30223,0,143,143,36,1,3_dist_red/trial12.png,,,1,3,redHorizontal,p,23,26,female,2021-02-19_10h19.10.781,exp11,2020.2.6,Win32,60,,,,,,,,,,,
,,,,,,,,,,,,,,p,1,0.65084,space,0.337775,0,144,144,72,1,9_dist_red/trial23.png,,,1,9,redHorizontal,p,23,26,female,2021-02-19_10h19.10.781,exp11,2020.2.6,Win32,60,,,,,,,,,,,
,,,,,,,,,,,,,,p,1,0.7156,space,0.286195,0,145,145,88,1,15_dist_red/trial14.png,,,1,15,redHorizontal,p,23,26,female,2021-02-19_10h19.10.781,exp11,2020.2.6,Win32,60,,,,,,,,,,,
,,,,,,,,,,,,,,a,1,1.216475,space,0.38596,0,146,146,198,1,0_targ_16_dist_red/trial24.png,,,0,16,redHorizontal,a,23,26,female,2021-02-19_10h19.10.781,exp11,2020.2.6,Win32,60,,,,,,,,,,,
,,,,,,,,,,,,,,a,1,0.756415,space,0.36518,0,147,147,167,1,0_targ_10_dist_red/trial18.png,,,0,10,redHorizontal,a,23,26,female,2021-02-19_10h19.10.781,exp11,2020.2.6,Win32,60,,,,,,,,,,,
,,,,,,,,,,,,,,a,1,0.586595,space,0.30185,0,148,148,140,1,0_targ_4_dist_red/trial6.png,,,0,4,redHorizontal,a,23,26,female,2021-02-19_10h19.10.781,exp11,2020.2.6,Win32,60,,,,,,,,,,,
,,,,,,,,,,,,,,p,1,0.482475,space,0.320875,0,149,149,13,1,0_dist_red/trial14.png,,,1,0,redHorizontal,p,23,26,female,2021-02-19_10h19.10.781,exp11,2020.2.6,Win32,60,,,,,,,,,,,
,,,,,,,,,,,,,,p,1,0.867945,space,0.241455,0,150,150,84,1,15_dist_red/trial10.png,,,1,15,redHorizontal,p,23,26,female,2021-02-19_10h19.10.781,exp11,2020.2.6,Win32,60,,,,,,,,,,,
,,,,,,,,,,,,,,a,1,0.60369,space,0.310205,0,151,151,148,1,0_targ_4_dist_red/trial24.png,,,0,4,redHorizontal,a,23,26,female,2021-02-19_10h19.10.781,exp11,2020.2.6,Win32,60,,,,,,,,,,,
,,,,,,,,,,,,,,a,1,0.68807,space,0.26894,0,152,152,189,1,0_targ_16_dist_red/trial15.png,,,0,16,redHorizontal,a,23,26,female,2021-02-19_10h19.10.781,exp11,2020.2.6,Win32,60,,,,,,,,,,,
,,,,,,,,,,,,,,a,1,0.622875,space,0.25687,0,153,153,110,1,0_targ_1_dist_red/trial11.png,,,0,1,redHorizontal,a,23,26,female,2021-02-19_10h19.10.781,exp11,2020.2.6,Win32,60,,,,,,,,,,,
,,,,,,,,,,,,,,a,1,0.710675,space,0.33356,0,154,154,177,1,0_targ_16_dist_red/trial3.png,,,0,16,redHorizontal,a,23,26,female,2021-02-19_10h19.10.781,exp11,2020.2.6,Win32,60,,,,,,,,,,,
,,,,,,,,,,,,,,a,1,0.876785,space,0.24146,0,155,155,127,1,0_targ_4_dist_red/trial3.png,,,0,4,redHorizontal,a,23,26,female,2021-02-19_10h19.10.781,exp11,2020.2.6,Win32,60,,,,,,,,,,,
,,,,,,,,,,,,,,p,1,0.565145,space,0.30164,0,156,156,29,1,3_dist_red/trial5.png,,,1,3,redHorizontal,p,23,26,female,2021-02-19_10h19.10.781,exp11,2020.2.6,Win32,60,,,,,,,,,,,
,,,,,,,,,,,,,,p,1,0.917645,space,0.301035,0,157,157,35,1,3_dist_red/trial11.png,,,1,3,redHorizontal,p,23,26,female,2021-02-19_10h19.10.781,exp11,2020.2.6,Win32,60,,,,,,,,,,,
,,,,,,,,,,,,,,p,1,0.538295,space,0.23558,0,158,158,15,1,0_dist_red/trial16.png,,,1,0,redHorizontal,p,23,26,female,2021-02-19_10h19.10.781,exp11,2020.2.6,Win32,60,,,,,,,,,,,
,,,,,,,,,,,,,,p,1,0.67045,space,0.23468,0,159,159,85,1,15_dist_red/trial11.png,,,1,15,redHorizontal,p,23,26,female,2021-02-19_10h19.10.781,exp11,2020.2.6,Win32,60,,,,,,,,,,,
,,,,,,,,,,,,,,p,1,0.59889,space,0.180445,0,160,160,60,1,9_dist_red/trial11.png,,,1,9,redHorizontal,p,23,26,female,2021-02-19_10h19.10.781,exp11,2020.2.6,Win32,60,,,,,,,,,,,
,,,,,,,,,,,,,,p,1,0.672545,space,0.168215,0,161,161,77,1,15_dist_red/trial3.png,,,1,15,redHorizontal,p,23,26,female,2021-02-19_10h19.10.781,exp11,2020.2.6,Win32,60,,,,,,,,,,,
,,,,,,,,,,,,,,a,1,0.70655,space,0.236785,0,162,162,144,1,0_targ_4_dist_red/trial20.png,,,0,4,redHorizontal,a,23,26,female,2021-02-19_10h19.10.781,exp11,2020.2.6,Win32,60,,,,,,,,,,,
,,,,,,,,,,,,,,a,1,0.694545,space,0.22048,0,163,163,149,1,0_targ_4_dist_red/trial25.png,,,0,4,redHorizontal,a,23,26,female,2021-02-19_10h19.10.781,exp11,2020.2.6,Win32,60,,,,,,,,,,,
,,,,,,,,,,,,,,a,1,0.504845,space,0.267635,0,164,164,141,1,0_targ_4_dist_red/trial17.png,,,0,4,redHorizontal,a,23,26,female,2021-02-19_10h19.10.781,exp11,2020.2.6,Win32,60,,,,,,,,,,,
,,,,,,,,,,,,,,a,1,0.944515,space,0.270065,0,165,165,150,1,0_targ_10_dist_red/trial1.png,,,0,10,redHorizontal,a,23,26,female,2021-02-19_10h19.10.781,exp11,2020.2.6,Win32,60,,,,,,,,,,,
,,,,,,,,,,,,,,p,1,0.62157,space,0.368015,0,166,166,91,1,15_dist_red/trial17.png,,,1,15,redHorizontal,p,23,26,female,2021-02-19_10h19.10.781,exp11,2020.2.6,Win32,60,,,,,,,,,,,
,,,,,,,,,,,,,,p,1,0.504115,space,0.351485,0,167,167,81,1,15_dist_red/trial7.png,,,1,15,redHorizontal,p,23,26,female,2021-02-19_10h19.10.781,exp11,2020.2.6,Win32,60,,,,,,,,,,,
,,,,,,,,,,,,,,p,1,0.4222,space,0.36984,0,168,168,10,1,0_dist_red/trial11.png,,,1,0,redHorizontal,p,23,26,female,2021-02-19_10h19.10.781,exp11,2020.2.6,Win32,60,,,,,,,,,,,
,,,,,,,,,,,,,,a,1,0.54838,space,0.35841,0,169,169,158,1,0_targ_10_dist_red/trial9.png,,,0,10,redHorizontal,a,23,26,female,2021-02-19_10h19.10.781,exp11,2020.2.6,Win32,60,,,,,,,,,,,
,,,,,,,,,,,,,,a,1,0.765265,space,0.253205,0,170,170,170,1,0_targ_10_dist_red/trial21.png,,,0,10,redHorizontal,a,23,26,female,2021-02-19_10h19.10.781,exp11,2020.2.6,Win32,60,,,,,,,,,,,
,,,,,,,,,,,,,,a,1,0.68712,space,0.32277,0,171,171,134,1,0_targ_4_dist_red/trial10.png,,,0,4,redHorizontal,a,23,26,female,2021-02-19_10h19.10.781,exp11,2020.2.6,Win32,60,,,,,,,,,,,
,,,,,,,,,,,,,,a,0,0.4081,space,0.422195,0,172,172,8,1,0_dist_red/trial9.png,,,1,0,redHorizontal,p,23,26,female,2021-02-19_10h19.10.781,exp11,2020.2.6,Win32,60,,,,,,,,,,,
,,,,,,,,,,,,,,a,1,0.85639,space,0.337555,0,173,173,120,1,0_targ_1_dist_red/trial21.png,,,0,1,redHorizontal,a,23,26,female,2021-02-19_10h19.10.781,exp11,2020.2.6,Win32,60,,,,,,,,,,,
,,,,,,,,,,,,,,a,1,1.137495,space,0.26586,0,174,174,188,1,0_targ_16_dist_red/trial14.png,,,0,16,redHorizontal,a,23,26,female,2021-02-19_10h19.10.781,exp11,2020.2.6,Win32,60,,,,,,,,,,,
,,,,,,,,,,,,,,a,1,0.46252,space,0.384565,0,175,175,114,1,0_targ_1_dist_red/trial15.png,,,0,1,redHorizontal,a,23,26,female,2021-02-19_10h19.10.781,exp11,2020.2.6,Win32,60,,,,,,,,,,,
,,,,,,,,,,,,,,p,1,0.561775,space,0.46098,0,176,176,99,1,15_dist_red/trial25.png,,,1,15,redHorizontal,p,23,26,female,2021-02-19_10h19.10.781,exp11,2020.2.6,Win32,60,,,,,,,,,,,
,,,,,,,,,,,,,,p,1,0.467235,space,0.29929,0,177,177,44,1,3_dist_red/trial20.png,,,1,3,redHorizontal,p,23,26,female,2021-02-19_10h19.10.781,exp11,2020.2.6,Win32,60,,,,,,,,,,,
,,,,,,,,,,,,,,a,1,0.604815,space,0.28378,0,178,178,113,1,0_targ_1_dist_red/trial14.png,,,0,1,redHorizontal,a,23,26,female,2021-02-19_10h19.10.781,exp11,2020.2.6,Win32,60,,,,,,,,,,,
,,,,,,,,,,,,,,p,1,0.719665,space,0.321075,0,179,179,51,1,9_dist_red/trial2.png,,,1,9,redHorizontal,p,23,26,female,2021-02-19_10h19.10.781,exp11,2020.2.6,Win32,60,,,,,,,,,,,
,,,,,,,,,,,,,,p,1,0.68507,space,0.282615,0,180,180,94,1,15_dist_red/trial20.png,,,1,15,redHorizontal,p,23,26,female,2021-02-19_10h19.10.781,exp11,2020.2.6,Win32,60,,,,,,,,,,,
,,,,,,,,,,,,,,p,1,0.669455,space,0.276315,0,181,181,66,1,9_dist_red/trial17.png,,,1,9,redHorizontal,p,23,26,female,2021-02-19_10h19.10.781,exp11,2020.2.6,Win32,60,,,,,,,,,,,
,,,,,,,,,,,,,,p,1,0.67339,space,0.28694,0,182,182,46,1,3_dist_red/trial22.png,,,1,3,redHorizontal,p,23,26,female,2021-02-19_10h19.10.781,exp11,2020.2.6,Win32,60,,,,,,,,,,,
,,,,,,,,,,,,,,p,1,0.539005,space,0.29404,0,183,183,47,1,3_dist_red/trial23.png,,,1,3,redHorizontal,p,23,26,female,2021-02-19_10h19.10.781,exp11,2020.2.6,Win32,60,,,,,,,,,,,
,,,,,,,,,,,,,,a,1,0.53725,space,0.31802,0,184,184,136,1,0_targ_4_dist_red/trial12.png,,,0,4,redHorizontal,a,23,26,female,2021-02-19_10h19.10.781,exp11,2020.2.6,Win32,60,,,,,,,,,,,
,,,,,,,,,,,,,,a,1,0.64466,space,0.29083,0,185,185,122,1,0_targ_1_dist_red/trial23.png,,,0,1,redHorizontal,a,23,26,female,2021-02-19_10h19.10.781,exp11,2020.2.6,Win32,60,,,,,,,,,,,
,,,,,,,,,,,,,,a,1,1.240865,space,0.33864,0,186,186,145,1,0_targ_4_dist_red/trial21.png,,,0,4,redHorizontal,a,23,26,female,2021-02-19_10h19.10.781,exp11,2020.2.6,Win32,60,,,,,,,,,,,
,,,,,,,,,,,,,,a,1,0.79482,space,0.334225,0,187,187,199,1,0_targ_16_dist_red/trial25.png,,,0,16,redHorizontal,a,23,26,female,2021-02-19_10h19.10.781,exp11,2020.2.6,Win32,60,,,,,,,,,,,
,,,,,,,,,,,,,,a,1,0.659725,space,0.270645,0,188,188,171,1,0_targ_10_dist_red/trial22.png,,,0,10,redHorizontal,a,23,26,female,2021-02-19_10h19.10.781,exp11,2020.2.6,Win32,60,,,,,,,,,,,
,,,,,,,,,,,,,,a,1,0.655005,space,0.30816,0,189,189,128,1,0_targ_4_dist_red/trial4.png,,,0,4,redHorizontal,a,23,26,female,2021-02-19_10h19.10.781,exp11,2020.2.6,Win32,60,,,,,,,,,,,
,,,,,,,,,,,,,,a,1,0.65253,space,0.33486,0,190,190,155,1,0_targ_10_dist_red/trial6.png,,,0,10,redHorizontal,a,23,26,female,2021-02-19_10h19.10.781,exp11,2020.2.6,Win32,60,,,,,,,,,,,
,,,,,,,,,,,,,,p,1,0.566195,space,0.335175,0,191,191,39,1,3_dist_red/trial15.png,,,1,3,redHorizontal,p,23,26,female,2021-02-19_10h19.10.781,exp11,2020.2.6,Win32,60,,,,,,,,,,,
,,,,,,,,,,,,,,a,1,0.543815,space,0.45655,0,192,192,131,1,0_targ_4_dist_red/trial7.png,,,0,4,redHorizontal,a,23,26,female,2021-02-19_10h19.10.781,exp11,2020.2.6,Win32,60,,,,,,,,,,,
,,,,,,,,,,,,,,a,1,0.66544,space,0.268115,0,193,193,112,1,0_targ_1_dist_red/trial13.png,,,0,1,redHorizontal,a,23,26,female,2021-02-19_10h19.10.781,exp11,2020.2.6,Win32,60,,,,,,,,,,,
,,,,,,,,,,,,,,p,1,0.46085,space,0.267395,0,194,194,38,1,3_dist_red/trial14.png,,,1,3,redHorizontal,p,23,26,female,2021-02-19_10h19.10.781,exp11,2020.2.6,Win32,60,,,,,,,,,,,
,,,,,,,,,,,,,,p,1,0.696695,space,0.24221,0,195,195,58,1,9_dist_red/trial9.png,,,1,9,redHorizontal,p,23,26,female,2021-02-19_10h19.10.781,exp11,2020.2.6,Win32,60,,,,,,,,,,,
,,,,,,,,,,,,,,a,1,0.594795,space,0.33938,0,196,196,124,1,0_targ_1_dist_red/trial25.png,,,0,1,redHorizontal,a,23,26,female,2021-02-19_10h19.10.781,exp11,2020.2.6,Win32,60,,,,,,,,,,,
,,,,,,,,,,,,,,p,1,0.58044,space,0.266545,0,197,197,26,1,3_dist_red/trial2.png,,,1,3,redHorizontal,p,23,26,female,2021-02-19_10h19.10.781,exp11,2020.2.6,Win32,60,,,,,,,,,,,
,,,,,,,,,,,,,,p,1,0.466315,space,0.28924,0,198,198,21,1,0_dist_red/trial22.png,,,1,0,redHorizontal,p,23,26,female,2021-02-19_10h19.10.781,exp11,2020.2.6,Win32,60,,,,,,,,,,,
,,,,,,,,,,,,,,a,1,0.687595,space,0.30159,0,199,199,139,1,0_targ_4_dist_red/trial15.png,,,0,4,redHorizontal,a,23,26,female,2021-02-19_10h19.10.781,exp11,2020.2.6,Win32,60,,,,,,,,,,,
,,,,,,,,,,,,,,,,,,,,,,,,,,,,,,,23,26,female,2021-02-19_10h19.10.781,exp11,2020.2.6,Win32,60,0,0,0,1,1,conRed.xlsx,red horizontal,Look for red horizontal bar (target) and indicate if it is present or absent in the array. If red horizontal target is present press 'p' and if absent press 'a'. Press SPACE to start.,,,
,,,,,,,,,,space,10.47053,space,1.041275,a,1,1.19053,space,0.261325,0,0,0,131,1,0_targ_4_dist_green/trial7.png,,,0,4,greenverival,a,23,26,female,2021-02-19_10h19.10.781,exp11,2020.2.6,Win32,60,,,,,,,,,,,
,,,,,,,,,,,,,,a,1,0.75062,space,0.339075,0,1,1,173,1,0_targ_10_dist_green/trial24.png,,,0,10,greenverival,a,23,26,female,2021-02-19_10h19.10.781,exp11,2020.2.6,Win32,60,,,,,,,,,,,
,,,,,,,,,,,,,,p,1,0.52383,space,0.27816,0,2,2,27,1,3_dist_green/trial3.png,,,1,3,greenverival,p,23,26,female,2021-02-19_10h19.10.781,exp11,2020.2.6,Win32,60,,,,,,,,,,,
,,,,,,,,,,,,,,p,1,0.723095,space,0.224015,0,3,3,71,1,9_dist_green/trial22.png,,,1,9,greenverival,p,23,26,female,2021-02-19_10h19.10.781,exp11,2020.2.6,Win32,60,,,,,,,,,,,
,,,,,,,,,,,,,,a,1,0.85256,space,0.28758,0,4,4,161,1,0_targ_10_dist_green/trial12.png,,,0,10,greenverival,a,23,26,female,2021-02-19_10h19.10.781,exp11,2020.2.6,Win32,60,,,,,,,,,,,
,,,,,,,,,,,,,,a,1,0.687205,space,0.286305,0,5,5,134,1,0_targ_4_dist_green/trial10.png,,,0,4,greenverival,a,23,26,female,2021-02-19_10h19.10.781,exp11,2020.2.6,Win32,60,,,,,,,,,,,
,,,,,,,,,,,,,,a,1,0.491505,space,0.32092,0,6,6,111,1,0_targ_1_dist_green/trial12.png,,,0,1,greenverival,a,23,26,female,2021-02-19_10h19.10.781,exp11,2020.2.6,Win32,60,,,,,,,,,,,
,,,,,,,,,,,,,,a,1,0.443005,space,0.350355,0,7,7,116,1,0_targ_1_dist_green/trial17.png,,,0,1,greenverival,a,23,26,female,2021-02-19_10h19.10.781,exp11,2020.2.6,Win32,60,,,,,,,,,,,
,,,,,,,,,,,,,,p,1,0.48155,space,0.25226,0,8,8,3,1,0_dist_green/trial4.png,,,1,0,greenverival,p,23,26,female,2021-02-19_10h19.10.781,exp11,2020.2.6,Win32,60,,,,,,,,,,,
,,,,,,,,,,,,,,p,1,0.523645,space,0.284465,0,9,9,15,1,0_dist_green/trial16.png,,,1,0,greenverival,p,23,26,female,2021-02-19_10h19.10.781,exp11,2020.2.6,Win32,60,,,,,,,,,,,
,,,,,,,,,,,,,,a,1,0.89614,space,0.320665,0,10,10,197,1,0_targ_16_dist_green/trial23.png,,,0,16,greenverival,a,23,26,female,2021-02-19_10h19.10.781,exp11,2020.2.6,Win32,60,,,,,,,,,,,
,,,,,,,,,,,,,,a,1,0.75461,space,0.318145,0,11,11,125,1,0_targ_4_dist_green/trial1.png,,,0,4,greenverival,a,23,26,female,2021-02-19_10h19.10.781,exp11,2020.2.6,Win32,60,,,,,,,,,,,
,,,,,,,,,,,,,,a,0,0.578385,space,0.94205,0,12,12,57,1,9_dist_green/trial8.png,,,1,9,greenverival,p,23,26,female,2021-02-19_10h19.10.781,exp11,2020.2.6,Win32,60,,,,,,,,,,,
,,,,,,,,,,,,,,p,1,0.93613,space,0.431945,0,13,13,53,1,9_dist_green/trial4.png,,,1,9,greenverival,p,23,26,female,2021-02-19_10h19.10.781,exp11,2020.2.6,Win32,60,,,,,,,,,,,
,,,,,,,,,,,,,,p,1,0.5296,space,0.336845,0,14,14,39,1,3_dist_green/trial15.png,,,1,3,greenverival,p,23,26,female,2021-02-19_10h19.10.781,exp11,2020.2.6,Win32,60,,,,,,,,,,,
,,,,,,,,,,,,,,a,1,0.89158,space,0.30062,0,15,15,169,1,0_targ_10_dist_green/trial20.png,,,0,10,greenverival,a,23,26,female,2021-02-19_10h19.10.781,exp11,2020.2.6,Win32,60,,,,,,,,,,,
,,,,,,,,,,,,,,p,1,0.58869,space,0.417925,0,16,16,89,1,15_dist_green/trial15.png,,,1,15,greenverival,p,23,26,female,2021-02-19_10h19.10.781,exp11,2020.2.6,Win32,60,,,,,,,,,,,
,,,,,,,,,,,,,,a,1,1.02905,space,0.25535,0,17,17,163,1,0_targ_10_dist_green/trial14.png,,,0,10,greenverival,a,23,26,female,2021-02-19_10h19.10.781,exp11,2020.2.6,Win32,60,,,,,,,,,,,
,,,,,,,,,,,,,,a,1,0.584825,space,0.257895,0,18,18,120,1,0_targ_1_dist_green/trial21.png,,,0,1,greenverival,a,23,26,female,2021-02-19_10h19.10.781,exp11,2020.2.6,Win32,60,,,,,,,,,,,
,,,,,,,,,,,,,,a,1,0.517535,space,0.276555,0,19,19,100,1,0_targ_1_dist_green/trial1.png,,,0,1,greenverival,a,23,26,female,2021-02-19_10h19.10.781,exp11,2020.2.6,Win32,60,,,,,,,,,,,
,,,,,,,,,,,,,,p,1,0.500475,space,0.26607,0,20,20,21,1,0_dist_green/trial22.png,,,1,0,greenverival,p,23,26,female,2021-02-19_10h19.10.781,exp11,2020.2.6,Win32,60,,,,,,,,,,,
,,,,,,,,,,,,,,a,1,0.53001,space,0.293465,0,21,21,109,1,0_targ_1_dist_green/trial10.png,,,0,1,greenverival,a,23,26,female,2021-02-19_10h19.10.781,exp11,2020.2.6,Win32,60,,,,,,,,,,,
,,,,,,,,,,,,,,p,1,1.271125,space,0.26747,0,22,22,92,1,15_dist_green/trial18.png,,,1,15,greenverival,p,23,26,female,2021-02-19_10h19.10.781,exp11,2020.2.6,Win32,60,,,,,,,,,,,
,,,,,,,,,,,,,,p,1,1.238735,space,0.29291,0,23,23,85,1,15_dist_green/trial11.png,,,1,15,greenverival,p,23,26,female,2021-02-19_10h19.10.781,exp11,2020.2.6,Win32,60,,,,,,,,,,,
,,,,,,,,,,,,,,p,1,0.56345,space,0.316095,0,24,24,47,1,3_dist_green/trial23.png,,,1,3,greenverival,p,23,26,female,2021-02-19_10h19.10.781,exp11,2020.2.6,Win32,60,,,,,,,,,,,
,,,,,,,,,,,,,,a,1,0.821315,space,0.282765,0,25,25,174,1,0_targ_10_dist_green/trial25.png,,,0,10,greenverival,a,23,26,female,2021-02-19_10h19.10.781,exp11,2020.2.6,Win32,60,,,,,,,,,,,
,,,,,,,,,,,,,,p,1,0.554555,space,0.259265,0,26,26,20,1,0_dist_green/trial21.png,,,1,0,greenverival,p,23,26,female,2021-02-19_10h19.10.781,exp11,2020.2.6,Win32,60,,,,,,,,,,,
,,,,,,,,,,,,,,a,1,0.69213,space,0.340705,0,27,27,141,1,0_targ_4_dist_green/trial17.png,,,0,4,greenverival,a,23,26,female,2021-02-19_10h19.10.781,exp11,2020.2.6,Win32,60,,,,,,,,,,,
,,,,,,,,,,,,,,p,1,0.65369,space,0.27125,0,28,28,78,1,15_dist_green/trial4.png,,,1,15,greenverival,p,23,26,female,2021-02-19_10h19.10.781,exp11,2020.2.6,Win32,60,,,,,,,,,,,
,,,,,,,,,,,,,,a,1,0.68125,space,0.28949,0,29,29,160,1,0_targ_10_dist_green/trial11.png,,,0,10,greenverival,a,23,26,female,2021-02-19_10h19.10.781,exp11,2020.2.6,Win32,60,,,,,,,,,,,
,,,,,,,,,,,,,,p,1,0.729895,space,0.26939,0,30,30,77,1,15_dist_green/trial3.png,,,1,15,greenverival,p,23,26,female,2021-02-19_10h19.10.781,exp11,2020.2.6,Win32,60,,,,,,,,,,,
,,,,,,,,,,,,,,a,1,1.19269,space,0.40353,0,31,31,194,1,0_targ_16_dist_green/trial20.png,,,0,16,greenverival,a,23,26,female,2021-02-19_10h19.10.781,exp11,2020.2.6,Win32,60,,,,,,,,,,,
,,,,,,,,,,,,,,a,1,0.81799,space,0.30157,0,32,32,150,1,0_targ_10_dist_green/trial1.png,,,0,10,greenverival,a,23,26,female,2021-02-19_10h19.10.781,exp11,2020.2.6,Win32,60,,,,,,,,,,,
,,,,,,,,,,,,,,a,1,0.767365,space,0.29878,0,33,33,126,1,0_targ_4_dist_green/trial2.png,,,0,4,greenverival,a,23,26,female,2021-02-19_10h19.10.781,exp11,2020.2.6,Win32,60,,,,,,,,,,,
,,,,,,,,,,,,,,a,1,0.53518,space,0.40278,0,34,34,136,1,0_targ_4_dist_green/trial12.png,,,0,4,greenverival,a,23,26,female,2021-02-19_10h19.10.781,exp11,2020.2.6,Win32,60,,,,,,,,,,,
,,,,,,,,,,,,,,a,1,0.49753,space,0.340415,0,35,35,103,1,0_targ_1_dist_green/trial4.png,,,0,1,greenverival,a,23,26,female,2021-02-19_10h19.10.781,exp11,2020.2.6,Win32,60,,,,,,,,,,,
,,,,,,,,,,,,,,p,1,0.515845,space,0.25931,0,36,36,43,1,3_dist_green/trial19.png,,,1,3,greenverival,p,23,26,female,2021-02-19_10h19.10.781,exp11,2020.2.6,Win32,60,,,,,,,,,,,
,,,,,,,,,,,,,,p,1,0.557135,space,0.25174,0,37,37,73,1,9_dist_green/trial24.png,,,1,9,greenverival,p,23,26,female,2021-02-19_10h19.10.781,exp11,2020.2.6,Win32,60,,,,,,,,,,,
,,,,,,,,,,,,,,a,1,1.262945,space,0.28437,0,38,38,186,1,0_targ_16_dist_green/trial12.png,,,0,16,greenverival,a,23,26,female,2021-02-19_10h19.10.781,exp11,2020.2.6,Win32,60,,,,,,,,,,,
,,,,,,,,,,,,,,a,1,0.684615,space,0.33486,0,39,39,137,1,0_targ_4_dist_green/trial13.png,,,0,4,greenverival,a,23,26,female,2021-02-19_10h19.10.781,exp11,2020.2.6,Win32,60,,,,,,,,,,,
,,,,,,,,,,,,,,p,1,0.613905,space,0.26819,0,40,40,96,1,15_dist_green/trial22.png,,,1,15,greenverival,p,23,26,female,2021-02-19_10h19.10.781,exp11,2020.2.6,Win32,60,,,,,,,,,,,
,,,,,,,,,,,,,,a,1,0.691085,space,0.25109,0,41,41,107,1,0_targ_1_dist_green/trial8.png,,,0,1,greenverival,a,23,26,female,2021-02-19_10h19.10.781,exp11,2020.2.6,Win32,60,,,,,,,,,,,
,,,,,,,,,,,,,,p,1,0.50746,space,0.28507,0,42,42,4,1,0_dist_green/trial5.png,,,1,0,greenverival,p,23,26,female,2021-02-19_10h19.10.781,exp11,2020.2.6,Win32,60,,,,,,,,,,,
,,,,,,,,,,,,,,a,1,1.05738,space,0.298585,0,43,43,191,1,0_targ_16_dist_green/trial17.png,,,0,16,greenverival,a,23,26,female,2021-02-19_10h19.10.781,exp11,2020.2.6,Win32,60,,,,,,,,,,,
,,,,,,,,,,,,,,a,1,0.820605,space,0.300425,0,44,44,128,1,0_targ_4_dist_green/trial4.png,,,0,4,greenverival,a,23,26,female,2021-02-19_10h19.10.781,exp11,2020.2.6,Win32,60,,,,,,,,,,,
,,,,,,,,,,,,,,p,1,0.640825,space,0.25741,0,45,45,34,1,3_dist_green/trial10.png,,,1,3,greenverival,p,23,26,female,2021-02-19_10h19.10.781,exp11,2020.2.6,Win32,60,,,,,,,,,,,
,,,,,,,,,,,,,,a,1,0.76265,space,0.23824,0,46,46,127,1,0_targ_4_dist_green/trial3.png,,,0,4,greenverival,a,23,26,female,2021-02-19_10h19.10.781,exp11,2020.2.6,Win32,60,,,,,,,,,,,
,,,,,,,,,,,,,,p,1,0.612685,space,0.3063,0,47,47,45,1,3_dist_green/trial21.png,,,1,3,greenverival,p,23,26,female,2021-02-19_10h19.10.781,exp11,2020.2.6,Win32,60,,,,,,,,,,,
,,,,,,,,,,,,,,p,1,0.597205,space,0.297985,0,48,48,17,1,0_dist_green/trial18.png,,,1,0,greenverival,p,23,26,female,2021-02-19_10h19.10.781,exp11,2020.2.6,Win32,60,,,,,,,,,,,
,,,,,,,,,,,,,,a,1,0.670855,space,0.267635,0,49,49,175,1,0_targ_16_dist_green/trial1.png,,,0,16,greenverival,a,23,26,female,2021-02-19_10h19.10.781,exp11,2020.2.6,Win32,60,,,,,,,,,,,
,,,,,,,,,,,,,,p,1,0.570555,space,0.246615,0,50,50,49,1,3_dist_green/trial25.png,,,1,3,greenverival,p,23,26,female,2021-02-19_10h19.10.781,exp11,2020.2.6,Win32,60,,,,,,,,,,,
,,,,,,,,,,,,,,a,1,1.04491,space,0.45849,0,51,51,168,1,0_targ_10_dist_green/trial19.png,,,0,10,greenverival,a,23,26,female,2021-02-19_10h19.10.781,exp11,2020.2.6,Win32,60,,,,,,,,,,,
,,,,,,,,,,,,,,a,0,0.865835,space,1.21083,0,52,52,86,1,15_dist_green/trial12.png,,,1,15,greenverival,p,23,26,female,2021-02-19_10h19.10.781,exp11,2020.2.6,Win32,60,,,,,,,,,,,
,,,,,,,,,,,,,,a,1,0.66556,space,0.280045,0,53,53,143,1,0_targ_4_dist_green/trial19.png,,,0,4,greenverival,a,23,26,female,2021-02-19_10h19.10.781,exp11,2020.2.6,Win32,60,,,,,,,,,,,
,,,,,,,,,,,,,,a,1,0.530105,space,0.33451,0,54,54,123,1,0_targ_1_dist_green/trial24.png,,,0,1,greenverival,a,23,26,female,2021-02-19_10h19.10.781,exp11,2020.2.6,Win32,60,,,,,,,,,,,
,,,,,,,,,,,,,,p,1,0.59827,space,0.224755,0,55,55,19,1,0_dist_green/trial20.png,,,1,0,greenverival,p,23,26,female,2021-02-19_10h19.10.781,exp11,2020.2.6,Win32,60,,,,,,,,,,,
,,,,,,,,,,,,,,p,1,0.524255,space,0.335035,0,56,56,14,1,0_dist_green/trial15.png,,,1,0,greenverival,p,23,26,female,2021-02-19_10h19.10.781,exp11,2020.2.6,Win32,60,,,,,,,,,,,
,,,,,,,,,,,,,,a,1,1.174805,space,0.284655,0,57,57,158,1,0_targ_10_dist_green/trial9.png,,,0,10,greenverival,a,23,26,female,2021-02-19_10h19.10.781,exp11,2020.2.6,Win32,60,,,,,,,,,,,
,,,,,,,,,,,,,,a,1,0.44296,space,0.318225,0,58,58,105,1,0_targ_1_dist_green/trial6.png,,,0,1,greenverival,a,23,26,female,2021-02-19_10h19.10.781,exp11,2020.2.6,Win32,60,,,,,,,,,,,
,,,,,,,,,,,,,,a,1,0.928195,space,0.37837,0,59,59,181,1,0_targ_16_dist_green/trial7.png,,,0,16,greenverival,a,23,26,female,2021-02-19_10h19.10.781,exp11,2020.2.6,Win32,60,,,,,,,,,,,
,,,,,,,,,,,,,,p,1,0.54901,space,0.31783,0,60,60,64,1,9_dist_green/trial15.png,,,1,9,greenverival,p,23,26,female,2021-02-19_10h19.10.781,exp11,2020.2.6,Win32,60,,,,,,,,,,,
,,,,,,,,,,,,,,a,1,0.917925,space,0.359635,0,61,61,195,1,0_targ_16_dist_green/trial21.png,,,0,16,greenverival,a,23,26,female,2021-02-19_10h19.10.781,exp11,2020.2.6,Win32,60,,,,,,,,,,,
,,,,,,,,,,,,,,p,1,0.796275,space,0.2517,0,62,62,37,1,3_dist_green/trial13.png,,,1,3,greenverival,p,23,26,female,2021-02-19_10h19.10.781,exp11,2020.2.6,Win32,60,,,,,,,,,,,
,,,,,,,,,,,,,,p,1,0.934885,space,0.25219,0,63,63,80,1,15_dist_green/trial6.png,,,1,15,greenverival,p,23,26,female,2021-02-19_10h19.10.781,exp11,2020.2.6,Win32,60,,,,,,,,,,,
,,,,,,,,,,,,,,p,1,0.51982,space,0.283505,0,64,64,40,1,3_dist_green/trial16.png,,,1,3,greenverival,p,23,26,female,2021-02-19_10h19.10.781,exp11,2020.2.6,Win32,60,,,,,,,,,,,
,,,,,,,,,,,,,,p,1,0.49126,space,0.285775,0,65,65,46,1,3_dist_green/trial22.png,,,1,3,greenverival,p,23,26,female,2021-02-19_10h19.10.781,exp11,2020.2.6,Win32,60,,,,,,,,,,,
,,,,,,,,,,,,,,p,1,0.64692,space,0.22654,0,66,66,83,1,15_dist_green/trial9.png,,,1,15,greenverival,p,23,26,female,2021-02-19_10h19.10.781,exp11,2020.2.6,Win32,60,,,,,,,,,,,
,,,,,,,,,,,,,,p,1,0.595155,space,0.261025,0,67,67,54,1,9_dist_green/trial5.png,,,1,9,greenverival,p,23,26,female,2021-02-19_10h19.10.781,exp11,2020.2.6,Win32,60,,,,,,,,,,,
,,,,,,,,,,,,,,a,1,0.706355,space,0.26971,0,68,68,112,1,0_targ_1_dist_green/trial13.png,,,0,1,greenverival,a,23,26,female,2021-02-19_10h19.10.781,exp11,2020.2.6,Win32,60,,,,,,,,,,,
,,,,,,,,,,,,,,a,1,1.05484,space,0.292455,0,69,69,170,1,0_targ_10_dist_green/trial21.png,,,0,10,greenverival,a,23,26,female,2021-02-19_10h19.10.781,exp11,2020.2.6,Win32,60,,,,,,,,,,,
,,,,,,,,,,,,,,a,1,0.60263,space,0.302935,0,70,70,108,1,0_targ_1_dist_green/trial9.png,,,0,1,greenverival,a,23,26,female,2021-02-19_10h19.10.781,exp11,2020.2.6,Win32,60,,,,,,,,,,,
,,,,,,,,,,,,,,a,1,0.59969,space,0.33571,0,71,71,172,1,0_targ_10_dist_green/trial23.png,,,0,10,greenverival,a,23,26,female,2021-02-19_10h19.10.781,exp11,2020.2.6,Win32,60,,,,,,,,,,,
,,,,,,,,,,,,,,a,1,0.43484,space,0.32536,0,72,72,140,1,0_targ_4_dist_green/trial6.png,,,0,4,greenverival,a,23,26,female,2021-02-19_10h19.10.781,exp11,2020.2.6,Win32,60,,,,,,,,,,,
,,,,,,,,,,,,,,a,1,0.74352,space,0.391405,0,73,73,187,1,0_targ_16_dist_green/trial13.png,,,0,16,greenverival,a,23,26,female,2021-02-19_10h19.10.781,exp11,2020.2.6,Win32,60,,,,,,,,,,,
,,,,,,,,,,,,,,p,1,0.507925,space,0.2842,0,74,74,12,1,0_dist_green/trial13.png,,,1,0,greenverival,p,23,26,female,2021-02-19_10h19.10.781,exp11,2020.2.6,Win32,60,,,,,,,,,,,
,,,,,,,,,,,,,,p,1,0.444255,space,0.236765,0,75,75,8,1,0_dist_green/trial9.png,,,1,0,greenverival,p,23,26,female,2021-02-19_10h19.10.781,exp11,2020.2.6,Win32,60,,,,,,,,,,,
,,,,,,,,,,,,,,p,1,0.610975,space,0.288715,0,76,76,98,1,15_dist_green/trial24.png,,,1,15,greenverival,p,23,26,female,2021-02-19_10h19.10.781,exp11,2020.2.6,Win32,60,,,,,,,,,,,
,,,,,,,,,,,,,,p,1,0.54139,space,0.232245,0,77,77,74,1,9_dist_green/trial25.png,,,1,9,greenverival,p,23,26,female,2021-02-19_10h19.10.781,exp11,2020.2.6,Win32,60,,,,,,,,,,,
,,,,,,,,,,,,,,a,1,0.73805,space,0.310255,0,78,78,159,1,0_targ_10_dist_green/trial10.png,,,0,10,greenverival,a,23,26,female,2021-02-19_10h19.10.781,exp11,2020.2.6,Win32,60,,,,,,,,,,,
,,,,,,,,,,,,,,a,1,0.89253,space,0.257445,0,79,79,184,1,0_targ_16_dist_green/trial10.png,,,0,16,greenverival,a,23,26,female,2021-02-19_10h19.10.781,exp11,2020.2.6,Win32,60,,,,,,,,,,,
,,,,,,,,,,,,,,p,1,0.70338,space,0.29904,0,80,80,36,1,3_dist_green/trial12.png,,,1,3,greenverival,p,23,26,female,2021-02-19_10h19.10.781,exp11,2020.2.6,Win32,60,,,,,,,,,,,
,,,,,,,,,,,,,,a,1,0.85565,space,0.3052,0,81,81,145,1,0_targ_4_dist_green/trial21.png,,,0,4,greenverival,a,23,26,female,2021-02-19_10h19.10.781,exp11,2020.2.6,Win32,60,,,,,,,,,,,
,,,,,,,,,,,,,,p,1,0.457435,space,0.28284,0,82,82,2,1,0_dist_green/trial3.png,,,1,0,greenverival,p,23,26,female,2021-02-19_10h19.10.781,exp11,2020.2.6,Win32,60,,,,,,,,,,,
,,,,,,,,,,,,,,p,1,0.61489,space,0.25858,0,83,83,94,1,15_dist_green/trial20.png,,,1,15,greenverival,p,23,26,female,2021-02-19_10h19.10.781,exp11,2020.2.6,Win32,60,,,,,,,,,,,
,,,,,,,,,,,,,,p,1,0.92384,space,0.490175,0,84,84,63,1,9_dist_green/trial14.png,,,1,9,greenverival,p,23,26,female,2021-02-19_10h19.10.781,exp11,2020.2.6,Win32,60,,,,,,,,,,,
,,,,,,,,,,,,,,a,1,0.80431,space,0.292535,0,85,85,153,1,0_targ_10_dist_green/trial4.png,,,0,10,greenverival,a,23,26,female,2021-02-19_10h19.10.781,exp11,2020.2.6,Win32,60,,,,,,,,,,,
,,,,,,,,,,,,,,a,1,0.55072,space,0.301875,0,86,86,138,1,0_targ_4_dist_green/trial14.png,,,0,4,greenverival,a,23,26,female,2021-02-19_10h19.10.781,exp11,2020.2.6,Win32,60,,,,,,,,,,,
,,,,,,,,,,,,,,a,1,0.499805,space,0.30093,0,87,87,149,1,0_targ_4_dist_green/trial25.png,,,0,4,greenverival,a,23,26,female,2021-02-19_10h19.10.781,exp11,2020.2.6,Win32,60,,,,,,,,,,,
,,,,,,,,,,,,,,p,1,0.55991,space,0.259065,0,88,88,10,1,0_dist_green/trial11.png,,,1,0,greenverival,p,23,26,female,2021-02-19_10h19.10.781,exp11,2020.2.6,Win32,60,,,,,,,,,,,
,,,,,,,,,,,,,,p,1,0.545165,space,0.20702,0,89,89,62,1,9_dist_green/trial13.png,,,1,9,greenverival,p,23,26,female,2021-02-19_10h19.10.781,exp11,2020.2.6,Win32,60,,,,,,,,,,,
,,,,,,,,,,,,,,p,1,1.197335,space,0.26803,0,90,90,75,1,15_dist_green/trial1.png,,,1,15,greenverival,p,23,26,female,2021-02-19_10h19.10.781,exp11,2020.2.6,Win32,60,,,,,,,,,,,
,,,,,,,,,,,,,,a,1,1.443545,space,0.61169,0,91,91,198,1,0_targ_16_dist_green/trial24.png,,,0,16,greenverival,a,23,26,female,2021-02-19_10h19.10.781,exp11,2020.2.6,Win32,60,,,,,,,,,,,
,,,,,,,,,,,,,,p,1,0.74207,space,0.185645,0,92,92,70,1,9_dist_green/trial21.png,,,1,9,greenverival,p,23,26,female,2021-02-19_10h19.10.781,exp11,2020.2.6,Win32,60,,,,,,,,,,,
,,,,,,,,,,,,,,a,1,0.69999,space,0.936345,0,93,93,144,1,0_targ_4_dist_green/trial20.png,,,0,4,greenverival,a,23,26,female,2021-02-19_10h19.10.781,exp11,2020.2.6,Win32,60,,,,,,,,,,,
,,,,,,,,,,,,,,a,1,0.841055,space,0.35784,0,94,94,122,1,0_targ_1_dist_green/trial23.png,,,0,1,greenverival,a,23,26,female,2021-02-19_10h19.10.781,exp11,2020.2.6,Win32,60,,,,,,,,,,,
,,,,,,,,,,,,,,p,1,0.738695,space,0.2254,0,95,95,88,1,15_dist_green/trial14.png,,,1,15,greenverival,p,23,26,female,2021-02-19_10h19.10.781,exp11,2020.2.6,Win32,60,,,,,,,,,,,
,,,,,,,,,,,,,,p,1,0.97423,space,0.216245,0,96,96,97,1,15_dist_green/trial23.png,,,1,15,greenverival,p,23,26,female,2021-02-19_10h19.10.781,exp11,2020.2.6,Win32,60,,,,,,,,,,,
,,,,,,,,,,,,,,a,1,1.133745,space,0.25638,0,97,97,156,1,0_targ_10_dist_green/trial7.png,,,0,10,greenverival,a,23,26,female,2021-02-19_10h19.10.781,exp11,2020.2.6,Win32,60,,,,,,,,,,,
,,,,,,,,,,,,,,p,1,0.613185,space,0.266175,0,98,98,91,1,15_dist_green/trial17.png,,,1,15,greenverival,p,23,26,female,2021-02-19_10h19.10.781,exp11,2020.2.6,Win32,60,,,,,,,,,,,
,,,,,,,,,,,,,,a,1,0.70456,space,0.293665,0,99,99,176,1,0_targ_16_dist_green/trial2.png,,,0,16,greenverival,a,23,26,female,2021-02-19_10h19.10.781,exp11,2020.2.6,Win32,60,,,,,,,,,,,
,,,,,,,,,,,,,,a,0,0.719555,space,0.01947,0,100,100,95,1,15_dist_green/trial21.png,,,1,15,greenverival,p,23,26,female,2021-02-19_10h19.10.781,exp11,2020.2.6,Win32,60,,,,,,,,,,,
,,,,,,,,,,,,,,a,1,1.2158,space,0.33415,0,101,101,110,1,0_targ_1_dist_green/trial11.png,,,0,1,greenverival,a,23,26,female,2021-02-19_10h19.10.781,exp11,2020.2.6,Win32,60,,,,,,,,,,,
,,,,,,,,,,,,,,p,1,0.582945,space,0.24993,0,102,102,61,1,9_dist_green/trial12.png,,,1,9,greenverival,p,23,26,female,2021-02-19_10h19.10.781,exp11,2020.2.6,Win32,60,,,,,,,,,,,
,,,,,,,,,,,,,,p,1,0.617255,space,0.28382,0,103,103,67,1,9_dist_green/trial18.png,,,1,9,greenverival,p,23,26,female,2021-02-19_10h19.10.781,exp11,2020.2.6,Win32,60,,,,,,,,,,,
,,,,,,,,,,,,,,a,1,0.82896,space,0.267445,0,104,104,180,1,0_targ_16_dist_green/trial6.png,,,0,16,greenverival,a,23,26,female,2021-02-19_10h19.10.781,exp11,2020.2.6,Win32,60,,,,,,,,,,,
,,,,,,,,,,,,,,a,1,0.772655,space,0.2343,0,105,105,139,1,0_targ_4_dist_green/trial15.png,,,0,4,greenverival,a,23,26,female,2021-02-19_10h19.10.781,exp11,2020.2.6,Win32,60,,,,,,,,,,,
,,,,,,,,,,,,,,p,1,0.58814,space,0.28648,0,106,106,66,1,9_dist_green/trial17.png,,,1,9,greenverival,p,23,26,female,2021-02-19_10h19.10.781,exp11,2020.2.6,Win32,60,,,,,,,,,,,
,,,,,,,,,,,,,,p,1,0.600505,space,0.290195,0,107,107,56,1,9_dist_green/trial7.png,,,1,9,greenverival,p,23,26,female,2021-02-19_10h19.10.781,exp11,2020.2.6,Win32,60,,,,,,,,,,,
,,,,,,,,,,,,,,a,1,0.5181,space,0.26894,0,108,108,121,1,0_targ_1_dist_green/trial22.png,,,0,1,greenverival,a,23,26,female,2021-02-19_10h19.10.781,exp11,2020.2.6,Win32,60,,,,,,,,,,,
,,,,,,,,,,,,,,a,1,0.37117,space,0.304435,0,109,109,119,1,0_targ_1_dist_green/trial20.png,,,0,1,greenverival,a,23,26,female,2021-02-19_10h19.10.781,exp11,2020.2.6,Win32,60,,,,,,,,,,,
,,,,,,,,,,,,,,a,1,1.00463,space,0.353915,0,110,110,171,1,0_targ_10_dist_green/trial22.png,,,0,10,greenverival,a,23,26,female,2021-02-19_10h19.10.781,exp11,2020.2.6,Win32,60,,,,,,,,,,,
,,,,,,,,,,,,,,p,1,0.41934,space,0.265735,0,111,111,22,1,0_dist_green/trial23.png,,,1,0,greenverival,p,23,26,female,2021-02-19_10h19.10.781,exp11,2020.2.6,Win32,60,,,,,,,,,,,
,,,,,,,,,,,,,,a,1,0.752705,space,0.28822,0,112,112,154,1,0_targ_10_dist_green/trial5.png,,,0,10,greenverival,a,23,26,female,2021-02-19_10h19.10.781,exp11,2020.2.6,Win32,60,,,,,,,,,,,
,,,,,,,,,,,,,,p,1,0.554295,space,0.218485,0,113,113,60,1,9_dist_green/trial11.png,,,1,9,greenverival,p,23,26,female,2021-02-19_10h19.10.781,exp11,2020.2.6,Win32,60,,,,,,,,,,,
,,,,,,,,,,,,,,a,1,0.99793,space,0.200485,0,114,114,142,1,0_targ_4_dist_green/trial18.png,,,0,4,greenverival,a,23,26,female,2021-02-19_10h19.10.781,exp11,2020.2.6,Win32,60,,,,,,,,,,,
,,,,,,,,,,,,,,p,1,0.557505,space,0.333775,0,115,115,99,1,15_dist_green/trial25.png,,,1,15,greenverival,p,23,26,female,2021-02-19_10h19.10.781,exp11,2020.2.6,Win32,60,,,,,,,,,,,
,,,,,,,,,,,,,,p,1,1.08859,space,0.274805,0,116,116,51,1,9_dist_green/trial2.png,,,1,9,greenverival,p,23,26,female,2021-02-19_10h19.10.781,exp11,2020.2.6,Win32,60,,,,,,,,,,,
,,,,,,,,,,,,,,p,1,0.641595,space,0.250785,0,117,117,29,1,3_dist_green/trial5.png,,,1,3,greenverival,p,23,26,female,2021-02-19_10h19.10.781,exp11,2020.2.6,Win32,60,,,,,,,,,,,
,,,,,,,,,,,,,,a,1,0.658605,space,0.290455,0,118,118,165,1,0_targ_10_dist_green/trial16.png,,,0,10,greenverival,a,23,26,female,2021-02-19_10h19.10.781,exp11,2020.2.6,Win32,60,,,,,,,,,,,
,,,,,,,,,,,,,,p,1,0.47287,space,0.259175,0,119,119,33,1,3_dist_green/trial9.png,,,1,3,greenverival,p,23,26,female,2021-02-19_10h19.10.781,exp11,2020.2.6,Win32,60,,,,,,,,,,,
,,,,,,,,,,,,,,a,1,0.59861,space,0.23762,0,120,120,135,1,0_targ_4_dist_green/trial11.png,,,0,4,greenverival,a,23,26,female,2021-02-19_10h19.10.781,exp11,2020.2.6,Win32,60,,,,,,,,,,,
,,,,,,,,,,,,,,p,1,0.449775,space,0.239595,0,121,121,16,1,0_dist_green/trial17.png,,,1,0,greenverival,p,23,26,female,2021-02-19_10h19.10.781,exp11,2020.2.6,Win32,60,,,,,,,,,,,
,,,,,,,,,,,,,,a,1,0.84694,space,0.28918,0,122,122,178,1,0_targ_16_dist_green/trial4.png,,,0,16,greenverival,a,23,26,female,2021-02-19_10h19.10.781,exp11,2020.2.6,Win32,60,,,,,,,,,,,
,,,,,,,,,,,,,,p,1,0.45988,space,0.25096,0,123,123,69,1,9_dist_green/trial20.png,,,1,9,greenverival,p,23,26,female,2021-02-19_10h19.10.781,exp11,2020.2.6,Win32,60,,,,,,,,,,,
,,,,,,,,,,,,,,a,1,1.065625,space,0.263005,0,124,124,162,1,0_targ_10_dist_green/trial13.png,,,0,10,greenverival,a,23,26,female,2021-02-19_10h19.10.781,exp11,2020.2.6,Win32,60,,,,,,,,,,,
,,,,,,,,,,,,,,p,1,0.490915,space,0.25677,0,125,125,31,1,3_dist_green/trial7.png,,,1,3,greenverival,p,23,26,female,2021-02-19_10h19.10.781,exp11,2020.2.6,Win32,60,,,,,,,,,,,
,,,,,,,,,,,,,,a,0,0.615685,space,0.22337,0,126,126,50,1,9_dist_green/trial1.png,,,1,9,greenverival,p,23,26,female,2021-02-19_10h19.10.781,exp11,2020.2.6,Win32,60,,,,,,,,,,,
,,,,,,,,,,,,,,p,1,0.93331,space,0.23731,0,127,127,68,1,9_dist_green/trial19.png,,,1,9,greenverival,p,23,26,female,2021-02-19_10h19.10.781,exp11,2020.2.6,Win32,60,,,,,,,,,,,
,,,,,,,,,,,,,,a,1,0.610825,space,0.2546,0,128,128,132,1,0_targ_4_dist_green/trial8.png,,,0,4,greenverival,a,23,26,female,2021-02-19_10h19.10.781,exp11,2020.2.6,Win32,60,,,,,,,,,,,
,,,,,,,,,,,,,,a,1,0.589045,space,0.289915,0,129,129,146,1,0_targ_4_dist_green/trial22.png,,,0,4,greenverival,a,23,26,female,2021-02-19_10h19.10.781,exp11,2020.2.6,Win32,60,,,,,,,,,,,
,,,,,,,,,,,,,,a,1,0.75315,space,0.419555,0,130,130,152,1,0_targ_10_dist_green/trial3.png,,,0,10,greenverival,a,23,26,female,2021-02-19_10h19.10.781,exp11,2020.2.6,Win32,60,,,,,,,,,,,
,,,,,,,,,,,,,,a,1,1.00134,space,0.252065,0,131,131,157,1,0_targ_10_dist_green/trial8.png,,,0,10,greenverival,a,23,26,female,2021-02-19_10h19.10.781,exp11,2020.2.6,Win32,60,,,,,,,,,,,
,,,,,,,,,,,,,,p,1,0.55102,space,0.40108,0,132,132,42,1,3_dist_green/trial18.png,,,1,3,greenverival,p,23,26,female,2021-02-19_10h19.10.781,exp11,2020.2.6,Win32,60,,,,,,,,,,,
,,,,,,,,,,,,,,a,1,0.60574,space,0.271055,0,133,133,129,1,0_targ_4_dist_green/trial5.png,,,0,4,greenverival,a,23,26,female,2021-02-19_10h19.10.781,exp11,2020.2.6,Win32,60,,,,,,,,,,,
,,,,,,,,,,,,,,p,1,0.42925,space,0.26708,0,134,134,24,1,0_dist_green/trial25.png,,,1,0,greenverival,p,23,26,female,2021-02-19_10h19.10.781,exp11,2020.2.6,Win32,60,,,,,,,,,,,
,,,,,,,,,,,,,,a,1,1.19562,space,0.275355,0,135,135,182,1,0_targ_16_dist_green/trial8.png,,,0,16,greenverival,a,23,26,female,2021-02-19_10h19.10.781,exp11,2020.2.6,Win32,60,,,,,,,,,,,
,,,,,,,,,,,,,,p,1,0.705035,space,0.21646,0,136,136,52,1,9_dist_green/trial3.png,,,1,9,greenverival,p,23,26,female,2021-02-19_10h19.10.781,exp11,2020.2.6,Win32,60,,,,,,,,,,,
,,,,,,,,,,,,,,a,1,1.204585,space,0.21636,0,137,137,179,1,0_targ_16_dist_green/trial5.png,,,0,16,greenverival,a,23,26,female,2021-02-19_10h19.10.781,exp11,2020.2.6,Win32,60,,,,,,,,,,,
,,,,,,,,,,,,,,a,1,0.730075,space,0.27018,0,138,138,101,1,0_targ_1_dist_green/trial2.png,,,0,1,greenverival,a,23,26,female,2021-02-19_10h19.10.781,exp11,2020.2.6,Win32,60,,,,,,,,,,,
,,,,,,,,,,,,,,a,1,1.496465,space,0.27126,0,139,139,196,1,0_targ_16_dist_green/trial22.png,,,0,16,greenverival,a,23,26,female,2021-02-19_10h19.10.781,exp11,2020.2.6,Win32,60,,,,,,,,,,,
,,,,,,,,,,,,,,p,1,0.47017,space,0.316725,0,140,140,1,1,0_dist_green/trial2.png,,,1,0,greenverival,p,23,26,female,2021-02-19_10h19.10.781,exp11,2020.2.6,Win32,60,,,,,,,,,,,
,,,,,,,,,,,,,,p,1,0.531895,space,0.334245,0,141,141,44,1,3_dist_green/trial20.png,,,1,3,greenverival,p,23,26,female,2021-02-19_10h19.10.781,exp11,2020.2.6,Win32,60,,,,,,,,,,,
,,,,,,,,,,,,,,p,1,0.57612,space,0.28881,0,142,142,84,1,15_dist_green/trial10.png,,,1,15,greenverival,p,23,26,female,2021-02-19_10h19.10.781,exp11,2020.2.6,Win32,60,,,,,,,,,,,
,,,,,,,,,,,,,,p,1,0.607755,space,0.292835,0,143,143,58,1,9_dist_green/trial9.png,,,1,9,greenverival,p,23,26,female,2021-02-19_10h19.10.781,exp11,2020.2.6,Win32,60,,,,,,,,,,,
,,,,,,,,,,,,,,p,1,0.58434,space,0.500835,0,144,144,26,1,3_dist_green/trial2.png,,,1,3,greenverival,p,23,26,female,2021-02-19_10h19.10.781,exp11,2020.2.6,Win32,60,,,,,,,,,,,
,,,,,,,,,,,,,,a,1,0.71308,space,0.301285,0,145,145,151,1,0_targ_10_dist_green/trial2.png,,,0,10,greenverival,a,23,26,female,2021-02-19_10h19.10.781,exp11,2020.2.6,Win32,60,,,,,,,,,,,
,,,,,,,,,,,,,,a,1,0.622435,space,0.250315,0,146,146,130,1,0_targ_4_dist_green/trial6.png,,,0,4,greenverival,a,23,26,female,2021-02-19_10h19.10.781,exp11,2020.2.6,Win32,60,,,,,,,,,,,
,,,,,,,,,,,,,,p,1,0.77675,space,0.235265,0,147,147,9,1,0_dist_green/trial10.png,,,1,0,greenverival,p,23,26,female,2021-02-19_10h19.10.781,exp11,2020.2.6,Win32,60,,,,,,,,,,,
,,,,,,,,,,,,,,p,1,0.59603,space,0.23327,0,148,148,59,1,9_dist_green/trial10.png,,,1,9,greenverival,p,23,26,female,2021-02-19_10h19.10.781,exp11,2020.2.6,Win32,60,,,,,,,,,,,
,,,,,,,,,,,,,,a,1,0.624465,space,0.274575,0,149,149,148,1,0_targ_4_dist_green/trial24.png,,,0,4,greenverival,a,23,26,female,2021-02-19_10h19.10.781,exp11,2020.2.6,Win32,60,,,,,,,,,,,
,,,,,,,,,,,,,,p,1,1.108015,space,0.248765,0,150,150,93,1,15_dist_green/trial19.png,,,1,15,greenverival,p,23,26,female,2021-02-19_10h19.10.781,exp11,2020.2.6,Win32,60,,,,,,,,,,,
,,,,,,,,,,,,,,a,0,0.656135,space,0.783925,0,151,151,90,1,15_dist_green/trial16.png,,,1,15,greenverival,p,23,26,female,2021-02-19_10h19.10.781,exp11,2020.2.6,Win32,60,,,,,,,,,,,
,,,,,,,,,,,,,,a,1,0.693485,space,0.246825,0,152,152,167,1,0_targ_10_dist_green/trial18.png,,,0,10,greenverival,a,23,26,female,2021-02-19_10h19.10.781,exp11,2020.2.6,Win32,60,,,,,,,,,,,
,,,,,,,,,,,,,,a,1,0.89199,space,0.25258,0,153,153,117,1,0_targ_1_dist_green/trial18.png,,,0,1,greenverival,a,23,26,female,2021-02-19_10h19.10.781,exp11,2020.2.6,Win32,60,,,,,,,,,,,
,,,,,,,,,,,,,,a,1,0.640455,space,0.33264,0,154,154,147,1,0_targ_4_dist_green/trial23.png,,,0,4,greenverival,a,23,26,female,2021-02-19_10h19.10.781,exp11,2020.2.6,Win32,60,,,,,,,,,,,
,,,,,,,,,,,,,,p,1,0.650575,space,0.351095,0,155,155,82,1,15_dist_green/trial8.png,,,1,15,greenverival,p,23,26,female,2021-02-19_10h19.10.781,exp11,2020.2.6,Win32,60,,,,,,,,,,,
,,,,,,,,,,,,,,a,1,0.73922,space,0.417505,0,156,156,199,1,0_targ_16_dist_green/trial25.png,,,0,16,greenverival,a,23,26,female,2021-02-19_10h19.10.781,exp11,2020.2.6,Win32,60,,,,,,,,,,,
,,,,,,,,,,,,,,a,1,0.763125,space,0.316895,0,157,157,193,1,0_targ_16_dist_green/trial19.png,,,0,16,greenverival,a,23,26,female,2021-02-19_10h19.10.781,exp11,2020.2.6,Win32,60,,,,,,,,,,,
,,,,,,,,,,,,,,a,1,0.6668,space,0.314225,0,158,158,192,1,0_targ_16_dist_green/trial18.png,,,0,16,greenverival,a,23,26,female,2021-02-19_10h19.10.781,exp11,2020.2.6,Win32,60,,,,,,,,,,,
,,,,,,,,,,,,,,p,1,1.07118,space,0.339315,0,159,159,79,1,15_dist_green/trial5.png,,,1,15,greenverival,p,23,26,female,2021-02-19_10h19.10.781,exp11,2020.2.6,Win32,60,,,,,,,,,,,
,,,,,,,,,,,,,,a,1,0.74237,space,0.30493,0,160,160,104,1,0_targ_1_dist_green/trial5.png,,,0,1,greenverival,a,23,26,female,2021-02-19_10h19.10.781,exp11,2020.2.6,Win32,60,,,,,,,,,,,
,,,,,,,,,,,,,,a,1,0.543615,space,0.38439,0,161,161,106,1,0_targ_1_dist_green/trial7.png,,,0,1,greenverival,a,23,26,female,2021-02-19_10h19.10.781,exp11,2020.2.6,Win32,60,,,,,,,,,,,
,,,,,,,,,,,,,,a,1,1.499175,space,0.400405,0,162,162,155,1,0_targ_10_dist_green/trial6.png,,,0,10,greenverival,a,23,26,female,2021-02-19_10h19.10.781,exp11,2020.2.6,Win32,60,,,,,,,,,,,
,,,,,,,,,,,,,,a,1,0.88564,space,0.37219,0,163,163,177,1,0_targ_16_dist_green/trial3.png,,,0,16,greenverival,a,23,26,female,2021-02-19_10h19.10.781,exp11,2020.2.6,Win32,60,,,,,,,,,,,
,,,,,,,,,,,,,,p,1,0.75838,space,0.30228,0,164,164,76,1,15_dist_green/trial2.png,,,1,15,greenverival,p,23,26,female,2021-02-19_10h19.10.781,exp11,2020.2.6,Win32,60,,,,,,,,,,,
,,,,,,,,,,,,,,a,1,0.593165,space,0.34374,0,165,165,133,1,0_targ_4_dist_green/trial9.png,,,0,4,greenverival,a,23,26,female,2021-02-19_10h19.10.781,exp11,2020.2.6,Win32,60,,,,,,,,,,,
,,,,,,,,,,,,,,p,1,0.441315,space,0.406595,0,166,166,18,1,0_dist_green/trial19.png,,,1,0,greenverival,p,23,26,female,2021-02-19_10h19.10.781,exp11,2020.2.6,Win32,60,,,,,,,,,,,
,,,,,,,,,,,,,,p,1,0.665835,space,0.31605,0,167,167,55,1,9_dist_green/trial6.png,,,1,9,greenverival,p,23,26,female,2021-02-19_10h19.10.781,exp11,2020.2.6,Win32,60,,,,,,,,,,,
,,,,,,,,,,,,,,a,1,0.858855,space,0.555335,0,168,168,185,1,0_targ_16_dist_green/trial11.png,,,0,16,greenverival,a,23,26,female,2021-02-19_10h19.10.781,exp11,2020.2.6,Win32,60,,,,,,,,,,,
,,,,,,,,,,,,,,p,1,0.46906,space,0.304735,0,169,169,48,1,3_dist_green/trial24.png,,,1,3,greenverival,p,23,26,female,2021-02-19_10h19.10.781,exp11,2020.2.6,Win32,60,,,,,,,,,,,
,,,,,,,,,,,,,,a,1,1.15516,space,0.27447,0,170,170,113,1,0_targ_1_dist_green/trial14.png,,,0,1,greenverival,a,23,26,female,2021-02-19_10h19.10.781,exp11,2020.2.6,Win32,60,,,,,,,,,,,
,,,,,,,,,,,,,,a,1,0.654695,space,0.266695,0,171,171,102,1,0_targ_1_dist_green/trial3.png,,,0,1,greenverival,a,23,26,female,2021-02-19_10h19.10.781,exp11,2020.2.6,Win32,60,,,,,,,,,,,
,,,,,,,,,,,,,,p,1,0.530985,space,0.25478,0,172,172,0,1,0_dist_green/trial1.png,,,1,0,greenverival,p,23,26,female,2021-02-19_10h19.10.781,exp11,2020.2.6,Win32,60,,,,,,,,,,,
,,,,,,,,,,,,,,p,1,0.459695,space,0.30851,0,173,173,7,1,0_dist_green/trial8.png,,,1,0,greenverival,p,23,26,female,2021-02-19_10h19.10.781,exp11,2020.2.6,Win32,60,,,,,,,,,,,
,,,,,,,,,,,,,,p,1,0.47523,space,0.27308,0,174,174,38,1,3_dist_green/trial14.png,,,1,3,greenverival,p,23,26,female,2021-02-19_10h19.10.781,exp11,2020.2.6,Win32,60,,,,,,,,,,,
,,,,,,,,,,,,,,p,1,0.435035,space,0.305195,0,175,175,32,1,3_dist_green/trial8.png,,,1,3,greenverival,p,23,26,female,2021-02-19_10h19.10.781,exp11,2020.2.6,Win32,60,,,,,,,,,,,
,,,,,,,,,,,,,,p,1,0.517315,space,0.287135,0,176,176,28,1,3_dist_green/trial4.png,,,1,3,greenverival,p,23,26,female,2021-02-19_10h19.10.781,exp11,2020.2.6,Win32,60,,,,,,,,,,,
,,,,,,,,,,,,,,p,1,0.4231,space,0.25964,0,177,177,6,1,0_dist_green/trial7.png,,,1,0,greenverival,p,23,26,female,2021-02-19_10h19.10.781,exp11,2020.2.6,Win32,60,,,,,,,,,,,
,,,,,,,,,,,,,,p,1,0.415755,space,0.271715,0,178,178,5,1,0_dist_green/trial6.png,,,1,0,greenverival,p,23,26,female,2021-02-19_10h19.10.781,exp11,2020.2.6,Win32,60,,,,,,,,,,,
,,,,,,,,,,,,,,p,1,0.393145,space,0.32584,0,179,179,23,1,0_dist_green/trial24.png,,,1,0,greenverival,p,23,26,female,2021-02-19_10h19.10.781,exp11,2020.2.6,Win32,60,,,,,,,,,,,
,,,,,,,,,,,,,,p,1,0.58036,space,0.23432,0,180,180,25,1,3_dist_green/trial1.png,,,1,3,greenverival,p,23,26,female,2021-02-19_10h19.10.781,exp11,2020.2.6,Win32,60,,,,,,,,,,,
,,,,,,,,,,,,,,a,1,0.72662,space,0.267775,0,181,181,166,1,0_targ_10_dist_green/trial17.png,,,0,10,greenverival,a,23,26,female,2021-02-19_10h19.10.781,exp11,2020.2.6,Win32,60,,,,,,,,,,,
,,,,,,,,,,,,,,p,1,0.622215,space,0.209875,0,182,182,72,1,9_dist_green/trial23.png,,,1,9,greenverival,p,23,26,female,2021-02-19_10h19.10.781,exp11,2020.2.6,Win32,60,,,,,,,,,,,
,,,,,,,,,,,,,,a,1,0.733235,space,0.18327,0,183,183,115,1,0_targ_1_dist_green/trial6.png,,,0,1,greenverival,a,23,26,female,2021-02-19_10h19.10.781,exp11,2020.2.6,Win32,60,,,,,,,,,,,
,,,,,,,,,,,,,,p,1,0.542385,space,0.383355,0,184,184,41,1,3_dist_green/trial17.png,,,1,3,greenverival,p,23,26,female,2021-02-19_10h19.10.781,exp11,2020.2.6,Win32,60,,,,,,,,,,,
,,,,,,,,,,,,,,p,1,0.68132,space,0.282905,0,185,185,35,1,3_dist_green/trial11.png,,,1,3,greenverival,p,23,26,female,2021-02-19_10h19.10.781,exp11,2020.2.6,Win32,60,,,,,,,,,,,
,,,,,,,,,,,,,,a,1,0.69962,space,0.300425,0,186,186,164,1,0_targ_10_dist_green/trial15.png,,,0,10,greenverival,a,23,26,female,2021-02-19_10h19.10.781,exp11,2020.2.6,Win32,60,,,,,,,,,,,
,,,,,,,,,,,,,,p,1,0.51286,space,0.32079,0,187,187,11,1,0_dist_green/trial12.png,,,1,0,greenverival,p,23,26,female,2021-02-19_10h19.10.781,exp11,2020.2.6,Win32,60,,,,,,,,,,,
,,,,,,,,,,,,,,a,1,0.821695,space,0.3084,0,188,188,190,1,0_targ_16_dist_green/trial16.png,,,0,16,greenverival,a,23,26,female,2021-02-19_10h19.10.781,exp11,2020.2.6,Win32,60,,,,,,,,,,,
,,,,,,,,,,,,,,a,1,0.70987,space,0.267335,0,189,189,124,1,0_targ_1_dist_green/trial25.png,,,0,1,greenverival,a,23,26,female,2021-02-19_10h19.10.781,exp11,2020.2.6,Win32,60,,,,,,,,,,,
,,,,,,,,,,,,,,p,1,0.57118,space,0.2732,0,190,190,87,1,15_dist_green/trial13.png,,,1,15,greenverival,p,23,26,female,2021-02-19_10h19.10.781,exp11,2020.2.6,Win32,60,,,,,,,,,,,
,,,,,,,,,,,,,,p,1,0.44549,space,0.27631,0,191,191,13,1,0_dist_green/trial14.png,,,1,0,greenverival,p,23,26,female,2021-02-19_10h19.10.781,exp11,2020.2.6,Win32,60,,,,,,,,,,,
,,,,,,,,,,,,,,p,1,0.810015,space,0.25109,0,192,192,65,1,9_dist_green/trial16.png,,,1,9,greenverival,p,23,26,female,2021-02-19_10h19.10.781,exp11,2020.2.6,Win32,60,,,,,,,,,,,
,,,,,,,,,,,,,,p,1,1.18446,space,0.25014,0,193,193,30,1,3_dist_green/trial6.png,,,1,3,greenverival,p,23,26,female,2021-02-19_10h19.10.781,exp11,2020.2.6,Win32,60,,,,,,,,,,,
,,,,,,,,,,,,,,a,1,0.69521,space,0.36809,0,194,194,183,1,0_targ_16_dist_green/trial9.png,,,0,16,greenverival,a,23,26,female,2021-02-19_10h19.10.781,exp11,2020.2.6,Win32,60,,,,,,,,,,,
,,,,,,,,,,,,,,a,1,0.698415,space,0.28662,0,195,195,114,1,0_targ_1_dist_green/trial15.png,,,0,1,greenverival,a,23,26,female,2021-02-19_10h19.10.781,exp11,2020.2.6,Win32,60,,,,,,,,,,,
,,,,,,,,,,,,,,a,1,0.843435,space,0.228765,0,196,196,188,1,0_targ_16_dist_green/trial14.png,,,0,16,greenverival,a,23,26,female,2021-02-19_10h19.10.781,exp11,2020.2.6,Win32,60,,,,,,,,,,,
,,,,,,,,,,,,,,a,1,0.495335,space,0.32089,0,197,197,118,1,0_targ_1_dist_green/trial19.png,,,0,1,greenverival,a,23,26,female,2021-02-19_10h19.10.781,exp11,2020.2.6,Win32,60,,,,,,,,,,,
,,,,,,,,,,,,,,a,1,0.914265,space,0.27496,0,198,198,189,1,0_targ_16_dist_green/trial15.png,,,0,16,greenverival,a,23,26,female,2021-02-19_10h19.10.781,exp11,2020.2.6,Win32,60,,,,,,,,,,,
,,,,,,,,,,,,,,p,1,1.08687,space,0.24784,0,199,199,81,1,15_dist_green/trial7.png,,,1,15,greenverival,p,23,26,female,2021-02-19_10h19.10.781,exp11,2020.2.6,Win32,60,,,,,,,,,,,
,,,,,,,,,,,,,,,,,,,,,,,,,,,,,,,23,26,female,2021-02-19_10h19.10.781,exp11,2020.2.6,Win32,60,0,1,1,0,1,conGreen.xlsx,green vertical,Look for green vertical bar (target) and indicate if it is present or absent in the array. If green vertical target is present press 'p' and if absent press 'a'. Press SPACE to start.,,,
