key_resp_6.keys,key_resp_6.rt,key_resp_7.keys,key_resp_7.rt,key_resp_8.keys,key_resp_8.rt,key_resp_10.keys,key_resp_10.rt,key_resp_9.keys,key_resp_9.rt,key_resp_3.keys,key_resp_3.rt,key_resp_5.keys,key_resp_5.rt,key_resp.keys,key_resp.corr,key_resp.rt,key_resp_4.keys,key_resp_4.rt,trials.thisRepN,trials.thisTrialN,trials.thisN,trials.thisIndex,trials.ran,ImageFile,tarPos,tarSize,targPres,numDist,targetName,correctAns,participant,age,sex,date,expName,psychopyVersion,OS,frameRate,fbclid,trials_2.thisRepN,trials_2.thisTrialN,trials_2.thisN,trials_2.thisIndex,trials_2.ran,condsFile,targName,instructionText,colTarget,sizeTarg,posit
space,8.328255,space,31.824585,space,74.67459,space,26.345275,space,11.45792,space,20.021695,space,6.62897,a,1,0.999565,space,2.775125,0,0,0,116,1,0_targ_1_dist_red/trial17.png,,,0,1,redHorizontal,a,24,25,Male,2021-02-19_12h22.03.290,exp11,2020.2.6,MacIntel,60,IwAR0hkvJJfxNT5N4ovJsgwvEkF3m95afrXr5DqkyR0guLPsVDKkMaCO7fX3c,,,,,,,,,,,
,,,,,,,,,,,,,,p,1,0.74408,space,3.060475,0,1,1,83,1,15_dist_red/trial9.png,,,1,15,redHorizontal,p,24,25,Male,2021-02-19_12h22.03.290,exp11,2020.2.6,MacIntel,60,IwAR0hkvJJfxNT5N4ovJsgwvEkF3m95afrXr5DqkyR0guLPsVDKkMaCO7fX3c,,,,,,,,,,,
,,,,,,,,,,,,,,p,1,0.85493,space,2.82535,0,2,2,57,1,9_dist_red/trial8.png,,,1,9,redHorizontal,p,24,25,Male,2021-02-19_12h22.03.290,exp11,2020.2.6,MacIntel,60,IwAR0hkvJJfxNT5N4ovJsgwvEkF3m95afrXr5DqkyR0guLPsVDKkMaCO7fX3c,,,,,,,,,,,
,,,,,,,,,,,,,,p,1,0.473255,space,2.44552,0,3,3,12,1,0_dist_red/trial13.png,,,1,0,redHorizontal,p,24,25,Male,2021-02-19_12h22.03.290,exp11,2020.2.6,MacIntel,60,IwAR0hkvJJfxNT5N4ovJsgwvEkF3m95afrXr5DqkyR0guLPsVDKkMaCO7fX3c,,,,,,,,,,,
,,,,,,,,,,,,,,a,1,0.72696,space,2.70033,0,4,4,109,1,0_targ_1_dist_red/trial10.png,,,0,1,redHorizontal,a,24,25,Male,2021-02-19_12h22.03.290,exp11,2020.2.6,MacIntel,60,IwAR0hkvJJfxNT5N4ovJsgwvEkF3m95afrXr5DqkyR0guLPsVDKkMaCO7fX3c,,,,,,,,,,,
,,,,,,,,,,,,,,p,1,0.646235,space,2.717335,0,5,5,40,1,3_dist_red/trial16.png,,,1,3,redHorizontal,p,24,25,Male,2021-02-19_12h22.03.290,exp11,2020.2.6,MacIntel,60,IwAR0hkvJJfxNT5N4ovJsgwvEkF3m95afrXr5DqkyR0guLPsVDKkMaCO7fX3c,,,,,,,,,,,
,,,,,,,,,,,,,,a,1,0.67445,space,2.66991,0,6,6,118,1,0_targ_1_dist_red/trial19.png,,,0,1,redHorizontal,a,24,25,Male,2021-02-19_12h22.03.290,exp11,2020.2.6,MacIntel,60,IwAR0hkvJJfxNT5N4ovJsgwvEkF3m95afrXr5DqkyR0guLPsVDKkMaCO7fX3c,,,,,,,,,,,
,,,,,,,,,,,,,,p,1,0.605665,space,2.840935,0,7,7,4,1,0_dist_red/trial5.png,,,1,0,redHorizontal,p,24,25,Male,2021-02-19_12h22.03.290,exp11,2020.2.6,MacIntel,60,IwAR0hkvJJfxNT5N4ovJsgwvEkF3m95afrXr5DqkyR0guLPsVDKkMaCO7fX3c,,,,,,,,,,,
,,,,,,,,,,,,,,a,1,1.296615,space,5.74109,0,8,8,153,1,0_targ_10_dist_red/trial4.png,,,0,10,redHorizontal,a,24,25,Male,2021-02-19_12h22.03.290,exp11,2020.2.6,MacIntel,60,IwAR0hkvJJfxNT5N4ovJsgwvEkF3m95afrXr5DqkyR0guLPsVDKkMaCO7fX3c,,,,,,,,,,,
,,,,,,,,,,,,,,p,1,0.57422,space,1.26711,0,9,9,31,1,3_dist_red/trial7.png,,,1,3,redHorizontal,p,24,25,Male,2021-02-19_12h22.03.290,exp11,2020.2.6,MacIntel,60,IwAR0hkvJJfxNT5N4ovJsgwvEkF3m95afrXr5DqkyR0guLPsVDKkMaCO7fX3c,,,,,,,,,,,
,,,,,,,,,,,,,,p,1,0.5284,space,1.534465,0,10,10,28,1,3_dist_red/trial4.png,,,1,3,redHorizontal,p,24,25,Male,2021-02-19_12h22.03.290,exp11,2020.2.6,MacIntel,60,IwAR0hkvJJfxNT5N4ovJsgwvEkF3m95afrXr5DqkyR0guLPsVDKkMaCO7fX3c,,,,,,,,,,,
,,,,,,,,,,,,,,p,1,0.603305,space,1.19086,0,11,11,42,1,3_dist_red/trial18.png,,,1,3,redHorizontal,p,24,25,Male,2021-02-19_12h22.03.290,exp11,2020.2.6,MacIntel,60,IwAR0hkvJJfxNT5N4ovJsgwvEkF3m95afrXr5DqkyR0guLPsVDKkMaCO7fX3c,,,,,,,,,,,
,,,,,,,,,,,,,,a,1,0.58727,space,1.12819,0,12,12,120,1,0_targ_1_dist_red/trial21.png,,,0,1,redHorizontal,a,24,25,Male,2021-02-19_12h22.03.290,exp11,2020.2.6,MacIntel,60,IwAR0hkvJJfxNT5N4ovJsgwvEkF3m95afrXr5DqkyR0guLPsVDKkMaCO7fX3c,,,,,,,,,,,
,,,,,,,,,,,,,,a,1,0.77451,space,1.78024,0,13,13,196,1,0_targ_16_dist_red/trial22.png,,,0,16,redHorizontal,a,24,25,Male,2021-02-19_12h22.03.290,exp11,2020.2.6,MacIntel,60,IwAR0hkvJJfxNT5N4ovJsgwvEkF3m95afrXr5DqkyR0guLPsVDKkMaCO7fX3c,,,,,,,,,,,
,,,,,,,,,,,,,,p,1,0.522705,space,1.357145,0,14,14,67,1,9_dist_red/trial18.png,,,1,9,redHorizontal,p,24,25,Male,2021-02-19_12h22.03.290,exp11,2020.2.6,MacIntel,60,IwAR0hkvJJfxNT5N4ovJsgwvEkF3m95afrXr5DqkyR0guLPsVDKkMaCO7fX3c,,,,,,,,,,,
,,,,,,,,,,,,,,a,0,0.81001,space,0.75718,0,15,15,79,1,15_dist_red/trial5.png,,,1,15,redHorizontal,p,24,25,Male,2021-02-19_12h22.03.290,exp11,2020.2.6,MacIntel,60,IwAR0hkvJJfxNT5N4ovJsgwvEkF3m95afrXr5DqkyR0guLPsVDKkMaCO7fX3c,,,,,,,,,,,
,,,,,,,,,,,,,,a,1,1.04332,space,1.517775,0,16,16,182,1,0_targ_16_dist_red/trial8.png,,,0,16,redHorizontal,a,24,25,Male,2021-02-19_12h22.03.290,exp11,2020.2.6,MacIntel,60,IwAR0hkvJJfxNT5N4ovJsgwvEkF3m95afrXr5DqkyR0guLPsVDKkMaCO7fX3c,,,,,,,,,,,
,,,,,,,,,,,,,,a,1,0.854355,space,1.3811,0,17,17,103,1,0_targ_1_dist_red/trial4.png,,,0,1,redHorizontal,a,24,25,Male,2021-02-19_12h22.03.290,exp11,2020.2.6,MacIntel,60,IwAR0hkvJJfxNT5N4ovJsgwvEkF3m95afrXr5DqkyR0guLPsVDKkMaCO7fX3c,,,,,,,,,,,
,,,,,,,,,,,,,,a,1,0.590605,space,0.824725,0,18,18,110,1,0_targ_1_dist_red/trial11.png,,,0,1,redHorizontal,a,24,25,Male,2021-02-19_12h22.03.290,exp11,2020.2.6,MacIntel,60,IwAR0hkvJJfxNT5N4ovJsgwvEkF3m95afrXr5DqkyR0guLPsVDKkMaCO7fX3c,,,,,,,,,,,
,,,,,,,,,,,,,,a,1,0.89646,space,2.366905,0,19,19,154,1,0_targ_10_dist_red/trial5.png,,,0,10,redHorizontal,a,24,25,Male,2021-02-19_12h22.03.290,exp11,2020.2.6,MacIntel,60,IwAR0hkvJJfxNT5N4ovJsgwvEkF3m95afrXr5DqkyR0guLPsVDKkMaCO7fX3c,,,,,,,,,,,
,,,,,,,,,,,,,,p,1,1.08146,space,1.28646,0,20,20,73,1,9_dist_red/trial24.png,,,1,9,redHorizontal,p,24,25,Male,2021-02-19_12h22.03.290,exp11,2020.2.6,MacIntel,60,IwAR0hkvJJfxNT5N4ovJsgwvEkF3m95afrXr5DqkyR0guLPsVDKkMaCO7fX3c,,,,,,,,,,,
,,,,,,,,,,,,,,p,1,0.710765,space,4.118225,0,21,21,2,1,0_dist_red/trial3.png,,,1,0,redHorizontal,p,24,25,Male,2021-02-19_12h22.03.290,exp11,2020.2.6,MacIntel,60,IwAR0hkvJJfxNT5N4ovJsgwvEkF3m95afrXr5DqkyR0guLPsVDKkMaCO7fX3c,,,,,,,,,,,
,,,,,,,,,,,,,,p,1,0.811765,space,1.28584,0,22,22,51,1,9_dist_red/trial2.png,,,1,9,redHorizontal,p,24,25,Male,2021-02-19_12h22.03.290,exp11,2020.2.6,MacIntel,60,IwAR0hkvJJfxNT5N4ovJsgwvEkF3m95afrXr5DqkyR0guLPsVDKkMaCO7fX3c,,,,,,,,,,,
,,,,,,,,,,,,,,a,1,0.73228,space,0.925485,0,23,23,137,1,0_targ_4_dist_red/trial13.png,,,0,4,redHorizontal,a,24,25,Male,2021-02-19_12h22.03.290,exp11,2020.2.6,MacIntel,60,IwAR0hkvJJfxNT5N4ovJsgwvEkF3m95afrXr5DqkyR0guLPsVDKkMaCO7fX3c,,,,,,,,,,,
,,,,,,,,,,,,,,p,1,0.83737,space,0.93727,0,24,24,92,1,15_dist_red/trial18.png,,,1,15,redHorizontal,p,24,25,Male,2021-02-19_12h22.03.290,exp11,2020.2.6,MacIntel,60,IwAR0hkvJJfxNT5N4ovJsgwvEkF3m95afrXr5DqkyR0guLPsVDKkMaCO7fX3c,,,,,,,,,,,
,,,,,,,,,,,,,,p,1,0.911185,space,0.910185,0,25,25,50,1,9_dist_red/trial1.png,,,1,9,redHorizontal,p,24,25,Male,2021-02-19_12h22.03.290,exp11,2020.2.6,MacIntel,60,IwAR0hkvJJfxNT5N4ovJsgwvEkF3m95afrXr5DqkyR0guLPsVDKkMaCO7fX3c,,,,,,,,,,,
,,,,,,,,,,,,,,p,1,0.680565,space,0.818095,0,26,26,27,1,3_dist_red/trial3.png,,,1,3,redHorizontal,p,24,25,Male,2021-02-19_12h22.03.290,exp11,2020.2.6,MacIntel,60,IwAR0hkvJJfxNT5N4ovJsgwvEkF3m95afrXr5DqkyR0guLPsVDKkMaCO7fX3c,,,,,,,,,,,
,,,,,,,,,,,,,,a,1,1.196015,space,5.10169,0,27,27,166,1,0_targ_10_dist_red/trial17.png,,,0,10,redHorizontal,a,24,25,Male,2021-02-19_12h22.03.290,exp11,2020.2.6,MacIntel,60,IwAR0hkvJJfxNT5N4ovJsgwvEkF3m95afrXr5DqkyR0guLPsVDKkMaCO7fX3c,,,,,,,,,,,
,,,,,,,,,,,,,,a,1,1.07636,space,1.03515,0,28,28,141,1,0_targ_4_dist_red/trial17.png,,,0,4,redHorizontal,a,24,25,Male,2021-02-19_12h22.03.290,exp11,2020.2.6,MacIntel,60,IwAR0hkvJJfxNT5N4ovJsgwvEkF3m95afrXr5DqkyR0guLPsVDKkMaCO7fX3c,,,,,,,,,,,
,,,,,,,,,,,,,,p,1,0.685615,space,0.79281,0,29,29,63,1,9_dist_red/trial14.png,,,1,9,redHorizontal,p,24,25,Male,2021-02-19_12h22.03.290,exp11,2020.2.6,MacIntel,60,IwAR0hkvJJfxNT5N4ovJsgwvEkF3m95afrXr5DqkyR0guLPsVDKkMaCO7fX3c,,,,,,,,,,,
,,,,,,,,,,,,,,p,1,0.794525,space,0.82653,0,30,30,75,1,15_dist_red/trial1.png,,,1,15,redHorizontal,p,24,25,Male,2021-02-19_12h22.03.290,exp11,2020.2.6,MacIntel,60,IwAR0hkvJJfxNT5N4ovJsgwvEkF3m95afrXr5DqkyR0guLPsVDKkMaCO7fX3c,,,,,,,,,,,
,,,,,,,,,,,,,,p,1,0.61107,space,0.645685,0,31,31,38,1,3_dist_red/trial14.png,,,1,3,redHorizontal,p,24,25,Male,2021-02-19_12h22.03.290,exp11,2020.2.6,MacIntel,60,IwAR0hkvJJfxNT5N4ovJsgwvEkF3m95afrXr5DqkyR0guLPsVDKkMaCO7fX3c,,,,,,,,,,,
,,,,,,,,,,,,,,p,1,0.928675,space,0.664195,0,32,32,54,1,9_dist_red/trial5.png,,,1,9,redHorizontal,p,24,25,Male,2021-02-19_12h22.03.290,exp11,2020.2.6,MacIntel,60,IwAR0hkvJJfxNT5N4ovJsgwvEkF3m95afrXr5DqkyR0guLPsVDKkMaCO7fX3c,,,,,,,,,,,
,,,,,,,,,,,,,,a,1,0.815535,space,0.766165,0,33,33,155,1,0_targ_10_dist_red/trial6.png,,,0,10,redHorizontal,a,24,25,Male,2021-02-19_12h22.03.290,exp11,2020.2.6,MacIntel,60,IwAR0hkvJJfxNT5N4ovJsgwvEkF3m95afrXr5DqkyR0guLPsVDKkMaCO7fX3c,,,,,,,,,,,
,,,,,,,,,,,,,,p,1,1.15968,space,0.709405,0,34,34,71,1,9_dist_red/trial22.png,,,1,9,redHorizontal,p,24,25,Male,2021-02-19_12h22.03.290,exp11,2020.2.6,MacIntel,60,IwAR0hkvJJfxNT5N4ovJsgwvEkF3m95afrXr5DqkyR0guLPsVDKkMaCO7fX3c,,,,,,,,,,,
,,,,,,,,,,,,,,a,1,0.94084,space,0.78083,0,35,35,161,1,0_targ_10_dist_red/trial12.png,,,0,10,redHorizontal,a,24,25,Male,2021-02-19_12h22.03.290,exp11,2020.2.6,MacIntel,60,IwAR0hkvJJfxNT5N4ovJsgwvEkF3m95afrXr5DqkyR0guLPsVDKkMaCO7fX3c,,,,,,,,,,,
,,,,,,,,,,,,,,a,1,0.934245,space,0.67475,0,36,36,126,1,0_targ_4_dist_red/trial2.png,,,0,4,redHorizontal,a,24,25,Male,2021-02-19_12h22.03.290,exp11,2020.2.6,MacIntel,60,IwAR0hkvJJfxNT5N4ovJsgwvEkF3m95afrXr5DqkyR0guLPsVDKkMaCO7fX3c,,,,,,,,,,,
,,,,,,,,,,,,,,p,1,1.22169,space,1.377285,0,37,37,26,1,3_dist_red/trial2.png,,,1,3,redHorizontal,p,24,25,Male,2021-02-19_12h22.03.290,exp11,2020.2.6,MacIntel,60,IwAR0hkvJJfxNT5N4ovJsgwvEkF3m95afrXr5DqkyR0guLPsVDKkMaCO7fX3c,,,,,,,,,,,
,,,,,,,,,,,,,,p,1,0.7613,space,0.62186,0,38,38,81,1,15_dist_red/trial7.png,,,1,15,redHorizontal,p,24,25,Male,2021-02-19_12h22.03.290,exp11,2020.2.6,MacIntel,60,IwAR0hkvJJfxNT5N4ovJsgwvEkF3m95afrXr5DqkyR0guLPsVDKkMaCO7fX3c,,,,,,,,,,,
,,,,,,,,,,,,,,a,1,0.70562,space,0.50513,0,39,39,105,1,0_targ_1_dist_red/trial6.png,,,0,1,redHorizontal,a,24,25,Male,2021-02-19_12h22.03.290,exp11,2020.2.6,MacIntel,60,IwAR0hkvJJfxNT5N4ovJsgwvEkF3m95afrXr5DqkyR0guLPsVDKkMaCO7fX3c,,,,,,,,,,,
,,,,,,,,,,,,,,a,1,1.264555,space,1.276565,0,40,40,192,1,0_targ_16_dist_red/trial18.png,,,0,16,redHorizontal,a,24,25,Male,2021-02-19_12h22.03.290,exp11,2020.2.6,MacIntel,60,IwAR0hkvJJfxNT5N4ovJsgwvEkF3m95afrXr5DqkyR0guLPsVDKkMaCO7fX3c,,,,,,,,,,,
,,,,,,,,,,,,,,a,1,0.705665,space,0.77317,0,41,41,146,1,0_targ_4_dist_red/trial22.png,,,0,4,redHorizontal,a,24,25,Male,2021-02-19_12h22.03.290,exp11,2020.2.6,MacIntel,60,IwAR0hkvJJfxNT5N4ovJsgwvEkF3m95afrXr5DqkyR0guLPsVDKkMaCO7fX3c,,,,,,,,,,,
,,,,,,,,,,,,,,p,1,0.941335,space,0.627515,0,42,42,77,1,15_dist_red/trial3.png,,,1,15,redHorizontal,p,24,25,Male,2021-02-19_12h22.03.290,exp11,2020.2.6,MacIntel,60,IwAR0hkvJJfxNT5N4ovJsgwvEkF3m95afrXr5DqkyR0guLPsVDKkMaCO7fX3c,,,,,,,,,,,
,,,,,,,,,,,,,,p,0,0.604475,space,2.510105,0,43,43,101,1,0_targ_1_dist_red/trial2.png,,,0,1,redHorizontal,a,24,25,Male,2021-02-19_12h22.03.290,exp11,2020.2.6,MacIntel,60,IwAR0hkvJJfxNT5N4ovJsgwvEkF3m95afrXr5DqkyR0guLPsVDKkMaCO7fX3c,,,,,,,,,,,
,,,,,,,,,,,,,,p,1,1.29467,space,1.57279,0,44,44,0,1,0_dist_red/trial1.png,,,1,0,redHorizontal,p,24,25,Male,2021-02-19_12h22.03.290,exp11,2020.2.6,MacIntel,60,IwAR0hkvJJfxNT5N4ovJsgwvEkF3m95afrXr5DqkyR0guLPsVDKkMaCO7fX3c,,,,,,,,,,,
,,,,,,,,,,,,,,a,1,0.694305,space,0.824965,0,45,45,135,1,0_targ_4_dist_red/trial11.png,,,0,4,redHorizontal,a,24,25,Male,2021-02-19_12h22.03.290,exp11,2020.2.6,MacIntel,60,IwAR0hkvJJfxNT5N4ovJsgwvEkF3m95afrXr5DqkyR0guLPsVDKkMaCO7fX3c,,,,,,,,,,,
,,,,,,,,,,,,,,a,1,0.880545,space,1.626085,0,46,46,176,1,0_targ_16_dist_red/trial2.png,,,0,16,redHorizontal,a,24,25,Male,2021-02-19_12h22.03.290,exp11,2020.2.6,MacIntel,60,IwAR0hkvJJfxNT5N4ovJsgwvEkF3m95afrXr5DqkyR0guLPsVDKkMaCO7fX3c,,,,,,,,,,,
,,,,,,,,,,,,,,p,1,0.658195,space,1.06466,0,47,47,22,1,0_dist_red/trial23.png,,,1,0,redHorizontal,p,24,25,Male,2021-02-19_12h22.03.290,exp11,2020.2.6,MacIntel,60,IwAR0hkvJJfxNT5N4ovJsgwvEkF3m95afrXr5DqkyR0guLPsVDKkMaCO7fX3c,,,,,,,,,,,
,,,,,,,,,,,,,,a,1,1.0137,space,1.73634,0,48,48,128,1,0_targ_4_dist_red/trial4.png,,,0,4,redHorizontal,a,24,25,Male,2021-02-19_12h22.03.290,exp11,2020.2.6,MacIntel,60,IwAR0hkvJJfxNT5N4ovJsgwvEkF3m95afrXr5DqkyR0guLPsVDKkMaCO7fX3c,,,,,,,,,,,
,,,,,,,,,,,,,,a,1,0.893825,space,1.1418,0,49,49,187,1,0_targ_16_dist_red/trial13.png,,,0,16,redHorizontal,a,24,25,Male,2021-02-19_12h22.03.290,exp11,2020.2.6,MacIntel,60,IwAR0hkvJJfxNT5N4ovJsgwvEkF3m95afrXr5DqkyR0guLPsVDKkMaCO7fX3c,,,,,,,,,,,
,,,,,,,,,,,,,,p,1,0.736285,space,1.126575,0,50,50,49,1,3_dist_red/trial25.png,,,1,3,redHorizontal,p,24,25,Male,2021-02-19_12h22.03.290,exp11,2020.2.6,MacIntel,60,IwAR0hkvJJfxNT5N4ovJsgwvEkF3m95afrXr5DqkyR0guLPsVDKkMaCO7fX3c,,,,,,,,,,,
,,,,,,,,,,,,,,a,1,0.66249,space,0.98718,0,51,51,167,1,0_targ_10_dist_red/trial18.png,,,0,10,redHorizontal,a,24,25,Male,2021-02-19_12h22.03.290,exp11,2020.2.6,MacIntel,60,IwAR0hkvJJfxNT5N4ovJsgwvEkF3m95afrXr5DqkyR0guLPsVDKkMaCO7fX3c,,,,,,,,,,,
,,,,,,,,,,,,,,p,1,0.773115,space,1.186345,0,52,52,9,1,0_dist_red/trial10.png,,,1,0,redHorizontal,p,24,25,Male,2021-02-19_12h22.03.290,exp11,2020.2.6,MacIntel,60,IwAR0hkvJJfxNT5N4ovJsgwvEkF3m95afrXr5DqkyR0guLPsVDKkMaCO7fX3c,,,,,,,,,,,
,,,,,,,,,,,,,,p,1,1.41313,space,1.072975,0,53,53,86,1,15_dist_red/trial12.png,,,1,15,redHorizontal,p,24,25,Male,2021-02-19_12h22.03.290,exp11,2020.2.6,MacIntel,60,IwAR0hkvJJfxNT5N4ovJsgwvEkF3m95afrXr5DqkyR0guLPsVDKkMaCO7fX3c,,,,,,,,,,,
,,,,,,,,,,,,,,a,1,0.663945,space,0.893175,0,54,54,131,1,0_targ_4_dist_red/trial7.png,,,0,4,redHorizontal,a,24,25,Male,2021-02-19_12h22.03.290,exp11,2020.2.6,MacIntel,60,IwAR0hkvJJfxNT5N4ovJsgwvEkF3m95afrXr5DqkyR0guLPsVDKkMaCO7fX3c,,,,,,,,,,,
,,,,,,,,,,,,,,a,1,0.878845,space,1.574545,0,55,55,122,1,0_targ_1_dist_red/trial23.png,,,0,1,redHorizontal,a,24,25,Male,2021-02-19_12h22.03.290,exp11,2020.2.6,MacIntel,60,IwAR0hkvJJfxNT5N4ovJsgwvEkF3m95afrXr5DqkyR0guLPsVDKkMaCO7fX3c,,,,,,,,,,,
,,,,,,,,,,,,,,p,1,1.214935,space,1.64437,0,56,56,99,1,15_dist_red/trial25.png,,,1,15,redHorizontal,p,24,25,Male,2021-02-19_12h22.03.290,exp11,2020.2.6,MacIntel,60,IwAR0hkvJJfxNT5N4ovJsgwvEkF3m95afrXr5DqkyR0guLPsVDKkMaCO7fX3c,,,,,,,,,,,
,,,,,,,,,,,,,,a,1,0.752325,space,1.4584,0,57,57,102,1,0_targ_1_dist_red/trial3.png,,,0,1,redHorizontal,a,24,25,Male,2021-02-19_12h22.03.290,exp11,2020.2.6,MacIntel,60,IwAR0hkvJJfxNT5N4ovJsgwvEkF3m95afrXr5DqkyR0guLPsVDKkMaCO7fX3c,,,,,,,,,,,
,,,,,,,,,,,,,,p,1,0.881445,space,0.87562,0,58,58,78,1,15_dist_red/trial4.png,,,1,15,redHorizontal,p,24,25,Male,2021-02-19_12h22.03.290,exp11,2020.2.6,MacIntel,60,IwAR0hkvJJfxNT5N4ovJsgwvEkF3m95afrXr5DqkyR0guLPsVDKkMaCO7fX3c,,,,,,,,,,,
,,,,,,,,,,,,,,p,1,0.646185,space,1.318915,0,59,59,3,1,0_dist_red/trial4.png,,,1,0,redHorizontal,p,24,25,Male,2021-02-19_12h22.03.290,exp11,2020.2.6,MacIntel,60,IwAR0hkvJJfxNT5N4ovJsgwvEkF3m95afrXr5DqkyR0guLPsVDKkMaCO7fX3c,,,,,,,,,,,
,,,,,,,,,,,,,,p,1,0.724255,space,0.852605,0,60,60,44,1,3_dist_red/trial20.png,,,1,3,redHorizontal,p,24,25,Male,2021-02-19_12h22.03.290,exp11,2020.2.6,MacIntel,60,IwAR0hkvJJfxNT5N4ovJsgwvEkF3m95afrXr5DqkyR0guLPsVDKkMaCO7fX3c,,,,,,,,,,,
,,,,,,,,,,,,,,a,1,0.997905,space,0.881935,0,61,61,191,1,0_targ_16_dist_red/trial17.png,,,0,16,redHorizontal,a,24,25,Male,2021-02-19_12h22.03.290,exp11,2020.2.6,MacIntel,60,IwAR0hkvJJfxNT5N4ovJsgwvEkF3m95afrXr5DqkyR0guLPsVDKkMaCO7fX3c,,,,,,,,,,,
,,,,,,,,,,,,,,p,1,0.813465,space,0.99478,0,62,62,41,1,3_dist_red/trial17.png,,,1,3,redHorizontal,p,24,25,Male,2021-02-19_12h22.03.290,exp11,2020.2.6,MacIntel,60,IwAR0hkvJJfxNT5N4ovJsgwvEkF3m95afrXr5DqkyR0guLPsVDKkMaCO7fX3c,,,,,,,,,,,
,,,,,,,,,,,,,,p,1,0.90539,space,0.95154,0,63,63,47,1,3_dist_red/trial23.png,,,1,3,redHorizontal,p,24,25,Male,2021-02-19_12h22.03.290,exp11,2020.2.6,MacIntel,60,IwAR0hkvJJfxNT5N4ovJsgwvEkF3m95afrXr5DqkyR0guLPsVDKkMaCO7fX3c,,,,,,,,,,,
,,,,,,,,,,,,,,a,1,0.756215,space,0.66894,0,64,64,132,1,0_targ_4_dist_red/trial8.png,,,0,4,redHorizontal,a,24,25,Male,2021-02-19_12h22.03.290,exp11,2020.2.6,MacIntel,60,IwAR0hkvJJfxNT5N4ovJsgwvEkF3m95afrXr5DqkyR0guLPsVDKkMaCO7fX3c,,,,,,,,,,,
,,,,,,,,,,,,,,a,1,1.026285,space,0.7994,0,65,65,159,1,0_targ_10_dist_red/trial10.png,,,0,10,redHorizontal,a,24,25,Male,2021-02-19_12h22.03.290,exp11,2020.2.6,MacIntel,60,IwAR0hkvJJfxNT5N4ovJsgwvEkF3m95afrXr5DqkyR0guLPsVDKkMaCO7fX3c,,,,,,,,,,,
,,,,,,,,,,,,,,a,1,1.056565,space,0.817115,0,66,66,180,1,0_targ_16_dist_red/trial6.png,,,0,16,redHorizontal,a,24,25,Male,2021-02-19_12h22.03.290,exp11,2020.2.6,MacIntel,60,IwAR0hkvJJfxNT5N4ovJsgwvEkF3m95afrXr5DqkyR0guLPsVDKkMaCO7fX3c,,,,,,,,,,,
,,,,,,,,,,,,,,a,1,0.75239,space,0.66079,0,67,67,157,1,0_targ_10_dist_red/trial8.png,,,0,10,redHorizontal,a,24,25,Male,2021-02-19_12h22.03.290,exp11,2020.2.6,MacIntel,60,IwAR0hkvJJfxNT5N4ovJsgwvEkF3m95afrXr5DqkyR0guLPsVDKkMaCO7fX3c,,,,,,,,,,,
,,,,,,,,,,,,,,a,1,0.93591,space,0.926745,0,68,68,181,1,0_targ_16_dist_red/trial7.png,,,0,16,redHorizontal,a,24,25,Male,2021-02-19_12h22.03.290,exp11,2020.2.6,MacIntel,60,IwAR0hkvJJfxNT5N4ovJsgwvEkF3m95afrXr5DqkyR0guLPsVDKkMaCO7fX3c,,,,,,,,,,,
,,,,,,,,,,,,,,p,1,0.920045,space,1.04641,0,69,69,84,1,15_dist_red/trial10.png,,,1,15,redHorizontal,p,24,25,Male,2021-02-19_12h22.03.290,exp11,2020.2.6,MacIntel,60,IwAR0hkvJJfxNT5N4ovJsgwvEkF3m95afrXr5DqkyR0guLPsVDKkMaCO7fX3c,,,,,,,,,,,
,,,,,,,,,,,,,,a,1,1.71948,space,1.043945,0,70,70,186,1,0_targ_16_dist_red/trial12.png,,,0,16,redHorizontal,a,24,25,Male,2021-02-19_12h22.03.290,exp11,2020.2.6,MacIntel,60,IwAR0hkvJJfxNT5N4ovJsgwvEkF3m95afrXr5DqkyR0guLPsVDKkMaCO7fX3c,,,,,,,,,,,
,,,,,,,,,,,,,,p,1,0.976695,space,0.78574,0,71,71,25,1,3_dist_red/trial1.png,,,1,3,redHorizontal,p,24,25,Male,2021-02-19_12h22.03.290,exp11,2020.2.6,MacIntel,60,IwAR0hkvJJfxNT5N4ovJsgwvEkF3m95afrXr5DqkyR0guLPsVDKkMaCO7fX3c,,,,,,,,,,,
,,,,,,,,,,,,,,a,1,0.807985,space,0.68526,0,72,72,145,1,0_targ_4_dist_red/trial21.png,,,0,4,redHorizontal,a,24,25,Male,2021-02-19_12h22.03.290,exp11,2020.2.6,MacIntel,60,IwAR0hkvJJfxNT5N4ovJsgwvEkF3m95afrXr5DqkyR0guLPsVDKkMaCO7fX3c,,,,,,,,,,,
,,,,,,,,,,,,,,p,1,0.773905,space,0.75085,0,73,73,6,1,0_dist_red/trial7.png,,,1,0,redHorizontal,p,24,25,Male,2021-02-19_12h22.03.290,exp11,2020.2.6,MacIntel,60,IwAR0hkvJJfxNT5N4ovJsgwvEkF3m95afrXr5DqkyR0guLPsVDKkMaCO7fX3c,,,,,,,,,,,
,,,,,,,,,,,,,,a,1,0.851405,space,0.709465,0,74,74,123,1,0_targ_1_dist_red/trial24.png,,,0,1,redHorizontal,a,24,25,Male,2021-02-19_12h22.03.290,exp11,2020.2.6,MacIntel,60,IwAR0hkvJJfxNT5N4ovJsgwvEkF3m95afrXr5DqkyR0guLPsVDKkMaCO7fX3c,,,,,,,,,,,
,,,,,,,,,,,,,,a,1,0.604395,space,0.56705,0,75,75,124,1,0_targ_1_dist_red/trial25.png,,,0,1,redHorizontal,a,24,25,Male,2021-02-19_12h22.03.290,exp11,2020.2.6,MacIntel,60,IwAR0hkvJJfxNT5N4ovJsgwvEkF3m95afrXr5DqkyR0guLPsVDKkMaCO7fX3c,,,,,,,,,,,
,,,,,,,,,,,,,,p,1,0.85166,space,0.422575,0,76,76,58,1,9_dist_red/trial9.png,,,1,9,redHorizontal,p,24,25,Male,2021-02-19_12h22.03.290,exp11,2020.2.6,MacIntel,60,IwAR0hkvJJfxNT5N4ovJsgwvEkF3m95afrXr5DqkyR0guLPsVDKkMaCO7fX3c,,,,,,,,,,,
,,,,,,,,,,,,,,p,1,0.642745,space,0.25656,0,77,77,19,1,0_dist_red/trial20.png,,,1,0,redHorizontal,p,24,25,Male,2021-02-19_12h22.03.290,exp11,2020.2.6,MacIntel,60,IwAR0hkvJJfxNT5N4ovJsgwvEkF3m95afrXr5DqkyR0guLPsVDKkMaCO7fX3c,,,,,,,,,,,
,,,,,,,,,,,,,,a,1,0.853345,space,0.57039,0,78,78,163,1,0_targ_10_dist_red/trial14.png,,,0,10,redHorizontal,a,24,25,Male,2021-02-19_12h22.03.290,exp11,2020.2.6,MacIntel,60,IwAR0hkvJJfxNT5N4ovJsgwvEkF3m95afrXr5DqkyR0guLPsVDKkMaCO7fX3c,,,,,,,,,,,
,,,,,,,,,,,,,,a,1,0.987365,space,0.45863,0,79,79,185,1,0_targ_16_dist_red/trial11.png,,,0,16,redHorizontal,a,24,25,Male,2021-02-19_12h22.03.290,exp11,2020.2.6,MacIntel,60,IwAR0hkvJJfxNT5N4ovJsgwvEkF3m95afrXr5DqkyR0guLPsVDKkMaCO7fX3c,,,,,,,,,,,
,,,,,,,,,,,,,,a,1,0.748225,space,0.322365,0,80,80,112,1,0_targ_1_dist_red/trial13.png,,,0,1,redHorizontal,a,24,25,Male,2021-02-19_12h22.03.290,exp11,2020.2.6,MacIntel,60,IwAR0hkvJJfxNT5N4ovJsgwvEkF3m95afrXr5DqkyR0guLPsVDKkMaCO7fX3c,,,,,,,,,,,
,,,,,,,,,,,,,,a,1,0.903995,space,0.61243,0,81,81,119,1,0_targ_1_dist_red/trial20.png,,,0,1,redHorizontal,a,24,25,Male,2021-02-19_12h22.03.290,exp11,2020.2.6,MacIntel,60,IwAR0hkvJJfxNT5N4ovJsgwvEkF3m95afrXr5DqkyR0guLPsVDKkMaCO7fX3c,,,,,,,,,,,
,,,,,,,,,,,,,,a,1,0.593125,space,0.668355,0,82,82,113,1,0_targ_1_dist_red/trial14.png,,,0,1,redHorizontal,a,24,25,Male,2021-02-19_12h22.03.290,exp11,2020.2.6,MacIntel,60,IwAR0hkvJJfxNT5N4ovJsgwvEkF3m95afrXr5DqkyR0guLPsVDKkMaCO7fX3c,,,,,,,,,,,
,,,,,,,,,,,,,,p,1,0.78731,space,0.467085,0,83,83,68,1,9_dist_red/trial19.png,,,1,9,redHorizontal,p,24,25,Male,2021-02-19_12h22.03.290,exp11,2020.2.6,MacIntel,60,IwAR0hkvJJfxNT5N4ovJsgwvEkF3m95afrXr5DqkyR0guLPsVDKkMaCO7fX3c,,,,,,,,,,,
,,,,,,,,,,,,,,a,1,0.88806,space,0.40884,0,84,84,174,1,0_targ_10_dist_red/trial25.png,,,0,10,redHorizontal,a,24,25,Male,2021-02-19_12h22.03.290,exp11,2020.2.6,MacIntel,60,IwAR0hkvJJfxNT5N4ovJsgwvEkF3m95afrXr5DqkyR0guLPsVDKkMaCO7fX3c,,,,,,,,,,,
,,,,,,,,,,,,,,p,1,1.065545,space,0.509025,0,85,85,7,1,0_dist_red/trial8.png,,,1,0,redHorizontal,p,24,25,Male,2021-02-19_12h22.03.290,exp11,2020.2.6,MacIntel,60,IwAR0hkvJJfxNT5N4ovJsgwvEkF3m95afrXr5DqkyR0guLPsVDKkMaCO7fX3c,,,,,,,,,,,
,,,,,,,,,,,,,,p,1,1.319585,space,0.382425,0,86,86,66,1,9_dist_red/trial17.png,,,1,9,redHorizontal,p,24,25,Male,2021-02-19_12h22.03.290,exp11,2020.2.6,MacIntel,60,IwAR0hkvJJfxNT5N4ovJsgwvEkF3m95afrXr5DqkyR0guLPsVDKkMaCO7fX3c,,,,,,,,,,,
,,,,,,,,,,,,,,a,1,0.865195,space,0.299,0,87,87,149,1,0_targ_4_dist_red/trial25.png,,,0,4,redHorizontal,a,24,25,Male,2021-02-19_12h22.03.290,exp11,2020.2.6,MacIntel,60,IwAR0hkvJJfxNT5N4ovJsgwvEkF3m95afrXr5DqkyR0guLPsVDKkMaCO7fX3c,,,,,,,,,,,
,,,,,,,,,,,,,,p,1,2.150055,space,0.53353,0,88,88,76,1,15_dist_red/trial2.png,,,1,15,redHorizontal,p,24,25,Male,2021-02-19_12h22.03.290,exp11,2020.2.6,MacIntel,60,IwAR0hkvJJfxNT5N4ovJsgwvEkF3m95afrXr5DqkyR0guLPsVDKkMaCO7fX3c,,,,,,,,,,,
,,,,,,,,,,,,,,a,0,1.321665,space,3.92412,0,89,89,95,1,15_dist_red/trial21.png,,,1,15,redHorizontal,p,24,25,Male,2021-02-19_12h22.03.290,exp11,2020.2.6,MacIntel,60,IwAR0hkvJJfxNT5N4ovJsgwvEkF3m95afrXr5DqkyR0guLPsVDKkMaCO7fX3c,,,,,,,,,,,
,,,,,,,,,,,,,,p,1,0.790845,space,1.827555,0,90,90,62,1,9_dist_red/trial13.png,,,1,9,redHorizontal,p,24,25,Male,2021-02-19_12h22.03.290,exp11,2020.2.6,MacIntel,60,IwAR0hkvJJfxNT5N4ovJsgwvEkF3m95afrXr5DqkyR0guLPsVDKkMaCO7fX3c,,,,,,,,,,,
,,,,,,,,,,,,,,a,1,1.67852,space,1.551,0,91,91,188,1,0_targ_16_dist_red/trial14.png,,,0,16,redHorizontal,a,24,25,Male,2021-02-19_12h22.03.290,exp11,2020.2.6,MacIntel,60,IwAR0hkvJJfxNT5N4ovJsgwvEkF3m95afrXr5DqkyR0guLPsVDKkMaCO7fX3c,,,,,,,,,,,
,,,,,,,,,,,,,,a,1,1.91725,space,0.5104,0,92,92,198,1,0_targ_16_dist_red/trial24.png,,,0,16,redHorizontal,a,24,25,Male,2021-02-19_12h22.03.290,exp11,2020.2.6,MacIntel,60,IwAR0hkvJJfxNT5N4ovJsgwvEkF3m95afrXr5DqkyR0guLPsVDKkMaCO7fX3c,,,,,,,,,,,
,,,,,,,,,,,,,,p,1,0.81931,space,0.564915,0,93,93,23,1,0_dist_red/trial24.png,,,1,0,redHorizontal,p,24,25,Male,2021-02-19_12h22.03.290,exp11,2020.2.6,MacIntel,60,IwAR0hkvJJfxNT5N4ovJsgwvEkF3m95afrXr5DqkyR0guLPsVDKkMaCO7fX3c,,,,,,,,,,,
,,,,,,,,,,,,,,p,1,1.00214,space,0.40191,0,94,94,72,1,9_dist_red/trial23.png,,,1,9,redHorizontal,p,24,25,Male,2021-02-19_12h22.03.290,exp11,2020.2.6,MacIntel,60,IwAR0hkvJJfxNT5N4ovJsgwvEkF3m95afrXr5DqkyR0guLPsVDKkMaCO7fX3c,,,,,,,,,,,
,,,,,,,,,,,,,,a,1,1.909675,space,2.43206,0,95,95,171,1,0_targ_10_dist_red/trial22.png,,,0,10,redHorizontal,a,24,25,Male,2021-02-19_12h22.03.290,exp11,2020.2.6,MacIntel,60,IwAR0hkvJJfxNT5N4ovJsgwvEkF3m95afrXr5DqkyR0guLPsVDKkMaCO7fX3c,,,,,,,,,,,
,,,,,,,,,,,,,,a,1,0.767735,space,0.724015,0,96,96,130,1,0_targ_4_dist_red/trial6.png,,,0,4,redHorizontal,a,24,25,Male,2021-02-19_12h22.03.290,exp11,2020.2.6,MacIntel,60,IwAR0hkvJJfxNT5N4ovJsgwvEkF3m95afrXr5DqkyR0guLPsVDKkMaCO7fX3c,,,,,,,,,,,
,,,,,,,,,,,,,,p,1,0.62486,space,0.45399,0,97,97,13,1,0_dist_red/trial14.png,,,1,0,redHorizontal,p,24,25,Male,2021-02-19_12h22.03.290,exp11,2020.2.6,MacIntel,60,IwAR0hkvJJfxNT5N4ovJsgwvEkF3m95afrXr5DqkyR0guLPsVDKkMaCO7fX3c,,,,,,,,,,,
,,,,,,,,,,,,,,a,1,1.07168,space,1.21824,0,98,98,162,1,0_targ_10_dist_red/trial13.png,,,0,10,redHorizontal,a,24,25,Male,2021-02-19_12h22.03.290,exp11,2020.2.6,MacIntel,60,IwAR0hkvJJfxNT5N4ovJsgwvEkF3m95afrXr5DqkyR0guLPsVDKkMaCO7fX3c,,,,,,,,,,,
,,,,,,,,,,,,,,a,1,0.71394,space,0.633105,0,99,99,175,1,0_targ_16_dist_red/trial1.png,,,0,16,redHorizontal,a,24,25,Male,2021-02-19_12h22.03.290,exp11,2020.2.6,MacIntel,60,IwAR0hkvJJfxNT5N4ovJsgwvEkF3m95afrXr5DqkyR0guLPsVDKkMaCO7fX3c,,,,,,,,,,,
,,,,,,,,,,,,,,a,1,0.88574,space,0.52733,0,100,100,127,1,0_targ_4_dist_red/trial3.png,,,0,4,redHorizontal,a,24,25,Male,2021-02-19_12h22.03.290,exp11,2020.2.6,MacIntel,60,IwAR0hkvJJfxNT5N4ovJsgwvEkF3m95afrXr5DqkyR0guLPsVDKkMaCO7fX3c,,,,,,,,,,,
,,,,,,,,,,,,,,a,1,1.17188,space,0.484085,0,101,101,177,1,0_targ_16_dist_red/trial3.png,,,0,16,redHorizontal,a,24,25,Male,2021-02-19_12h22.03.290,exp11,2020.2.6,MacIntel,60,IwAR0hkvJJfxNT5N4ovJsgwvEkF3m95afrXr5DqkyR0guLPsVDKkMaCO7fX3c,,,,,,,,,,,
,,,,,,,,,,,,,,p,1,0.716325,space,0.349215,0,102,102,64,1,9_dist_red/trial15.png,,,1,9,redHorizontal,p,24,25,Male,2021-02-19_12h22.03.290,exp11,2020.2.6,MacIntel,60,IwAR0hkvJJfxNT5N4ovJsgwvEkF3m95afrXr5DqkyR0guLPsVDKkMaCO7fX3c,,,,,,,,,,,
,,,,,,,,,,,,,,p,1,0.837785,space,0.266595,0,103,103,87,1,15_dist_red/trial13.png,,,1,15,redHorizontal,p,24,25,Male,2021-02-19_12h22.03.290,exp11,2020.2.6,MacIntel,60,IwAR0hkvJJfxNT5N4ovJsgwvEkF3m95afrXr5DqkyR0guLPsVDKkMaCO7fX3c,,,,,,,,,,,
,,,,,,,,,,,,,,a,1,0.777015,space,0.333785,0,104,104,156,1,0_targ_10_dist_red/trial7.png,,,0,10,redHorizontal,a,24,25,Male,2021-02-19_12h22.03.290,exp11,2020.2.6,MacIntel,60,IwAR0hkvJJfxNT5N4ovJsgwvEkF3m95afrXr5DqkyR0guLPsVDKkMaCO7fX3c,,,,,,,,,,,
,,,,,,,,,,,,,,p,1,0.611235,space,0.29156,0,105,105,43,1,3_dist_red/trial19.png,,,1,3,redHorizontal,p,24,25,Male,2021-02-19_12h22.03.290,exp11,2020.2.6,MacIntel,60,IwAR0hkvJJfxNT5N4ovJsgwvEkF3m95afrXr5DqkyR0guLPsVDKkMaCO7fX3c,,,,,,,,,,,
,,,,,,,,,,,,,,a,1,1.236635,space,0.34933,0,106,106,172,1,0_targ_10_dist_red/trial23.png,,,0,10,redHorizontal,a,24,25,Male,2021-02-19_12h22.03.290,exp11,2020.2.6,MacIntel,60,IwAR0hkvJJfxNT5N4ovJsgwvEkF3m95afrXr5DqkyR0guLPsVDKkMaCO7fX3c,,,,,,,,,,,
,,,,,,,,,,,,,,p,1,0.829235,space,0.30065,0,107,107,46,1,3_dist_red/trial22.png,,,1,3,redHorizontal,p,24,25,Male,2021-02-19_12h22.03.290,exp11,2020.2.6,MacIntel,60,IwAR0hkvJJfxNT5N4ovJsgwvEkF3m95afrXr5DqkyR0guLPsVDKkMaCO7fX3c,,,,,,,,,,,
,,,,,,,,,,,,,,a,1,0.773495,space,0.275445,0,108,108,178,1,0_targ_16_dist_red/trial4.png,,,0,16,redHorizontal,a,24,25,Male,2021-02-19_12h22.03.290,exp11,2020.2.6,MacIntel,60,IwAR0hkvJJfxNT5N4ovJsgwvEkF3m95afrXr5DqkyR0guLPsVDKkMaCO7fX3c,,,,,,,,,,,
,,,,,,,,,,,,,,a,1,1.21093,space,0.34449,0,109,109,158,1,0_targ_10_dist_red/trial9.png,,,0,10,redHorizontal,a,24,25,Male,2021-02-19_12h22.03.290,exp11,2020.2.6,MacIntel,60,IwAR0hkvJJfxNT5N4ovJsgwvEkF3m95afrXr5DqkyR0guLPsVDKkMaCO7fX3c,,,,,,,,,,,
,,,,,,,,,,,,,,p,1,1.07804,space,0.310725,0,110,110,15,1,0_dist_red/trial16.png,,,1,0,redHorizontal,p,24,25,Male,2021-02-19_12h22.03.290,exp11,2020.2.6,MacIntel,60,IwAR0hkvJJfxNT5N4ovJsgwvEkF3m95afrXr5DqkyR0guLPsVDKkMaCO7fX3c,,,,,,,,,,,
,,,,,,,,,,,,,,a,1,0.903065,space,0.32843,0,111,111,115,1,0_targ_1_dist_red/trial6.png,,,0,1,redHorizontal,a,24,25,Male,2021-02-19_12h22.03.290,exp11,2020.2.6,MacIntel,60,IwAR0hkvJJfxNT5N4ovJsgwvEkF3m95afrXr5DqkyR0guLPsVDKkMaCO7fX3c,,,,,,,,,,,
,,,,,,,,,,,,,,a,1,1.05217,space,0.402475,0,112,112,189,1,0_targ_16_dist_red/trial15.png,,,0,16,redHorizontal,a,24,25,Male,2021-02-19_12h22.03.290,exp11,2020.2.6,MacIntel,60,IwAR0hkvJJfxNT5N4ovJsgwvEkF3m95afrXr5DqkyR0guLPsVDKkMaCO7fX3c,,,,,,,,,,,
,,,,,,,,,,,,,,a,1,0.97388,space,0.301305,0,113,113,199,1,0_targ_16_dist_red/trial25.png,,,0,16,redHorizontal,a,24,25,Male,2021-02-19_12h22.03.290,exp11,2020.2.6,MacIntel,60,IwAR0hkvJJfxNT5N4ovJsgwvEkF3m95afrXr5DqkyR0guLPsVDKkMaCO7fX3c,,,,,,,,,,,
,,,,,,,,,,,,,,p,1,1.217915,space,0.30282,0,114,114,70,1,9_dist_red/trial21.png,,,1,9,redHorizontal,p,24,25,Male,2021-02-19_12h22.03.290,exp11,2020.2.6,MacIntel,60,IwAR0hkvJJfxNT5N4ovJsgwvEkF3m95afrXr5DqkyR0guLPsVDKkMaCO7fX3c,,,,,,,,,,,
,,,,,,,,,,,,,,p,1,1.225355,space,0.64893,0,115,115,80,1,15_dist_red/trial6.png,,,1,15,redHorizontal,p,24,25,Male,2021-02-19_12h22.03.290,exp11,2020.2.6,MacIntel,60,IwAR0hkvJJfxNT5N4ovJsgwvEkF3m95afrXr5DqkyR0guLPsVDKkMaCO7fX3c,,,,,,,,,,,
,,,,,,,,,,,,,,a,1,0.969805,space,0.4529,0,116,116,117,1,0_targ_1_dist_red/trial18.png,,,0,1,redHorizontal,a,24,25,Male,2021-02-19_12h22.03.290,exp11,2020.2.6,MacIntel,60,IwAR0hkvJJfxNT5N4ovJsgwvEkF3m95afrXr5DqkyR0guLPsVDKkMaCO7fX3c,,,,,,,,,,,
,,,,,,,,,,,,,,p,1,1.027825,space,0.37254,0,117,117,11,1,0_dist_red/trial12.png,,,1,0,redHorizontal,p,24,25,Male,2021-02-19_12h22.03.290,exp11,2020.2.6,MacIntel,60,IwAR0hkvJJfxNT5N4ovJsgwvEkF3m95afrXr5DqkyR0guLPsVDKkMaCO7fX3c,,,,,,,,,,,
,,,,,,,,,,,,,,a,1,1.398845,space,0.437255,0,118,118,142,1,0_targ_4_dist_red/trial18.png,,,0,4,redHorizontal,a,24,25,Male,2021-02-19_12h22.03.290,exp11,2020.2.6,MacIntel,60,IwAR0hkvJJfxNT5N4ovJsgwvEkF3m95afrXr5DqkyR0guLPsVDKkMaCO7fX3c,,,,,,,,,,,
,,,,,,,,,,,,,,p,1,1.24004,space,0.318325,0,119,119,17,1,0_dist_red/trial18.png,,,1,0,redHorizontal,p,24,25,Male,2021-02-19_12h22.03.290,exp11,2020.2.6,MacIntel,60,IwAR0hkvJJfxNT5N4ovJsgwvEkF3m95afrXr5DqkyR0guLPsVDKkMaCO7fX3c,,,,,,,,,,,
,,,,,,,,,,,,,,a,1,0.969555,space,0.394165,0,120,120,136,1,0_targ_4_dist_red/trial12.png,,,0,4,redHorizontal,a,24,25,Male,2021-02-19_12h22.03.290,exp11,2020.2.6,MacIntel,60,IwAR0hkvJJfxNT5N4ovJsgwvEkF3m95afrXr5DqkyR0guLPsVDKkMaCO7fX3c,,,,,,,,,,,
,,,,,,,,,,,,,,p,1,0.816,space,0.620845,0,121,121,60,1,9_dist_red/trial11.png,,,1,9,redHorizontal,p,24,25,Male,2021-02-19_12h22.03.290,exp11,2020.2.6,MacIntel,60,IwAR0hkvJJfxNT5N4ovJsgwvEkF3m95afrXr5DqkyR0guLPsVDKkMaCO7fX3c,,,,,,,,,,,
,,,,,,,,,,,,,,a,1,1.52582,space,2.810295,0,122,122,125,1,0_targ_4_dist_red/trial1.png,,,0,4,redHorizontal,a,24,25,Male,2021-02-19_12h22.03.290,exp11,2020.2.6,MacIntel,60,IwAR0hkvJJfxNT5N4ovJsgwvEkF3m95afrXr5DqkyR0guLPsVDKkMaCO7fX3c,,,,,,,,,,,
,,,,,,,,,,,,,,a,1,1.01987,space,0.600555,0,123,123,152,1,0_targ_10_dist_red/trial3.png,,,0,10,redHorizontal,a,24,25,Male,2021-02-19_12h22.03.290,exp11,2020.2.6,MacIntel,60,IwAR0hkvJJfxNT5N4ovJsgwvEkF3m95afrXr5DqkyR0guLPsVDKkMaCO7fX3c,,,,,,,,,,,
,,,,,,,,,,,,,,a,1,1.261985,space,0.785355,0,124,124,195,1,0_targ_16_dist_red/trial21.png,,,0,16,redHorizontal,a,24,25,Male,2021-02-19_12h22.03.290,exp11,2020.2.6,MacIntel,60,IwAR0hkvJJfxNT5N4ovJsgwvEkF3m95afrXr5DqkyR0guLPsVDKkMaCO7fX3c,,,,,,,,,,,
,,,,,,,,,,,,,,a,1,1.1051,space,0.49367,0,125,125,134,1,0_targ_4_dist_red/trial10.png,,,0,4,redHorizontal,a,24,25,Male,2021-02-19_12h22.03.290,exp11,2020.2.6,MacIntel,60,IwAR0hkvJJfxNT5N4ovJsgwvEkF3m95afrXr5DqkyR0guLPsVDKkMaCO7fX3c,,,,,,,,,,,
,,,,,,,,,,,,,,a,1,0.87414,space,0.58068,0,126,126,143,1,0_targ_4_dist_red/trial19.png,,,0,4,redHorizontal,a,24,25,Male,2021-02-19_12h22.03.290,exp11,2020.2.6,MacIntel,60,IwAR0hkvJJfxNT5N4ovJsgwvEkF3m95afrXr5DqkyR0guLPsVDKkMaCO7fX3c,,,,,,,,,,,
,,,,,,,,,,,,,,p,1,0.786175,space,0.34372,0,127,127,1,1,0_dist_red/trial2.png,,,1,0,redHorizontal,p,24,25,Male,2021-02-19_12h22.03.290,exp11,2020.2.6,MacIntel,60,IwAR0hkvJJfxNT5N4ovJsgwvEkF3m95afrXr5DqkyR0guLPsVDKkMaCO7fX3c,,,,,,,,,,,
,,,,,,,,,,,,,,a,1,0.909795,space,0.76997,0,128,128,133,1,0_targ_4_dist_red/trial9.png,,,0,4,redHorizontal,a,24,25,Male,2021-02-19_12h22.03.290,exp11,2020.2.6,MacIntel,60,IwAR0hkvJJfxNT5N4ovJsgwvEkF3m95afrXr5DqkyR0guLPsVDKkMaCO7fX3c,,,,,,,,,,,
,,,,,,,,,,,,,,p,1,1.318965,space,0.50885,0,129,129,85,1,15_dist_red/trial11.png,,,1,15,redHorizontal,p,24,25,Male,2021-02-19_12h22.03.290,exp11,2020.2.6,MacIntel,60,IwAR0hkvJJfxNT5N4ovJsgwvEkF3m95afrXr5DqkyR0guLPsVDKkMaCO7fX3c,,,,,,,,,,,
,,,,,,,,,,,,,,p,1,0.752585,space,0.41866,0,130,130,18,1,0_dist_red/trial19.png,,,1,0,redHorizontal,p,24,25,Male,2021-02-19_12h22.03.290,exp11,2020.2.6,MacIntel,60,IwAR0hkvJJfxNT5N4ovJsgwvEkF3m95afrXr5DqkyR0guLPsVDKkMaCO7fX3c,,,,,,,,,,,
,,,,,,,,,,,,,,a,1,0.66151,space,0.393065,0,131,131,160,1,0_targ_10_dist_red/trial11.png,,,0,10,redHorizontal,a,24,25,Male,2021-02-19_12h22.03.290,exp11,2020.2.6,MacIntel,60,IwAR0hkvJJfxNT5N4ovJsgwvEkF3m95afrXr5DqkyR0guLPsVDKkMaCO7fX3c,,,,,,,,,,,
,,,,,,,,,,,,,,a,1,2.10266,space,0.392365,0,132,132,183,1,0_targ_16_dist_red/trial9.png,,,0,16,redHorizontal,a,24,25,Male,2021-02-19_12h22.03.290,exp11,2020.2.6,MacIntel,60,IwAR0hkvJJfxNT5N4ovJsgwvEkF3m95afrXr5DqkyR0guLPsVDKkMaCO7fX3c,,,,,,,,,,,
,,,,,,,,,,,,,,p,1,1.27694,space,0.57484,0,133,133,65,1,9_dist_red/trial16.png,,,1,9,redHorizontal,p,24,25,Male,2021-02-19_12h22.03.290,exp11,2020.2.6,MacIntel,60,IwAR0hkvJJfxNT5N4ovJsgwvEkF3m95afrXr5DqkyR0guLPsVDKkMaCO7fX3c,,,,,,,,,,,
,,,,,,,,,,,,,,p,1,1.02644,space,1.07799,0,134,134,33,1,3_dist_red/trial9.png,,,1,3,redHorizontal,p,24,25,Male,2021-02-19_12h22.03.290,exp11,2020.2.6,MacIntel,60,IwAR0hkvJJfxNT5N4ovJsgwvEkF3m95afrXr5DqkyR0guLPsVDKkMaCO7fX3c,,,,,,,,,,,
,,,,,,,,,,,,,,a,1,0.94404,space,0.53567,0,135,135,190,1,0_targ_16_dist_red/trial16.png,,,0,16,redHorizontal,a,24,25,Male,2021-02-19_12h22.03.290,exp11,2020.2.6,MacIntel,60,IwAR0hkvJJfxNT5N4ovJsgwvEkF3m95afrXr5DqkyR0guLPsVDKkMaCO7fX3c,,,,,,,,,,,
,,,,,,,,,,,,,,p,1,0.70301,space,0.318075,0,136,136,45,1,3_dist_red/trial21.png,,,1,3,redHorizontal,p,24,25,Male,2021-02-19_12h22.03.290,exp11,2020.2.6,MacIntel,60,IwAR0hkvJJfxNT5N4ovJsgwvEkF3m95afrXr5DqkyR0guLPsVDKkMaCO7fX3c,,,,,,,,,,,
,,,,,,,,,,,,,,a,0,0.803905,space,0.872445,0,137,137,93,1,15_dist_red/trial19.png,,,1,15,redHorizontal,p,24,25,Male,2021-02-19_12h22.03.290,exp11,2020.2.6,MacIntel,60,IwAR0hkvJJfxNT5N4ovJsgwvEkF3m95afrXr5DqkyR0guLPsVDKkMaCO7fX3c,,,,,,,,,,,
,,,,,,,,,,,,,,a,1,1.03817,space,0.666545,0,138,138,173,1,0_targ_10_dist_red/trial24.png,,,0,10,redHorizontal,a,24,25,Male,2021-02-19_12h22.03.290,exp11,2020.2.6,MacIntel,60,IwAR0hkvJJfxNT5N4ovJsgwvEkF3m95afrXr5DqkyR0guLPsVDKkMaCO7fX3c,,,,,,,,,,,
,,,,,,,,,,,,,,a,1,1.063875,space,0.414925,0,139,139,138,1,0_targ_4_dist_red/trial14.png,,,0,4,redHorizontal,a,24,25,Male,2021-02-19_12h22.03.290,exp11,2020.2.6,MacIntel,60,IwAR0hkvJJfxNT5N4ovJsgwvEkF3m95afrXr5DqkyR0guLPsVDKkMaCO7fX3c,,,,,,,,,,,
,,,,,,,,,,,,,,p,1,1.206575,space,0.459945,0,140,140,89,1,15_dist_red/trial15.png,,,1,15,redHorizontal,p,24,25,Male,2021-02-19_12h22.03.290,exp11,2020.2.6,MacIntel,60,IwAR0hkvJJfxNT5N4ovJsgwvEkF3m95afrXr5DqkyR0guLPsVDKkMaCO7fX3c,,,,,,,,,,,
,,,,,,,,,,,,,,a,1,1.65569,space,0.906665,0,141,141,100,1,0_targ_1_dist_red/trial1.png,,,0,1,redHorizontal,a,24,25,Male,2021-02-19_12h22.03.290,exp11,2020.2.6,MacIntel,60,IwAR0hkvJJfxNT5N4ovJsgwvEkF3m95afrXr5DqkyR0guLPsVDKkMaCO7fX3c,,,,,,,,,,,
,,,,,,,,,,,,,,a,1,1.672725,space,0.54116,0,142,142,168,1,0_targ_10_dist_red/trial19.png,,,0,10,redHorizontal,a,24,25,Male,2021-02-19_12h22.03.290,exp11,2020.2.6,MacIntel,60,IwAR0hkvJJfxNT5N4ovJsgwvEkF3m95afrXr5DqkyR0guLPsVDKkMaCO7fX3c,,,,,,,,,,,
,,,,,,,,,,,,,,a,1,1.016735,space,0.492865,0,143,143,197,1,0_targ_16_dist_red/trial23.png,,,0,16,redHorizontal,a,24,25,Male,2021-02-19_12h22.03.290,exp11,2020.2.6,MacIntel,60,IwAR0hkvJJfxNT5N4ovJsgwvEkF3m95afrXr5DqkyR0guLPsVDKkMaCO7fX3c,,,,,,,,,,,
,,,,,,,,,,,,,,p,1,1.0965,space,0.54959,0,144,144,8,1,0_dist_red/trial9.png,,,1,0,redHorizontal,p,24,25,Male,2021-02-19_12h22.03.290,exp11,2020.2.6,MacIntel,60,IwAR0hkvJJfxNT5N4ovJsgwvEkF3m95afrXr5DqkyR0guLPsVDKkMaCO7fX3c,,,,,,,,,,,
,,,,,,,,,,,,,,a,1,0.968405,space,0.484,0,145,145,150,1,0_targ_10_dist_red/trial1.png,,,0,10,redHorizontal,a,24,25,Male,2021-02-19_12h22.03.290,exp11,2020.2.6,MacIntel,60,IwAR0hkvJJfxNT5N4ovJsgwvEkF3m95afrXr5DqkyR0guLPsVDKkMaCO7fX3c,,,,,,,,,,,
,,,,,,,,,,,,,,a,1,1.217895,space,0.37549,0,146,146,114,1,0_targ_1_dist_red/trial15.png,,,0,1,redHorizontal,a,24,25,Male,2021-02-19_12h22.03.290,exp11,2020.2.6,MacIntel,60,IwAR0hkvJJfxNT5N4ovJsgwvEkF3m95afrXr5DqkyR0guLPsVDKkMaCO7fX3c,,,,,,,,,,,
,,,,,,,,,,,,,,p,1,0.860005,space,0.3344,0,147,147,82,1,15_dist_red/trial8.png,,,1,15,redHorizontal,p,24,25,Male,2021-02-19_12h22.03.290,exp11,2020.2.6,MacIntel,60,IwAR0hkvJJfxNT5N4ovJsgwvEkF3m95afrXr5DqkyR0guLPsVDKkMaCO7fX3c,,,,,,,,,,,
,,,,,,,,,,,,,,p,1,1.935365,space,0.383985,0,148,148,91,1,15_dist_red/trial17.png,,,1,15,redHorizontal,p,24,25,Male,2021-02-19_12h22.03.290,exp11,2020.2.6,MacIntel,60,IwAR0hkvJJfxNT5N4ovJsgwvEkF3m95afrXr5DqkyR0guLPsVDKkMaCO7fX3c,,,,,,,,,,,
,,,,,,,,,,,,,,a,0,1.034945,space,1.48487,0,149,149,56,1,9_dist_red/trial7.png,,,1,9,redHorizontal,p,24,25,Male,2021-02-19_12h22.03.290,exp11,2020.2.6,MacIntel,60,IwAR0hkvJJfxNT5N4ovJsgwvEkF3m95afrXr5DqkyR0guLPsVDKkMaCO7fX3c,,,,,,,,,,,
,,,,,,,,,,,,,,a,1,2.39638,space,0.825305,0,150,150,179,1,0_targ_16_dist_red/trial5.png,,,0,16,redHorizontal,a,24,25,Male,2021-02-19_12h22.03.290,exp11,2020.2.6,MacIntel,60,IwAR0hkvJJfxNT5N4ovJsgwvEkF3m95afrXr5DqkyR0guLPsVDKkMaCO7fX3c,,,,,,,,,,,
,,,,,,,,,,,,,,p,1,0.684085,space,0.394975,0,151,151,48,1,3_dist_red/trial24.png,,,1,3,redHorizontal,p,24,25,Male,2021-02-19_12h22.03.290,exp11,2020.2.6,MacIntel,60,IwAR0hkvJJfxNT5N4ovJsgwvEkF3m95afrXr5DqkyR0guLPsVDKkMaCO7fX3c,,,,,,,,,,,
,,,,,,,,,,,,,,a,1,0.917345,space,0.61869,0,152,152,147,1,0_targ_4_dist_red/trial23.png,,,0,4,redHorizontal,a,24,25,Male,2021-02-19_12h22.03.290,exp11,2020.2.6,MacIntel,60,IwAR0hkvJJfxNT5N4ovJsgwvEkF3m95afrXr5DqkyR0guLPsVDKkMaCO7fX3c,,,,,,,,,,,
,,,,,,,,,,,,,,p,1,0.828195,space,0.38946,0,153,153,30,1,3_dist_red/trial6.png,,,1,3,redHorizontal,p,24,25,Male,2021-02-19_12h22.03.290,exp11,2020.2.6,MacIntel,60,IwAR0hkvJJfxNT5N4ovJsgwvEkF3m95afrXr5DqkyR0guLPsVDKkMaCO7fX3c,,,,,,,,,,,
,,,,,,,,,,,,,,a,1,1.132805,space,0.355885,0,154,154,194,1,0_targ_16_dist_red/trial20.png,,,0,16,redHorizontal,a,24,25,Male,2021-02-19_12h22.03.290,exp11,2020.2.6,MacIntel,60,IwAR0hkvJJfxNT5N4ovJsgwvEkF3m95afrXr5DqkyR0guLPsVDKkMaCO7fX3c,,,,,,,,,,,
,,,,,,,,,,,,,,p,1,0.63865,space,0.36057,0,155,155,10,1,0_dist_red/trial11.png,,,1,0,redHorizontal,p,24,25,Male,2021-02-19_12h22.03.290,exp11,2020.2.6,MacIntel,60,IwAR0hkvJJfxNT5N4ovJsgwvEkF3m95afrXr5DqkyR0guLPsVDKkMaCO7fX3c,,,,,,,,,,,
,,,,,,,,,,,,,,p,1,1.170425,space,0.333815,0,156,156,90,1,15_dist_red/trial16.png,,,1,15,redHorizontal,p,24,25,Male,2021-02-19_12h22.03.290,exp11,2020.2.6,MacIntel,60,IwAR0hkvJJfxNT5N4ovJsgwvEkF3m95afrXr5DqkyR0guLPsVDKkMaCO7fX3c,,,,,,,,,,,
,,,,,,,,,,,,,,a,1,1.052755,space,0.259535,0,157,157,104,1,0_targ_1_dist_red/trial5.png,,,0,1,redHorizontal,a,24,25,Male,2021-02-19_12h22.03.290,exp11,2020.2.6,MacIntel,60,IwAR0hkvJJfxNT5N4ovJsgwvEkF3m95afrXr5DqkyR0guLPsVDKkMaCO7fX3c,,,,,,,,,,,
,,,,,,,,,,,,,,p,1,1.186395,space,0.29327,0,158,158,59,1,9_dist_red/trial10.png,,,1,9,redHorizontal,p,24,25,Male,2021-02-19_12h22.03.290,exp11,2020.2.6,MacIntel,60,IwAR0hkvJJfxNT5N4ovJsgwvEkF3m95afrXr5DqkyR0guLPsVDKkMaCO7fX3c,,,,,,,,,,,
,,,,,,,,,,,,,,p,1,1.621295,space,0.486075,0,159,159,88,1,15_dist_red/trial14.png,,,1,15,redHorizontal,p,24,25,Male,2021-02-19_12h22.03.290,exp11,2020.2.6,MacIntel,60,IwAR0hkvJJfxNT5N4ovJsgwvEkF3m95afrXr5DqkyR0guLPsVDKkMaCO7fX3c,,,,,,,,,,,
,,,,,,,,,,,,,,a,1,1.012655,space,0.27567,0,160,160,151,1,0_targ_10_dist_red/trial2.png,,,0,10,redHorizontal,a,24,25,Male,2021-02-19_12h22.03.290,exp11,2020.2.6,MacIntel,60,IwAR0hkvJJfxNT5N4ovJsgwvEkF3m95afrXr5DqkyR0guLPsVDKkMaCO7fX3c,,,,,,,,,,,
,,,,,,,,,,,,,,p,1,1.160415,space,0.576385,0,161,161,37,1,3_dist_red/trial13.png,,,1,3,redHorizontal,p,24,25,Male,2021-02-19_12h22.03.290,exp11,2020.2.6,MacIntel,60,IwAR0hkvJJfxNT5N4ovJsgwvEkF3m95afrXr5DqkyR0guLPsVDKkMaCO7fX3c,,,,,,,,,,,
,,,,,,,,,,,,,,p,1,1.289865,space,0.41778,0,162,162,61,1,9_dist_red/trial12.png,,,1,9,redHorizontal,p,24,25,Male,2021-02-19_12h22.03.290,exp11,2020.2.6,MacIntel,60,IwAR0hkvJJfxNT5N4ovJsgwvEkF3m95afrXr5DqkyR0guLPsVDKkMaCO7fX3c,,,,,,,,,,,
,,,,,,,,,,,,,,p,1,0.91815,space,0.420605,0,163,163,32,1,3_dist_red/trial8.png,,,1,3,redHorizontal,p,24,25,Male,2021-02-19_12h22.03.290,exp11,2020.2.6,MacIntel,60,IwAR0hkvJJfxNT5N4ovJsgwvEkF3m95afrXr5DqkyR0guLPsVDKkMaCO7fX3c,,,,,,,,,,,
,,,,,,,,,,,,,,a,1,0.774845,space,0.399705,0,164,164,169,1,0_targ_10_dist_red/trial20.png,,,0,10,redHorizontal,a,24,25,Male,2021-02-19_12h22.03.290,exp11,2020.2.6,MacIntel,60,IwAR0hkvJJfxNT5N4ovJsgwvEkF3m95afrXr5DqkyR0guLPsVDKkMaCO7fX3c,,,,,,,,,,,
,,,,,,,,,,,,,,a,1,1.46207,space,0.95086,0,165,165,184,1,0_targ_16_dist_red/trial10.png,,,0,16,redHorizontal,a,24,25,Male,2021-02-19_12h22.03.290,exp11,2020.2.6,MacIntel,60,IwAR0hkvJJfxNT5N4ovJsgwvEkF3m95afrXr5DqkyR0guLPsVDKkMaCO7fX3c,,,,,,,,,,,
,,,,,,,,,,,,,,p,1,0.817375,space,0.79684,0,166,166,35,1,3_dist_red/trial11.png,,,1,3,redHorizontal,p,24,25,Male,2021-02-19_12h22.03.290,exp11,2020.2.6,MacIntel,60,IwAR0hkvJJfxNT5N4ovJsgwvEkF3m95afrXr5DqkyR0guLPsVDKkMaCO7fX3c,,,,,,,,,,,
,,,,,,,,,,,,,,p,1,0.66452,space,0.384605,0,167,167,5,1,0_dist_red/trial6.png,,,1,0,redHorizontal,p,24,25,Male,2021-02-19_12h22.03.290,exp11,2020.2.6,MacIntel,60,IwAR0hkvJJfxNT5N4ovJsgwvEkF3m95afrXr5DqkyR0guLPsVDKkMaCO7fX3c,,,,,,,,,,,
,,,,,,,,,,,,,,a,1,0.695765,space,0.47292,0,168,168,170,1,0_targ_10_dist_red/trial21.png,,,0,10,redHorizontal,a,24,25,Male,2021-02-19_12h22.03.290,exp11,2020.2.6,MacIntel,60,IwAR0hkvJJfxNT5N4ovJsgwvEkF3m95afrXr5DqkyR0guLPsVDKkMaCO7fX3c,,,,,,,,,,,
,,,,,,,,,,,,,,p,1,0.89906,space,0.401845,0,169,169,39,1,3_dist_red/trial15.png,,,1,3,redHorizontal,p,24,25,Male,2021-02-19_12h22.03.290,exp11,2020.2.6,MacIntel,60,IwAR0hkvJJfxNT5N4ovJsgwvEkF3m95afrXr5DqkyR0guLPsVDKkMaCO7fX3c,,,,,,,,,,,
,,,,,,,,,,,,,,p,1,0.88839,space,0.577265,0,170,170,53,1,9_dist_red/trial4.png,,,1,9,redHorizontal,p,24,25,Male,2021-02-19_12h22.03.290,exp11,2020.2.6,MacIntel,60,IwAR0hkvJJfxNT5N4ovJsgwvEkF3m95afrXr5DqkyR0guLPsVDKkMaCO7fX3c,,,,,,,,,,,
,,,,,,,,,,,,,,p,1,0.77702,space,0.36574,0,171,171,36,1,3_dist_red/trial12.png,,,1,3,redHorizontal,p,24,25,Male,2021-02-19_12h22.03.290,exp11,2020.2.6,MacIntel,60,IwAR0hkvJJfxNT5N4ovJsgwvEkF3m95afrXr5DqkyR0guLPsVDKkMaCO7fX3c,,,,,,,,,,,
,,,,,,,,,,,,,,a,1,1.00916,space,0.558435,0,172,172,108,1,0_targ_1_dist_red/trial9.png,,,0,1,redHorizontal,a,24,25,Male,2021-02-19_12h22.03.290,exp11,2020.2.6,MacIntel,60,IwAR0hkvJJfxNT5N4ovJsgwvEkF3m95afrXr5DqkyR0guLPsVDKkMaCO7fX3c,,,,,,,,,,,
,,,,,,,,,,,,,,a,1,0.717825,space,0.41903,0,173,173,107,1,0_targ_1_dist_red/trial8.png,,,0,1,redHorizontal,a,24,25,Male,2021-02-19_12h22.03.290,exp11,2020.2.6,MacIntel,60,IwAR0hkvJJfxNT5N4ovJsgwvEkF3m95afrXr5DqkyR0guLPsVDKkMaCO7fX3c,,,,,,,,,,,
,,,,,,,,,,,,,,a,1,1.12016,space,0.387825,0,174,174,121,1,0_targ_1_dist_red/trial22.png,,,0,1,redHorizontal,a,24,25,Male,2021-02-19_12h22.03.290,exp11,2020.2.6,MacIntel,60,IwAR0hkvJJfxNT5N4ovJsgwvEkF3m95afrXr5DqkyR0guLPsVDKkMaCO7fX3c,,,,,,,,,,,
,,,,,,,,,,,,,,p,1,1.004255,space,0.31624,0,175,175,24,1,0_dist_red/trial25.png,,,1,0,redHorizontal,p,24,25,Male,2021-02-19_12h22.03.290,exp11,2020.2.6,MacIntel,60,IwAR0hkvJJfxNT5N4ovJsgwvEkF3m95afrXr5DqkyR0guLPsVDKkMaCO7fX3c,,,,,,,,,,,
,,,,,,,,,,,,,,p,1,1.67311,space,0.355425,0,176,176,55,1,9_dist_red/trial6.png,,,1,9,redHorizontal,p,24,25,Male,2021-02-19_12h22.03.290,exp11,2020.2.6,MacIntel,60,IwAR0hkvJJfxNT5N4ovJsgwvEkF3m95afrXr5DqkyR0guLPsVDKkMaCO7fX3c,,,,,,,,,,,
,,,,,,,,,,,,,,a,1,0.810635,space,0.268525,0,177,177,139,1,0_targ_4_dist_red/trial15.png,,,0,4,redHorizontal,a,24,25,Male,2021-02-19_12h22.03.290,exp11,2020.2.6,MacIntel,60,IwAR0hkvJJfxNT5N4ovJsgwvEkF3m95afrXr5DqkyR0guLPsVDKkMaCO7fX3c,,,,,,,,,,,
,,,,,,,,,,,,,,p,1,0.978145,space,0.34157,0,178,178,29,1,3_dist_red/trial5.png,,,1,3,redHorizontal,p,24,25,Male,2021-02-19_12h22.03.290,exp11,2020.2.6,MacIntel,60,IwAR0hkvJJfxNT5N4ovJsgwvEkF3m95afrXr5DqkyR0guLPsVDKkMaCO7fX3c,,,,,,,,,,,
,,,,,,,,,,,,,,a,1,0.929105,space,0.30895,0,179,179,129,1,0_targ_4_dist_red/trial5.png,,,0,4,redHorizontal,a,24,25,Male,2021-02-19_12h22.03.290,exp11,2020.2.6,MacIntel,60,IwAR0hkvJJfxNT5N4ovJsgwvEkF3m95afrXr5DqkyR0guLPsVDKkMaCO7fX3c,,,,,,,,,,,
,,,,,,,,,,,,,,p,1,0.67009,space,0.25044,0,180,180,20,1,0_dist_red/trial21.png,,,1,0,redHorizontal,p,24,25,Male,2021-02-19_12h22.03.290,exp11,2020.2.6,MacIntel,60,IwAR0hkvJJfxNT5N4ovJsgwvEkF3m95afrXr5DqkyR0guLPsVDKkMaCO7fX3c,,,,,,,,,,,
,,,,,,,,,,,,,,p,1,1.197285,space,0.775205,0,181,181,69,1,9_dist_red/trial20.png,,,1,9,redHorizontal,p,24,25,Male,2021-02-19_12h22.03.290,exp11,2020.2.6,MacIntel,60,IwAR0hkvJJfxNT5N4ovJsgwvEkF3m95afrXr5DqkyR0guLPsVDKkMaCO7fX3c,,,,,,,,,,,
,,,,,,,,,,,,,,a,1,0.755045,space,0.43545,0,182,182,106,1,0_targ_1_dist_red/trial7.png,,,0,1,redHorizontal,a,24,25,Male,2021-02-19_12h22.03.290,exp11,2020.2.6,MacIntel,60,IwAR0hkvJJfxNT5N4ovJsgwvEkF3m95afrXr5DqkyR0guLPsVDKkMaCO7fX3c,,,,,,,,,,,
,,,,,,,,,,,,,,p,1,0.52687,space,0.48511,0,183,183,14,1,0_dist_red/trial15.png,,,1,0,redHorizontal,p,24,25,Male,2021-02-19_12h22.03.290,exp11,2020.2.6,MacIntel,60,IwAR0hkvJJfxNT5N4ovJsgwvEkF3m95afrXr5DqkyR0guLPsVDKkMaCO7fX3c,,,,,,,,,,,
,,,,,,,,,,,,,,p,1,2.343535,space,0.342785,0,184,184,98,1,15_dist_red/trial24.png,,,1,15,redHorizontal,p,24,25,Male,2021-02-19_12h22.03.290,exp11,2020.2.6,MacIntel,60,IwAR0hkvJJfxNT5N4ovJsgwvEkF3m95afrXr5DqkyR0guLPsVDKkMaCO7fX3c,,,,,,,,,,,
,,,,,,,,,,,,,,p,1,0.61049,space,0.20789,0,185,185,21,1,0_dist_red/trial22.png,,,1,0,redHorizontal,p,24,25,Male,2021-02-19_12h22.03.290,exp11,2020.2.6,MacIntel,60,IwAR0hkvJJfxNT5N4ovJsgwvEkF3m95afrXr5DqkyR0guLPsVDKkMaCO7fX3c,,,,,,,,,,,
,,,,,,,,,,,,,,a,1,0.65226,space,0.17698,0,186,186,111,1,0_targ_1_dist_red/trial12.png,,,0,1,redHorizontal,a,24,25,Male,2021-02-19_12h22.03.290,exp11,2020.2.6,MacIntel,60,IwAR0hkvJJfxNT5N4ovJsgwvEkF3m95afrXr5DqkyR0guLPsVDKkMaCO7fX3c,,,,,,,,,,,
,,,,,,,,,,,,,,p,1,1.02582,space,0.184875,0,187,187,96,1,15_dist_red/trial22.png,,,1,15,redHorizontal,p,24,25,Male,2021-02-19_12h22.03.290,exp11,2020.2.6,MacIntel,60,IwAR0hkvJJfxNT5N4ovJsgwvEkF3m95afrXr5DqkyR0guLPsVDKkMaCO7fX3c,,,,,,,,,,,
,,,,,,,,,,,,,,a,1,0.835605,space,0.200695,0,188,188,144,1,0_targ_4_dist_red/trial20.png,,,0,4,redHorizontal,a,24,25,Male,2021-02-19_12h22.03.290,exp11,2020.2.6,MacIntel,60,IwAR0hkvJJfxNT5N4ovJsgwvEkF3m95afrXr5DqkyR0guLPsVDKkMaCO7fX3c,,,,,,,,,,,
,,,,,,,,,,,,,,p,1,1.01903,space,0.21944,0,189,189,97,1,15_dist_red/trial23.png,,,1,15,redHorizontal,p,24,25,Male,2021-02-19_12h22.03.290,exp11,2020.2.6,MacIntel,60,IwAR0hkvJJfxNT5N4ovJsgwvEkF3m95afrXr5DqkyR0guLPsVDKkMaCO7fX3c,,,,,,,,,,,
,,,,,,,,,,,,,,p,1,1.400745,space,0.19208,0,190,190,34,1,3_dist_red/trial10.png,,,1,3,redHorizontal,p,24,25,Male,2021-02-19_12h22.03.290,exp11,2020.2.6,MacIntel,60,IwAR0hkvJJfxNT5N4ovJsgwvEkF3m95afrXr5DqkyR0guLPsVDKkMaCO7fX3c,,,,,,,,,,,
,,,,,,,,,,,,,,a,1,0.85171,space,0.888415,0,191,191,148,1,0_targ_4_dist_red/trial24.png,,,0,4,redHorizontal,a,24,25,Male,2021-02-19_12h22.03.290,exp11,2020.2.6,MacIntel,60,IwAR0hkvJJfxNT5N4ovJsgwvEkF3m95afrXr5DqkyR0guLPsVDKkMaCO7fX3c,,,,,,,,,,,
,,,,,,,,,,,,,,p,1,0.88809,space,0.33541,0,192,192,74,1,9_dist_red/trial25.png,,,1,9,redHorizontal,p,24,25,Male,2021-02-19_12h22.03.290,exp11,2020.2.6,MacIntel,60,IwAR0hkvJJfxNT5N4ovJsgwvEkF3m95afrXr5DqkyR0guLPsVDKkMaCO7fX3c,,,,,,,,,,,
,,,,,,,,,,,,,,p,1,0.903105,space,0.262635,0,193,193,94,1,15_dist_red/trial20.png,,,1,15,redHorizontal,p,24,25,Male,2021-02-19_12h22.03.290,exp11,2020.2.6,MacIntel,60,IwAR0hkvJJfxNT5N4ovJsgwvEkF3m95afrXr5DqkyR0guLPsVDKkMaCO7fX3c,,,,,,,,,,,
,,,,,,,,,,,,,,a,1,0.71968,space,0.243615,0,194,194,140,1,0_targ_4_dist_red/trial6.png,,,0,4,redHorizontal,a,24,25,Male,2021-02-19_12h22.03.290,exp11,2020.2.6,MacIntel,60,IwAR0hkvJJfxNT5N4ovJsgwvEkF3m95afrXr5DqkyR0guLPsVDKkMaCO7fX3c,,,,,,,,,,,
,,,,,,,,,,,,,,p,1,0.536215,space,0.226285,0,195,195,16,1,0_dist_red/trial17.png,,,1,0,redHorizontal,p,24,25,Male,2021-02-19_12h22.03.290,exp11,2020.2.6,MacIntel,60,IwAR0hkvJJfxNT5N4ovJsgwvEkF3m95afrXr5DqkyR0guLPsVDKkMaCO7fX3c,,,,,,,,,,,
,,,,,,,,,,,,,,a,1,0.688715,space,0.25261,0,196,196,165,1,0_targ_10_dist_red/trial16.png,,,0,10,redHorizontal,a,24,25,Male,2021-02-19_12h22.03.290,exp11,2020.2.6,MacIntel,60,IwAR0hkvJJfxNT5N4ovJsgwvEkF3m95afrXr5DqkyR0guLPsVDKkMaCO7fX3c,,,,,,,,,,,
,,,,,,,,,,,,,,p,1,0.73562,space,0.20906,0,197,197,52,1,9_dist_red/trial3.png,,,1,9,redHorizontal,p,24,25,Male,2021-02-19_12h22.03.290,exp11,2020.2.6,MacIntel,60,IwAR0hkvJJfxNT5N4ovJsgwvEkF3m95afrXr5DqkyR0guLPsVDKkMaCO7fX3c,,,,,,,,,,,
,,,,,,,,,,,,,,a,1,0.738465,space,0.293705,0,198,198,164,1,0_targ_10_dist_red/trial15.png,,,0,10,redHorizontal,a,24,25,Male,2021-02-19_12h22.03.290,exp11,2020.2.6,MacIntel,60,IwAR0hkvJJfxNT5N4ovJsgwvEkF3m95afrXr5DqkyR0guLPsVDKkMaCO7fX3c,,,,,,,,,,,
,,,,,,,,,,,,,,a,1,0.75452,space,0.167165,0,199,199,193,1,0_targ_16_dist_red/trial19.png,,,0,16,redHorizontal,a,24,25,Male,2021-02-19_12h22.03.290,exp11,2020.2.6,MacIntel,60,IwAR0hkvJJfxNT5N4ovJsgwvEkF3m95afrXr5DqkyR0guLPsVDKkMaCO7fX3c,,,,,,,,,,,
,,,,,,,,,,,,,,,,,,,,,,,,,,,,,,,24,25,Male,2021-02-19_12h22.03.290,exp11,2020.2.6,MacIntel,60,IwAR0hkvJJfxNT5N4ovJsgwvEkF3m95afrXr5DqkyR0guLPsVDKkMaCO7fX3c,0,0,0,1,1,conRed.xlsx,red horizontal,Look for red horizontal bar (target) and indicate if it is present or absent in the array. If red horizontal target is present press 'p' and if absent press 'a'. Press SPACE to start.,,,
,,,,,,,,,,space,13.781075,space,1.981505,p,1,0.70066,space,1.342745,0,0,0,93,1,15_dist_green/trial19.png,,,1,15,greenverival,p,24,25,Male,2021-02-19_12h22.03.290,exp11,2020.2.6,MacIntel,60,IwAR0hkvJJfxNT5N4ovJsgwvEkF3m95afrXr5DqkyR0guLPsVDKkMaCO7fX3c,,,,,,,,,,,
,,,,,,,,,,,,,,a,1,0.854335,space,0.418005,0,1,1,167,1,0_targ_10_dist_green/trial18.png,,,0,10,greenverival,a,24,25,Male,2021-02-19_12h22.03.290,exp11,2020.2.6,MacIntel,60,IwAR0hkvJJfxNT5N4ovJsgwvEkF3m95afrXr5DqkyR0guLPsVDKkMaCO7fX3c,,,,,,,,,,,
,,,,,,,,,,,,,,p,1,1.718565,space,0.28487,0,2,2,77,1,15_dist_green/trial3.png,,,1,15,greenverival,p,24,25,Male,2021-02-19_12h22.03.290,exp11,2020.2.6,MacIntel,60,IwAR0hkvJJfxNT5N4ovJsgwvEkF3m95afrXr5DqkyR0guLPsVDKkMaCO7fX3c,,,,,,,,,,,
,,,,,,,,,,,,,,a,1,0.869255,space,0.29914,0,3,3,148,1,0_targ_4_dist_green/trial24.png,,,0,4,greenverival,a,24,25,Male,2021-02-19_12h22.03.290,exp11,2020.2.6,MacIntel,60,IwAR0hkvJJfxNT5N4ovJsgwvEkF3m95afrXr5DqkyR0guLPsVDKkMaCO7fX3c,,,,,,,,,,,
,,,,,,,,,,,,,,p,1,0.76244,space,0.220655,0,4,4,81,1,15_dist_green/trial7.png,,,1,15,greenverival,p,24,25,Male,2021-02-19_12h22.03.290,exp11,2020.2.6,MacIntel,60,IwAR0hkvJJfxNT5N4ovJsgwvEkF3m95afrXr5DqkyR0guLPsVDKkMaCO7fX3c,,,,,,,,,,,
,,,,,,,,,,,,,,a,1,1.061535,space,0.39364,0,5,5,179,1,0_targ_16_dist_green/trial5.png,,,0,16,greenverival,a,24,25,Male,2021-02-19_12h22.03.290,exp11,2020.2.6,MacIntel,60,IwAR0hkvJJfxNT5N4ovJsgwvEkF3m95afrXr5DqkyR0guLPsVDKkMaCO7fX3c,,,,,,,,,,,
,,,,,,,,,,,,,,a,1,0.855805,space,0.20737,0,6,6,178,1,0_targ_16_dist_green/trial4.png,,,0,16,greenverival,a,24,25,Male,2021-02-19_12h22.03.290,exp11,2020.2.6,MacIntel,60,IwAR0hkvJJfxNT5N4ovJsgwvEkF3m95afrXr5DqkyR0guLPsVDKkMaCO7fX3c,,,,,,,,,,,
,,,,,,,,,,,,,,a,1,1.00927,space,0.257615,0,7,7,183,1,0_targ_16_dist_green/trial9.png,,,0,16,greenverival,a,24,25,Male,2021-02-19_12h22.03.290,exp11,2020.2.6,MacIntel,60,IwAR0hkvJJfxNT5N4ovJsgwvEkF3m95afrXr5DqkyR0guLPsVDKkMaCO7fX3c,,,,,,,,,,,
,,,,,,,,,,,,,,a,0,0.660275,space,3.293045,0,8,8,76,1,15_dist_green/trial2.png,,,1,15,greenverival,p,24,25,Male,2021-02-19_12h22.03.290,exp11,2020.2.6,MacIntel,60,IwAR0hkvJJfxNT5N4ovJsgwvEkF3m95afrXr5DqkyR0guLPsVDKkMaCO7fX3c,,,,,,,,,,,
,,,,,,,,,,,,,,p,1,2.50136,space,0.54844,0,9,9,86,1,15_dist_green/trial12.png,,,1,15,greenverival,p,24,25,Male,2021-02-19_12h22.03.290,exp11,2020.2.6,MacIntel,60,IwAR0hkvJJfxNT5N4ovJsgwvEkF3m95afrXr5DqkyR0guLPsVDKkMaCO7fX3c,,,,,,,,,,,
,,,,,,,,,,,,,,p,1,0.646355,space,0.21708,0,10,10,57,1,9_dist_green/trial8.png,,,1,9,greenverival,p,24,25,Male,2021-02-19_12h22.03.290,exp11,2020.2.6,MacIntel,60,IwAR0hkvJJfxNT5N4ovJsgwvEkF3m95afrXr5DqkyR0guLPsVDKkMaCO7fX3c,,,,,,,,,,,
,,,,,,,,,,,,,,a,1,0.95559,space,0.30037,0,11,11,192,1,0_targ_16_dist_green/trial18.png,,,0,16,greenverival,a,24,25,Male,2021-02-19_12h22.03.290,exp11,2020.2.6,MacIntel,60,IwAR0hkvJJfxNT5N4ovJsgwvEkF3m95afrXr5DqkyR0guLPsVDKkMaCO7fX3c,,,,,,,,,,,
,,,,,,,,,,,,,,p,1,1.19419,space,0.283305,0,12,12,99,1,15_dist_green/trial25.png,,,1,15,greenverival,p,24,25,Male,2021-02-19_12h22.03.290,exp11,2020.2.6,MacIntel,60,IwAR0hkvJJfxNT5N4ovJsgwvEkF3m95afrXr5DqkyR0guLPsVDKkMaCO7fX3c,,,,,,,,,,,
,,,,,,,,,,,,,,a,1,1.16673,space,0.43496,0,13,13,188,1,0_targ_16_dist_green/trial14.png,,,0,16,greenverival,a,24,25,Male,2021-02-19_12h22.03.290,exp11,2020.2.6,MacIntel,60,IwAR0hkvJJfxNT5N4ovJsgwvEkF3m95afrXr5DqkyR0guLPsVDKkMaCO7fX3c,,,,,,,,,,,
,,,,,,,,,,,,,,a,1,0.634895,space,0.31302,0,14,14,136,1,0_targ_4_dist_green/trial12.png,,,0,4,greenverival,a,24,25,Male,2021-02-19_12h22.03.290,exp11,2020.2.6,MacIntel,60,IwAR0hkvJJfxNT5N4ovJsgwvEkF3m95afrXr5DqkyR0guLPsVDKkMaCO7fX3c,,,,,,,,,,,
,,,,,,,,,,,,,,a,1,0.685845,space,0.28558,0,15,15,161,1,0_targ_10_dist_green/trial12.png,,,0,10,greenverival,a,24,25,Male,2021-02-19_12h22.03.290,exp11,2020.2.6,MacIntel,60,IwAR0hkvJJfxNT5N4ovJsgwvEkF3m95afrXr5DqkyR0guLPsVDKkMaCO7fX3c,,,,,,,,,,,
,,,,,,,,,,,,,,a,1,0.691405,space,0.28548,0,16,16,185,1,0_targ_16_dist_green/trial11.png,,,0,16,greenverival,a,24,25,Male,2021-02-19_12h22.03.290,exp11,2020.2.6,MacIntel,60,IwAR0hkvJJfxNT5N4ovJsgwvEkF3m95afrXr5DqkyR0guLPsVDKkMaCO7fX3c,,,,,,,,,,,
,,,,,,,,,,,,,,p,1,0.949705,space,0.24558,0,17,17,25,1,3_dist_green/trial1.png,,,1,3,greenverival,p,24,25,Male,2021-02-19_12h22.03.290,exp11,2020.2.6,MacIntel,60,IwAR0hkvJJfxNT5N4ovJsgwvEkF3m95afrXr5DqkyR0guLPsVDKkMaCO7fX3c,,,,,,,,,,,
,,,,,,,,,,,,,,p,1,0.58484,space,0.190865,0,18,18,2,1,0_dist_green/trial3.png,,,1,0,greenverival,p,24,25,Male,2021-02-19_12h22.03.290,exp11,2020.2.6,MacIntel,60,IwAR0hkvJJfxNT5N4ovJsgwvEkF3m95afrXr5DqkyR0guLPsVDKkMaCO7fX3c,,,,,,,,,,,
,,,,,,,,,,,,,,a,1,0.6205,space,0.234775,0,19,19,110,1,0_targ_1_dist_green/trial11.png,,,0,1,greenverival,a,24,25,Male,2021-02-19_12h22.03.290,exp11,2020.2.6,MacIntel,60,IwAR0hkvJJfxNT5N4ovJsgwvEkF3m95afrXr5DqkyR0guLPsVDKkMaCO7fX3c,,,,,,,,,,,
,,,,,,,,,,,,,,p,1,0.707715,space,0.251705,0,20,20,97,1,15_dist_green/trial23.png,,,1,15,greenverival,p,24,25,Male,2021-02-19_12h22.03.290,exp11,2020.2.6,MacIntel,60,IwAR0hkvJJfxNT5N4ovJsgwvEkF3m95afrXr5DqkyR0guLPsVDKkMaCO7fX3c,,,,,,,,,,,
,,,,,,,,,,,,,,p,1,0.691645,space,0.200835,0,21,21,46,1,3_dist_green/trial22.png,,,1,3,greenverival,p,24,25,Male,2021-02-19_12h22.03.290,exp11,2020.2.6,MacIntel,60,IwAR0hkvJJfxNT5N4ovJsgwvEkF3m95afrXr5DqkyR0guLPsVDKkMaCO7fX3c,,,,,,,,,,,
,,,,,,,,,,,,,,p,1,0.519345,space,0.27651,0,22,22,23,1,0_dist_green/trial24.png,,,1,0,greenverival,p,24,25,Male,2021-02-19_12h22.03.290,exp11,2020.2.6,MacIntel,60,IwAR0hkvJJfxNT5N4ovJsgwvEkF3m95afrXr5DqkyR0guLPsVDKkMaCO7fX3c,,,,,,,,,,,
,,,,,,,,,,,,,,p,1,1.051415,space,0.2019,0,23,23,95,1,15_dist_green/trial21.png,,,1,15,greenverival,p,24,25,Male,2021-02-19_12h22.03.290,exp11,2020.2.6,MacIntel,60,IwAR0hkvJJfxNT5N4ovJsgwvEkF3m95afrXr5DqkyR0guLPsVDKkMaCO7fX3c,,,,,,,,,,,
,,,,,,,,,,,,,,a,1,0.73916,space,0.32686,0,24,24,156,1,0_targ_10_dist_green/trial7.png,,,0,10,greenverival,a,24,25,Male,2021-02-19_12h22.03.290,exp11,2020.2.6,MacIntel,60,IwAR0hkvJJfxNT5N4ovJsgwvEkF3m95afrXr5DqkyR0guLPsVDKkMaCO7fX3c,,,,,,,,,,,
,,,,,,,,,,,,,,p,1,0.85941,space,0.26287,0,25,25,91,1,15_dist_green/trial17.png,,,1,15,greenverival,p,24,25,Male,2021-02-19_12h22.03.290,exp11,2020.2.6,MacIntel,60,IwAR0hkvJJfxNT5N4ovJsgwvEkF3m95afrXr5DqkyR0guLPsVDKkMaCO7fX3c,,,,,,,,,,,
,,,,,,,,,,,,,,a,1,0.862825,space,0.57079,0,26,26,118,1,0_targ_1_dist_green/trial19.png,,,0,1,greenverival,a,24,25,Male,2021-02-19_12h22.03.290,exp11,2020.2.6,MacIntel,60,IwAR0hkvJJfxNT5N4ovJsgwvEkF3m95afrXr5DqkyR0guLPsVDKkMaCO7fX3c,,,,,,,,,,,
,,,,,,,,,,,,,,a,1,2.09036,space,0.434285,0,27,27,170,1,0_targ_10_dist_green/trial21.png,,,0,10,greenverival,a,24,25,Male,2021-02-19_12h22.03.290,exp11,2020.2.6,MacIntel,60,IwAR0hkvJJfxNT5N4ovJsgwvEkF3m95afrXr5DqkyR0guLPsVDKkMaCO7fX3c,,,,,,,,,,,
,,,,,,,,,,,,,,a,1,0.693405,space,0.565255,0,28,28,141,1,0_targ_4_dist_green/trial17.png,,,0,4,greenverival,a,24,25,Male,2021-02-19_12h22.03.290,exp11,2020.2.6,MacIntel,60,IwAR0hkvJJfxNT5N4ovJsgwvEkF3m95afrXr5DqkyR0guLPsVDKkMaCO7fX3c,,,,,,,,,,,
,,,,,,,,,,,,,,a,1,0.95343,space,0.359015,0,29,29,159,1,0_targ_10_dist_green/trial10.png,,,0,10,greenverival,a,24,25,Male,2021-02-19_12h22.03.290,exp11,2020.2.6,MacIntel,60,IwAR0hkvJJfxNT5N4ovJsgwvEkF3m95afrXr5DqkyR0guLPsVDKkMaCO7fX3c,,,,,,,,,,,
,,,,,,,,,,,,,,a,1,0.551245,space,0.333235,0,30,30,105,1,0_targ_1_dist_green/trial6.png,,,0,1,greenverival,a,24,25,Male,2021-02-19_12h22.03.290,exp11,2020.2.6,MacIntel,60,IwAR0hkvJJfxNT5N4ovJsgwvEkF3m95afrXr5DqkyR0guLPsVDKkMaCO7fX3c,,,,,,,,,,,
,,,,,,,,,,,,,,a,1,0.490895,space,0.38934,0,31,31,132,1,0_targ_4_dist_green/trial8.png,,,0,4,greenverival,a,24,25,Male,2021-02-19_12h22.03.290,exp11,2020.2.6,MacIntel,60,IwAR0hkvJJfxNT5N4ovJsgwvEkF3m95afrXr5DqkyR0guLPsVDKkMaCO7fX3c,,,,,,,,,,,
,,,,,,,,,,,,,,p,1,0.743975,space,0.41896,0,32,32,34,1,3_dist_green/trial10.png,,,1,3,greenverival,p,24,25,Male,2021-02-19_12h22.03.290,exp11,2020.2.6,MacIntel,60,IwAR0hkvJJfxNT5N4ovJsgwvEkF3m95afrXr5DqkyR0guLPsVDKkMaCO7fX3c,,,,,,,,,,,
,,,,,,,,,,,,,,a,1,0.950145,space,0.28486,0,33,33,101,1,0_targ_1_dist_green/trial2.png,,,0,1,greenverival,a,24,25,Male,2021-02-19_12h22.03.290,exp11,2020.2.6,MacIntel,60,IwAR0hkvJJfxNT5N4ovJsgwvEkF3m95afrXr5DqkyR0guLPsVDKkMaCO7fX3c,,,,,,,,,,,
,,,,,,,,,,,,,,p,1,0.59275,space,0.28797,0,34,34,12,1,0_dist_green/trial13.png,,,1,0,greenverival,p,24,25,Male,2021-02-19_12h22.03.290,exp11,2020.2.6,MacIntel,60,IwAR0hkvJJfxNT5N4ovJsgwvEkF3m95afrXr5DqkyR0guLPsVDKkMaCO7fX3c,,,,,,,,,,,
,,,,,,,,,,,,,,p,1,0.703575,space,0.235745,0,35,35,21,1,0_dist_green/trial22.png,,,1,0,greenverival,p,24,25,Male,2021-02-19_12h22.03.290,exp11,2020.2.6,MacIntel,60,IwAR0hkvJJfxNT5N4ovJsgwvEkF3m95afrXr5DqkyR0guLPsVDKkMaCO7fX3c,,,,,,,,,,,
,,,,,,,,,,,,,,p,1,1.00881,space,0.30043,0,36,36,39,1,3_dist_green/trial15.png,,,1,3,greenverival,p,24,25,Male,2021-02-19_12h22.03.290,exp11,2020.2.6,MacIntel,60,IwAR0hkvJJfxNT5N4ovJsgwvEkF3m95afrXr5DqkyR0guLPsVDKkMaCO7fX3c,,,,,,,,,,,
,,,,,,,,,,,,,,a,1,0.842725,space,0.23459,0,37,37,171,1,0_targ_10_dist_green/trial22.png,,,0,10,greenverival,a,24,25,Male,2021-02-19_12h22.03.290,exp11,2020.2.6,MacIntel,60,IwAR0hkvJJfxNT5N4ovJsgwvEkF3m95afrXr5DqkyR0guLPsVDKkMaCO7fX3c,,,,,,,,,,,
,,,,,,,,,,,,,,p,1,0.647775,space,0.25048,0,38,38,75,1,15_dist_green/trial1.png,,,1,15,greenverival,p,24,25,Male,2021-02-19_12h22.03.290,exp11,2020.2.6,MacIntel,60,IwAR0hkvJJfxNT5N4ovJsgwvEkF3m95afrXr5DqkyR0guLPsVDKkMaCO7fX3c,,,,,,,,,,,
,,,,,,,,,,,,,,a,1,0.834405,space,0.368785,0,39,39,174,1,0_targ_10_dist_green/trial25.png,,,0,10,greenverival,a,24,25,Male,2021-02-19_12h22.03.290,exp11,2020.2.6,MacIntel,60,IwAR0hkvJJfxNT5N4ovJsgwvEkF3m95afrXr5DqkyR0guLPsVDKkMaCO7fX3c,,,,,,,,,,,
,,,,,,,,,,,,,,p,0,0.574605,space,0.99999,0,40,40,121,1,0_targ_1_dist_green/trial22.png,,,0,1,greenverival,a,24,25,Male,2021-02-19_12h22.03.290,exp11,2020.2.6,MacIntel,60,IwAR0hkvJJfxNT5N4ovJsgwvEkF3m95afrXr5DqkyR0guLPsVDKkMaCO7fX3c,,,,,,,,,,,
,,,,,,,,,,,,,,a,1,1.567715,space,0.383655,0,41,41,153,1,0_targ_10_dist_green/trial4.png,,,0,10,greenverival,a,24,25,Male,2021-02-19_12h22.03.290,exp11,2020.2.6,MacIntel,60,IwAR0hkvJJfxNT5N4ovJsgwvEkF3m95afrXr5DqkyR0guLPsVDKkMaCO7fX3c,,,,,,,,,,,
,,,,,,,,,,,,,,a,1,0.72775,space,0.35841,0,42,42,124,1,0_targ_1_dist_green/trial25.png,,,0,1,greenverival,a,24,25,Male,2021-02-19_12h22.03.290,exp11,2020.2.6,MacIntel,60,IwAR0hkvJJfxNT5N4ovJsgwvEkF3m95afrXr5DqkyR0guLPsVDKkMaCO7fX3c,,,,,,,,,,,
,,,,,,,,,,,,,,a,1,0.863215,space,0.292005,0,43,43,158,1,0_targ_10_dist_green/trial9.png,,,0,10,greenverival,a,24,25,Male,2021-02-19_12h22.03.290,exp11,2020.2.6,MacIntel,60,IwAR0hkvJJfxNT5N4ovJsgwvEkF3m95afrXr5DqkyR0guLPsVDKkMaCO7fX3c,,,,,,,,,,,
,,,,,,,,,,,,,,p,1,0.55698,space,0.247225,0,44,44,6,1,0_dist_green/trial7.png,,,1,0,greenverival,p,24,25,Male,2021-02-19_12h22.03.290,exp11,2020.2.6,MacIntel,60,IwAR0hkvJJfxNT5N4ovJsgwvEkF3m95afrXr5DqkyR0guLPsVDKkMaCO7fX3c,,,,,,,,,,,
,,,,,,,,,,,,,,p,1,0.59981,space,0.21653,0,45,45,58,1,9_dist_green/trial9.png,,,1,9,greenverival,p,24,25,Male,2021-02-19_12h22.03.290,exp11,2020.2.6,MacIntel,60,IwAR0hkvJJfxNT5N4ovJsgwvEkF3m95afrXr5DqkyR0guLPsVDKkMaCO7fX3c,,,,,,,,,,,
,,,,,,,,,,,,,,a,1,1.059075,space,0.29291,0,46,46,155,1,0_targ_10_dist_green/trial6.png,,,0,10,greenverival,a,24,25,Male,2021-02-19_12h22.03.290,exp11,2020.2.6,MacIntel,60,IwAR0hkvJJfxNT5N4ovJsgwvEkF3m95afrXr5DqkyR0guLPsVDKkMaCO7fX3c,,,,,,,,,,,
,,,,,,,,,,,,,,a,1,0.73965,space,0.249415,0,47,47,176,1,0_targ_16_dist_green/trial2.png,,,0,16,greenverival,a,24,25,Male,2021-02-19_12h22.03.290,exp11,2020.2.6,MacIntel,60,IwAR0hkvJJfxNT5N4ovJsgwvEkF3m95afrXr5DqkyR0guLPsVDKkMaCO7fX3c,,,,,,,,,,,
,,,,,,,,,,,,,,a,1,0.75829,space,0.30077,0,48,48,177,1,0_targ_16_dist_green/trial3.png,,,0,16,greenverival,a,24,25,Male,2021-02-19_12h22.03.290,exp11,2020.2.6,MacIntel,60,IwAR0hkvJJfxNT5N4ovJsgwvEkF3m95afrXr5DqkyR0guLPsVDKkMaCO7fX3c,,,,,,,,,,,
,,,,,,,,,,,,,,p,1,0.727665,space,0.449885,0,49,49,38,1,3_dist_green/trial14.png,,,1,3,greenverival,p,24,25,Male,2021-02-19_12h22.03.290,exp11,2020.2.6,MacIntel,60,IwAR0hkvJJfxNT5N4ovJsgwvEkF3m95afrXr5DqkyR0guLPsVDKkMaCO7fX3c,,,,,,,,,,,
,,,,,,,,,,,,,,p,1,0.76931,space,0.293835,0,50,50,68,1,9_dist_green/trial19.png,,,1,9,greenverival,p,24,25,Male,2021-02-19_12h22.03.290,exp11,2020.2.6,MacIntel,60,IwAR0hkvJJfxNT5N4ovJsgwvEkF3m95afrXr5DqkyR0guLPsVDKkMaCO7fX3c,,,,,,,,,,,
,,,,,,,,,,,,,,a,1,0.67698,space,0.35659,0,51,51,149,1,0_targ_4_dist_green/trial25.png,,,0,4,greenverival,a,24,25,Male,2021-02-19_12h22.03.290,exp11,2020.2.6,MacIntel,60,IwAR0hkvJJfxNT5N4ovJsgwvEkF3m95afrXr5DqkyR0guLPsVDKkMaCO7fX3c,,,,,,,,,,,
,,,,,,,,,,,,,,a,1,0.72551,space,0.31637,0,52,52,109,1,0_targ_1_dist_green/trial10.png,,,0,1,greenverival,a,24,25,Male,2021-02-19_12h22.03.290,exp11,2020.2.6,MacIntel,60,IwAR0hkvJJfxNT5N4ovJsgwvEkF3m95afrXr5DqkyR0guLPsVDKkMaCO7fX3c,,,,,,,,,,,
,,,,,,,,,,,,,,a,1,0.567215,space,0.376985,0,53,53,140,1,0_targ_4_dist_green/trial6.png,,,0,4,greenverival,a,24,25,Male,2021-02-19_12h22.03.290,exp11,2020.2.6,MacIntel,60,IwAR0hkvJJfxNT5N4ovJsgwvEkF3m95afrXr5DqkyR0guLPsVDKkMaCO7fX3c,,,,,,,,,,,
,,,,,,,,,,,,,,p,1,0.692485,space,0.35164,0,54,54,42,1,3_dist_green/trial18.png,,,1,3,greenverival,p,24,25,Male,2021-02-19_12h22.03.290,exp11,2020.2.6,MacIntel,60,IwAR0hkvJJfxNT5N4ovJsgwvEkF3m95afrXr5DqkyR0guLPsVDKkMaCO7fX3c,,,,,,,,,,,
,,,,,,,,,,,,,,a,1,0.665195,space,0.391385,0,55,55,125,1,0_targ_4_dist_green/trial1.png,,,0,4,greenverival,a,24,25,Male,2021-02-19_12h22.03.290,exp11,2020.2.6,MacIntel,60,IwAR0hkvJJfxNT5N4ovJsgwvEkF3m95afrXr5DqkyR0guLPsVDKkMaCO7fX3c,,,,,,,,,,,
,,,,,,,,,,,,,,a,1,1.209585,space,0.50746,0,56,56,157,1,0_targ_10_dist_green/trial8.png,,,0,10,greenverival,a,24,25,Male,2021-02-19_12h22.03.290,exp11,2020.2.6,MacIntel,60,IwAR0hkvJJfxNT5N4ovJsgwvEkF3m95afrXr5DqkyR0guLPsVDKkMaCO7fX3c,,,,,,,,,,,
,,,,,,,,,,,,,,a,1,0.62204,space,0.39256,0,57,57,165,1,0_targ_10_dist_green/trial16.png,,,0,10,greenverival,a,24,25,Male,2021-02-19_12h22.03.290,exp11,2020.2.6,MacIntel,60,IwAR0hkvJJfxNT5N4ovJsgwvEkF3m95afrXr5DqkyR0guLPsVDKkMaCO7fX3c,,,,,,,,,,,
,,,,,,,,,,,,,,p,1,0.675215,space,0.39273,0,58,58,41,1,3_dist_green/trial17.png,,,1,3,greenverival,p,24,25,Male,2021-02-19_12h22.03.290,exp11,2020.2.6,MacIntel,60,IwAR0hkvJJfxNT5N4ovJsgwvEkF3m95afrXr5DqkyR0guLPsVDKkMaCO7fX3c,,,,,,,,,,,
,,,,,,,,,,,,,,p,1,0.769845,space,0.28021,0,59,59,48,1,3_dist_green/trial24.png,,,1,3,greenverival,p,24,25,Male,2021-02-19_12h22.03.290,exp11,2020.2.6,MacIntel,60,IwAR0hkvJJfxNT5N4ovJsgwvEkF3m95afrXr5DqkyR0guLPsVDKkMaCO7fX3c,,,,,,,,,,,
,,,,,,,,,,,,,,a,1,0.98913,space,0.318415,0,60,60,197,1,0_targ_16_dist_green/trial23.png,,,0,16,greenverival,a,24,25,Male,2021-02-19_12h22.03.290,exp11,2020.2.6,MacIntel,60,IwAR0hkvJJfxNT5N4ovJsgwvEkF3m95afrXr5DqkyR0guLPsVDKkMaCO7fX3c,,,,,,,,,,,
,,,,,,,,,,,,,,a,1,0.772915,space,0.61044,0,61,61,119,1,0_targ_1_dist_green/trial20.png,,,0,1,greenverival,a,24,25,Male,2021-02-19_12h22.03.290,exp11,2020.2.6,MacIntel,60,IwAR0hkvJJfxNT5N4ovJsgwvEkF3m95afrXr5DqkyR0guLPsVDKkMaCO7fX3c,,,,,,,,,,,
,,,,,,,,,,,,,,p,1,0.693065,space,0.3167,0,62,62,60,1,9_dist_green/trial11.png,,,1,9,greenverival,p,24,25,Male,2021-02-19_12h22.03.290,exp11,2020.2.6,MacIntel,60,IwAR0hkvJJfxNT5N4ovJsgwvEkF3m95afrXr5DqkyR0guLPsVDKkMaCO7fX3c,,,,,,,,,,,
,,,,,,,,,,,,,,p,1,0.62184,space,0.24771,0,63,63,64,1,9_dist_green/trial15.png,,,1,9,greenverival,p,24,25,Male,2021-02-19_12h22.03.290,exp11,2020.2.6,MacIntel,60,IwAR0hkvJJfxNT5N4ovJsgwvEkF3m95afrXr5DqkyR0guLPsVDKkMaCO7fX3c,,,,,,,,,,,
,,,,,,,,,,,,,,p,1,0.615375,space,0.27924,0,64,64,44,1,3_dist_green/trial20.png,,,1,3,greenverival,p,24,25,Male,2021-02-19_12h22.03.290,exp11,2020.2.6,MacIntel,60,IwAR0hkvJJfxNT5N4ovJsgwvEkF3m95afrXr5DqkyR0guLPsVDKkMaCO7fX3c,,,,,,,,,,,
,,,,,,,,,,,,,,a,1,0.704055,space,0.280105,0,65,65,199,1,0_targ_16_dist_green/trial25.png,,,0,16,greenverival,a,24,25,Male,2021-02-19_12h22.03.290,exp11,2020.2.6,MacIntel,60,IwAR0hkvJJfxNT5N4ovJsgwvEkF3m95afrXr5DqkyR0guLPsVDKkMaCO7fX3c,,,,,,,,,,,
,,,,,,,,,,,,,,p,1,0.75681,space,0.366535,0,66,66,8,1,0_dist_green/trial9.png,,,1,0,greenverival,p,24,25,Male,2021-02-19_12h22.03.290,exp11,2020.2.6,MacIntel,60,IwAR0hkvJJfxNT5N4ovJsgwvEkF3m95afrXr5DqkyR0guLPsVDKkMaCO7fX3c,,,,,,,,,,,
,,,,,,,,,,,,,,p,1,1.1879,space,0.276305,0,67,67,71,1,9_dist_green/trial22.png,,,1,9,greenverival,p,24,25,Male,2021-02-19_12h22.03.290,exp11,2020.2.6,MacIntel,60,IwAR0hkvJJfxNT5N4ovJsgwvEkF3m95afrXr5DqkyR0guLPsVDKkMaCO7fX3c,,,,,,,,,,,
,,,,,,,,,,,,,,p,1,0.56876,space,0.27576,0,68,68,45,1,3_dist_green/trial21.png,,,1,3,greenverival,p,24,25,Male,2021-02-19_12h22.03.290,exp11,2020.2.6,MacIntel,60,IwAR0hkvJJfxNT5N4ovJsgwvEkF3m95afrXr5DqkyR0guLPsVDKkMaCO7fX3c,,,,,,,,,,,
,,,,,,,,,,,,,,a,1,0.704695,space,0.31015,0,69,69,142,1,0_targ_4_dist_green/trial18.png,,,0,4,greenverival,a,24,25,Male,2021-02-19_12h22.03.290,exp11,2020.2.6,MacIntel,60,IwAR0hkvJJfxNT5N4ovJsgwvEkF3m95afrXr5DqkyR0guLPsVDKkMaCO7fX3c,,,,,,,,,,,
,,,,,,,,,,,,,,a,1,0.854455,space,0.751235,0,70,70,172,1,0_targ_10_dist_green/trial23.png,,,0,10,greenverival,a,24,25,Male,2021-02-19_12h22.03.290,exp11,2020.2.6,MacIntel,60,IwAR0hkvJJfxNT5N4ovJsgwvEkF3m95afrXr5DqkyR0guLPsVDKkMaCO7fX3c,,,,,,,,,,,
,,,,,,,,,,,,,,p,1,0.71721,space,0.3675,0,71,71,56,1,9_dist_green/trial7.png,,,1,9,greenverival,p,24,25,Male,2021-02-19_12h22.03.290,exp11,2020.2.6,MacIntel,60,IwAR0hkvJJfxNT5N4ovJsgwvEkF3m95afrXr5DqkyR0guLPsVDKkMaCO7fX3c,,,,,,,,,,,
,,,,,,,,,,,,,,p,1,2.6859,space,0.800275,0,72,72,69,1,9_dist_green/trial20.png,,,1,9,greenverival,p,24,25,Male,2021-02-19_12h22.03.290,exp11,2020.2.6,MacIntel,60,IwAR0hkvJJfxNT5N4ovJsgwvEkF3m95afrXr5DqkyR0guLPsVDKkMaCO7fX3c,,,,,,,,,,,
,,,,,,,,,,,,,,a,1,1.03551,space,0.3036,0,73,73,131,1,0_targ_4_dist_green/trial7.png,,,0,4,greenverival,a,24,25,Male,2021-02-19_12h22.03.290,exp11,2020.2.6,MacIntel,60,IwAR0hkvJJfxNT5N4ovJsgwvEkF3m95afrXr5DqkyR0guLPsVDKkMaCO7fX3c,,,,,,,,,,,
,,,,,,,,,,,,,,p,1,0.65404,space,0.27907,0,74,74,73,1,9_dist_green/trial24.png,,,1,9,greenverival,p,24,25,Male,2021-02-19_12h22.03.290,exp11,2020.2.6,MacIntel,60,IwAR0hkvJJfxNT5N4ovJsgwvEkF3m95afrXr5DqkyR0guLPsVDKkMaCO7fX3c,,,,,,,,,,,
,,,,,,,,,,,,,,a,1,0.78754,space,0.26069,0,75,75,166,1,0_targ_10_dist_green/trial17.png,,,0,10,greenverival,a,24,25,Male,2021-02-19_12h22.03.290,exp11,2020.2.6,MacIntel,60,IwAR0hkvJJfxNT5N4ovJsgwvEkF3m95afrXr5DqkyR0guLPsVDKkMaCO7fX3c,,,,,,,,,,,
,,,,,,,,,,,,,,a,1,0.685225,space,0.2319,0,76,76,160,1,0_targ_10_dist_green/trial11.png,,,0,10,greenverival,a,24,25,Male,2021-02-19_12h22.03.290,exp11,2020.2.6,MacIntel,60,IwAR0hkvJJfxNT5N4ovJsgwvEkF3m95afrXr5DqkyR0guLPsVDKkMaCO7fX3c,,,,,,,,,,,
,,,,,,,,,,,,,,p,1,0.63202,space,0.191525,0,77,77,0,1,0_dist_green/trial1.png,,,1,0,greenverival,p,24,25,Male,2021-02-19_12h22.03.290,exp11,2020.2.6,MacIntel,60,IwAR0hkvJJfxNT5N4ovJsgwvEkF3m95afrXr5DqkyR0guLPsVDKkMaCO7fX3c,,,,,,,,,,,
,,,,,,,,,,,,,,p,1,0.70082,space,0.144085,0,78,78,89,1,15_dist_green/trial15.png,,,1,15,greenverival,p,24,25,Male,2021-02-19_12h22.03.290,exp11,2020.2.6,MacIntel,60,IwAR0hkvJJfxNT5N4ovJsgwvEkF3m95afrXr5DqkyR0guLPsVDKkMaCO7fX3c,,,,,,,,,,,
,,,,,,,,,,,,,,p,1,0.58501,space,0.16726,0,79,79,83,1,15_dist_green/trial9.png,,,1,15,greenverival,p,24,25,Male,2021-02-19_12h22.03.290,exp11,2020.2.6,MacIntel,60,IwAR0hkvJJfxNT5N4ovJsgwvEkF3m95afrXr5DqkyR0guLPsVDKkMaCO7fX3c,,,,,,,,,,,
,,,,,,,,,,,,,,a,1,0.7542,space,0.157255,0,80,80,162,1,0_targ_10_dist_green/trial13.png,,,0,10,greenverival,a,24,25,Male,2021-02-19_12h22.03.290,exp11,2020.2.6,MacIntel,60,IwAR0hkvJJfxNT5N4ovJsgwvEkF3m95afrXr5DqkyR0guLPsVDKkMaCO7fX3c,,,,,,,,,,,
,,,,,,,,,,,,,,p,1,0.55527,space,0.166645,0,81,81,17,1,0_dist_green/trial18.png,,,1,0,greenverival,p,24,25,Male,2021-02-19_12h22.03.290,exp11,2020.2.6,MacIntel,60,IwAR0hkvJJfxNT5N4ovJsgwvEkF3m95afrXr5DqkyR0guLPsVDKkMaCO7fX3c,,,,,,,,,,,
,,,,,,,,,,,,,,p,1,0.452965,space,0.17386,0,82,82,14,1,0_dist_green/trial15.png,,,1,0,greenverival,p,24,25,Male,2021-02-19_12h22.03.290,exp11,2020.2.6,MacIntel,60,IwAR0hkvJJfxNT5N4ovJsgwvEkF3m95afrXr5DqkyR0guLPsVDKkMaCO7fX3c,,,,,,,,,,,
,,,,,,,,,,,,,,p,1,0.391795,space,0.174065,0,83,83,13,1,0_dist_green/trial14.png,,,1,0,greenverival,p,24,25,Male,2021-02-19_12h22.03.290,exp11,2020.2.6,MacIntel,60,IwAR0hkvJJfxNT5N4ovJsgwvEkF3m95afrXr5DqkyR0guLPsVDKkMaCO7fX3c,,,,,,,,,,,
,,,,,,,,,,,,,,a,1,0.553715,space,0.21042,0,84,84,175,1,0_targ_16_dist_green/trial1.png,,,0,16,greenverival,a,24,25,Male,2021-02-19_12h22.03.290,exp11,2020.2.6,MacIntel,60,IwAR0hkvJJfxNT5N4ovJsgwvEkF3m95afrXr5DqkyR0guLPsVDKkMaCO7fX3c,,,,,,,,,,,
,,,,,,,,,,,,,,a,1,1.16856,space,0.16013,0,85,85,196,1,0_targ_16_dist_green/trial22.png,,,0,16,greenverival,a,24,25,Male,2021-02-19_12h22.03.290,exp11,2020.2.6,MacIntel,60,IwAR0hkvJJfxNT5N4ovJsgwvEkF3m95afrXr5DqkyR0guLPsVDKkMaCO7fX3c,,,,,,,,,,,
,,,,,,,,,,,,,,p,1,0.629565,space,0.192795,0,86,86,15,1,0_dist_green/trial16.png,,,1,0,greenverival,p,24,25,Male,2021-02-19_12h22.03.290,exp11,2020.2.6,MacIntel,60,IwAR0hkvJJfxNT5N4ovJsgwvEkF3m95afrXr5DqkyR0guLPsVDKkMaCO7fX3c,,,,,,,,,,,
,,,,,,,,,,,,,,a,1,0.63817,space,0.22385,0,87,87,195,1,0_targ_16_dist_green/trial21.png,,,0,16,greenverival,a,24,25,Male,2021-02-19_12h22.03.290,exp11,2020.2.6,MacIntel,60,IwAR0hkvJJfxNT5N4ovJsgwvEkF3m95afrXr5DqkyR0guLPsVDKkMaCO7fX3c,,,,,,,,,,,
,,,,,,,,,,,,,,a,1,0.85882,space,0.177945,0,88,88,108,1,0_targ_1_dist_green/trial9.png,,,0,1,greenverival,a,24,25,Male,2021-02-19_12h22.03.290,exp11,2020.2.6,MacIntel,60,IwAR0hkvJJfxNT5N4ovJsgwvEkF3m95afrXr5DqkyR0guLPsVDKkMaCO7fX3c,,,,,,,,,,,
,,,,,,,,,,,,,,p,1,0.819545,space,0.168165,0,89,89,52,1,9_dist_green/trial3.png,,,1,9,greenverival,p,24,25,Male,2021-02-19_12h22.03.290,exp11,2020.2.6,MacIntel,60,IwAR0hkvJJfxNT5N4ovJsgwvEkF3m95afrXr5DqkyR0guLPsVDKkMaCO7fX3c,,,,,,,,,,,
,,,,,,,,,,,,,,p,1,0.905775,space,0.174465,0,90,90,4,1,0_dist_green/trial5.png,,,1,0,greenverival,p,24,25,Male,2021-02-19_12h22.03.290,exp11,2020.2.6,MacIntel,60,IwAR0hkvJJfxNT5N4ovJsgwvEkF3m95afrXr5DqkyR0guLPsVDKkMaCO7fX3c,,,,,,,,,,,
,,,,,,,,,,,,,,a,1,0.82186,space,0.252285,0,91,91,180,1,0_targ_16_dist_green/trial6.png,,,0,16,greenverival,a,24,25,Male,2021-02-19_12h22.03.290,exp11,2020.2.6,MacIntel,60,IwAR0hkvJJfxNT5N4ovJsgwvEkF3m95afrXr5DqkyR0guLPsVDKkMaCO7fX3c,,,,,,,,,,,
,,,,,,,,,,,,,,a,1,1.51295,space,0.339835,0,92,92,128,1,0_targ_4_dist_green/trial4.png,,,0,4,greenverival,a,24,25,Male,2021-02-19_12h22.03.290,exp11,2020.2.6,MacIntel,60,IwAR0hkvJJfxNT5N4ovJsgwvEkF3m95afrXr5DqkyR0guLPsVDKkMaCO7fX3c,,,,,,,,,,,
,,,,,,,,,,,,,,a,1,0.799345,space,0.23157,0,93,93,114,1,0_targ_1_dist_green/trial15.png,,,0,1,greenverival,a,24,25,Male,2021-02-19_12h22.03.290,exp11,2020.2.6,MacIntel,60,IwAR0hkvJJfxNT5N4ovJsgwvEkF3m95afrXr5DqkyR0guLPsVDKkMaCO7fX3c,,,,,,,,,,,
,,,,,,,,,,,,,,a,1,1.00184,space,0.583515,0,94,94,107,1,0_targ_1_dist_green/trial8.png,,,0,1,greenverival,a,24,25,Male,2021-02-19_12h22.03.290,exp11,2020.2.6,MacIntel,60,IwAR0hkvJJfxNT5N4ovJsgwvEkF3m95afrXr5DqkyR0guLPsVDKkMaCO7fX3c,,,,,,,,,,,
,,,,,,,,,,,,,,a,1,0.910875,space,0.272195,0,95,95,181,1,0_targ_16_dist_green/trial7.png,,,0,16,greenverival,a,24,25,Male,2021-02-19_12h22.03.290,exp11,2020.2.6,MacIntel,60,IwAR0hkvJJfxNT5N4ovJsgwvEkF3m95afrXr5DqkyR0guLPsVDKkMaCO7fX3c,,,,,,,,,,,
,,,,,,,,,,,,,,a,1,0.573595,space,0.22625,0,96,96,123,1,0_targ_1_dist_green/trial24.png,,,0,1,greenverival,a,24,25,Male,2021-02-19_12h22.03.290,exp11,2020.2.6,MacIntel,60,IwAR0hkvJJfxNT5N4ovJsgwvEkF3m95afrXr5DqkyR0guLPsVDKkMaCO7fX3c,,,,,,,,,,,
,,,,,,,,,,,,,,p,1,0.65144,space,0.20806,0,97,97,5,1,0_dist_green/trial6.png,,,1,0,greenverival,p,24,25,Male,2021-02-19_12h22.03.290,exp11,2020.2.6,MacIntel,60,IwAR0hkvJJfxNT5N4ovJsgwvEkF3m95afrXr5DqkyR0guLPsVDKkMaCO7fX3c,,,,,,,,,,,
,,,,,,,,,,,,,,a,1,0.62606,space,0.243725,0,98,98,151,1,0_targ_10_dist_green/trial2.png,,,0,10,greenverival,a,24,25,Male,2021-02-19_12h22.03.290,exp11,2020.2.6,MacIntel,60,IwAR0hkvJJfxNT5N4ovJsgwvEkF3m95afrXr5DqkyR0guLPsVDKkMaCO7fX3c,,,,,,,,,,,
,,,,,,,,,,,,,,p,1,0.784905,space,0.25059,0,99,99,87,1,15_dist_green/trial13.png,,,1,15,greenverival,p,24,25,Male,2021-02-19_12h22.03.290,exp11,2020.2.6,MacIntel,60,IwAR0hkvJJfxNT5N4ovJsgwvEkF3m95afrXr5DqkyR0guLPsVDKkMaCO7fX3c,,,,,,,,,,,
,,,,,,,,,,,,,,p,1,0.56947,space,0.18729,0,100,100,67,1,9_dist_green/trial18.png,,,1,9,greenverival,p,24,25,Male,2021-02-19_12h22.03.290,exp11,2020.2.6,MacIntel,60,IwAR0hkvJJfxNT5N4ovJsgwvEkF3m95afrXr5DqkyR0guLPsVDKkMaCO7fX3c,,,,,,,,,,,
,,,,,,,,,,,,,,a,1,0.755905,space,0.218685,0,101,101,144,1,0_targ_4_dist_green/trial20.png,,,0,4,greenverival,a,24,25,Male,2021-02-19_12h22.03.290,exp11,2020.2.6,MacIntel,60,IwAR0hkvJJfxNT5N4ovJsgwvEkF3m95afrXr5DqkyR0guLPsVDKkMaCO7fX3c,,,,,,,,,,,
,,,,,,,,,,,,,,a,1,0.928485,space,0.191695,0,102,102,191,1,0_targ_16_dist_green/trial17.png,,,0,16,greenverival,a,24,25,Male,2021-02-19_12h22.03.290,exp11,2020.2.6,MacIntel,60,IwAR0hkvJJfxNT5N4ovJsgwvEkF3m95afrXr5DqkyR0guLPsVDKkMaCO7fX3c,,,,,,,,,,,
,,,,,,,,,,,,,,a,1,0.644425,space,0.235825,0,103,103,164,1,0_targ_10_dist_green/trial15.png,,,0,10,greenverival,a,24,25,Male,2021-02-19_12h22.03.290,exp11,2020.2.6,MacIntel,60,IwAR0hkvJJfxNT5N4ovJsgwvEkF3m95afrXr5DqkyR0guLPsVDKkMaCO7fX3c,,,,,,,,,,,
,,,,,,,,,,,,,,a,1,0.601645,space,0.200565,0,104,104,152,1,0_targ_10_dist_green/trial3.png,,,0,10,greenverival,a,24,25,Male,2021-02-19_12h22.03.290,exp11,2020.2.6,MacIntel,60,IwAR0hkvJJfxNT5N4ovJsgwvEkF3m95afrXr5DqkyR0guLPsVDKkMaCO7fX3c,,,,,,,,,,,
,,,,,,,,,,,,,,p,1,1.00594,space,0.20925,0,105,105,54,1,9_dist_green/trial5.png,,,1,9,greenverival,p,24,25,Male,2021-02-19_12h22.03.290,exp11,2020.2.6,MacIntel,60,IwAR0hkvJJfxNT5N4ovJsgwvEkF3m95afrXr5DqkyR0guLPsVDKkMaCO7fX3c,,,,,,,,,,,
,,,,,,,,,,,,,,p,1,0.6097,space,0.18407,0,106,106,18,1,0_dist_green/trial19.png,,,1,0,greenverival,p,24,25,Male,2021-02-19_12h22.03.290,exp11,2020.2.6,MacIntel,60,IwAR0hkvJJfxNT5N4ovJsgwvEkF3m95afrXr5DqkyR0guLPsVDKkMaCO7fX3c,,,,,,,,,,,
,,,,,,,,,,,,,,a,1,0.67712,space,0.18336,0,107,107,116,1,0_targ_1_dist_green/trial17.png,,,0,1,greenverival,a,24,25,Male,2021-02-19_12h22.03.290,exp11,2020.2.6,MacIntel,60,IwAR0hkvJJfxNT5N4ovJsgwvEkF3m95afrXr5DqkyR0guLPsVDKkMaCO7fX3c,,,,,,,,,,,
,,,,,,,,,,,,,,p,1,0.722925,space,0.29023,0,108,108,19,1,0_dist_green/trial20.png,,,1,0,greenverival,p,24,25,Male,2021-02-19_12h22.03.290,exp11,2020.2.6,MacIntel,60,IwAR0hkvJJfxNT5N4ovJsgwvEkF3m95afrXr5DqkyR0guLPsVDKkMaCO7fX3c,,,,,,,,,,,
,,,,,,,,,,,,,,a,1,1.1397,space,0.329225,0,109,109,154,1,0_targ_10_dist_green/trial5.png,,,0,10,greenverival,a,24,25,Male,2021-02-19_12h22.03.290,exp11,2020.2.6,MacIntel,60,IwAR0hkvJJfxNT5N4ovJsgwvEkF3m95afrXr5DqkyR0guLPsVDKkMaCO7fX3c,,,,,,,,,,,
,,,,,,,,,,,,,,a,1,0.97662,space,0.370455,0,110,110,150,1,0_targ_10_dist_green/trial1.png,,,0,10,greenverival,a,24,25,Male,2021-02-19_12h22.03.290,exp11,2020.2.6,MacIntel,60,IwAR0hkvJJfxNT5N4ovJsgwvEkF3m95afrXr5DqkyR0guLPsVDKkMaCO7fX3c,,,,,,,,,,,
,,,,,,,,,,,,,,p,1,0.85743,space,0.33595,0,111,111,40,1,3_dist_green/trial16.png,,,1,3,greenverival,p,24,25,Male,2021-02-19_12h22.03.290,exp11,2020.2.6,MacIntel,60,IwAR0hkvJJfxNT5N4ovJsgwvEkF3m95afrXr5DqkyR0guLPsVDKkMaCO7fX3c,,,,,,,,,,,
,,,,,,,,,,,,,,p,1,1.11158,space,0.44427,0,112,112,63,1,9_dist_green/trial14.png,,,1,9,greenverival,p,24,25,Male,2021-02-19_12h22.03.290,exp11,2020.2.6,MacIntel,60,IwAR0hkvJJfxNT5N4ovJsgwvEkF3m95afrXr5DqkyR0guLPsVDKkMaCO7fX3c,,,,,,,,,,,
,,,,,,,,,,,,,,a,1,0.704535,space,0.309445,0,113,113,168,1,0_targ_10_dist_green/trial19.png,,,0,10,greenverival,a,24,25,Male,2021-02-19_12h22.03.290,exp11,2020.2.6,MacIntel,60,IwAR0hkvJJfxNT5N4ovJsgwvEkF3m95afrXr5DqkyR0guLPsVDKkMaCO7fX3c,,,,,,,,,,,
,,,,,,,,,,,,,,a,1,0.77723,space,0.36683,0,114,114,193,1,0_targ_16_dist_green/trial19.png,,,0,16,greenverival,a,24,25,Male,2021-02-19_12h22.03.290,exp11,2020.2.6,MacIntel,60,IwAR0hkvJJfxNT5N4ovJsgwvEkF3m95afrXr5DqkyR0guLPsVDKkMaCO7fX3c,,,,,,,,,,,
,,,,,,,,,,,,,,p,1,0.625415,space,0.36782,0,115,115,11,1,0_dist_green/trial12.png,,,1,0,greenverival,p,24,25,Male,2021-02-19_12h22.03.290,exp11,2020.2.6,MacIntel,60,IwAR0hkvJJfxNT5N4ovJsgwvEkF3m95afrXr5DqkyR0guLPsVDKkMaCO7fX3c,,,,,,,,,,,
,,,,,,,,,,,,,,p,1,1.10402,space,0.409045,0,116,116,90,1,15_dist_green/trial16.png,,,1,15,greenverival,p,24,25,Male,2021-02-19_12h22.03.290,exp11,2020.2.6,MacIntel,60,IwAR0hkvJJfxNT5N4ovJsgwvEkF3m95afrXr5DqkyR0guLPsVDKkMaCO7fX3c,,,,,,,,,,,
,,,,,,,,,,,,,,p,1,1.00225,space,0.251095,0,117,117,27,1,3_dist_green/trial3.png,,,1,3,greenverival,p,24,25,Male,2021-02-19_12h22.03.290,exp11,2020.2.6,MacIntel,60,IwAR0hkvJJfxNT5N4ovJsgwvEkF3m95afrXr5DqkyR0guLPsVDKkMaCO7fX3c,,,,,,,,,,,
,,,,,,,,,,,,,,p,1,0.53852,space,0.357355,0,118,118,36,1,3_dist_green/trial12.png,,,1,3,greenverival,p,24,25,Male,2021-02-19_12h22.03.290,exp11,2020.2.6,MacIntel,60,IwAR0hkvJJfxNT5N4ovJsgwvEkF3m95afrXr5DqkyR0guLPsVDKkMaCO7fX3c,,,,,,,,,,,
,,,,,,,,,,,,,,a,1,0.795325,space,0.356015,0,119,119,145,1,0_targ_4_dist_green/trial21.png,,,0,4,greenverival,a,24,25,Male,2021-02-19_12h22.03.290,exp11,2020.2.6,MacIntel,60,IwAR0hkvJJfxNT5N4ovJsgwvEkF3m95afrXr5DqkyR0guLPsVDKkMaCO7fX3c,,,,,,,,,,,
,,,,,,,,,,,,,,p,1,0.630455,space,0.30114,0,120,120,98,1,15_dist_green/trial24.png,,,1,15,greenverival,p,24,25,Male,2021-02-19_12h22.03.290,exp11,2020.2.6,MacIntel,60,IwAR0hkvJJfxNT5N4ovJsgwvEkF3m95afrXr5DqkyR0guLPsVDKkMaCO7fX3c,,,,,,,,,,,
,,,,,,,,,,,,,,a,1,0.8541,space,0.319045,0,121,121,173,1,0_targ_10_dist_green/trial24.png,,,0,10,greenverival,a,24,25,Male,2021-02-19_12h22.03.290,exp11,2020.2.6,MacIntel,60,IwAR0hkvJJfxNT5N4ovJsgwvEkF3m95afrXr5DqkyR0guLPsVDKkMaCO7fX3c,,,,,,,,,,,
,,,,,,,,,,,,,,p,1,0.6927,space,0.32625,0,122,122,1,1,0_dist_green/trial2.png,,,1,0,greenverival,p,24,25,Male,2021-02-19_12h22.03.290,exp11,2020.2.6,MacIntel,60,IwAR0hkvJJfxNT5N4ovJsgwvEkF3m95afrXr5DqkyR0guLPsVDKkMaCO7fX3c,,,,,,,,,,,
,,,,,,,,,,,,,,p,1,0.527105,space,0.3247,0,123,123,16,1,0_dist_green/trial17.png,,,1,0,greenverival,p,24,25,Male,2021-02-19_12h22.03.290,exp11,2020.2.6,MacIntel,60,IwAR0hkvJJfxNT5N4ovJsgwvEkF3m95afrXr5DqkyR0guLPsVDKkMaCO7fX3c,,,,,,,,,,,
,,,,,,,,,,,,,,p,1,0.459555,space,0.551605,0,124,124,20,1,0_dist_green/trial21.png,,,1,0,greenverival,p,24,25,Male,2021-02-19_12h22.03.290,exp11,2020.2.6,MacIntel,60,IwAR0hkvJJfxNT5N4ovJsgwvEkF3m95afrXr5DqkyR0guLPsVDKkMaCO7fX3c,,,,,,,,,,,
,,,,,,,,,,,,,,p,1,1.32881,space,0.434765,0,125,125,26,1,3_dist_green/trial2.png,,,1,3,greenverival,p,24,25,Male,2021-02-19_12h22.03.290,exp11,2020.2.6,MacIntel,60,IwAR0hkvJJfxNT5N4ovJsgwvEkF3m95afrXr5DqkyR0guLPsVDKkMaCO7fX3c,,,,,,,,,,,
,,,,,,,,,,,,,,p,1,1.02636,space,0.415665,0,126,126,59,1,9_dist_green/trial10.png,,,1,9,greenverival,p,24,25,Male,2021-02-19_12h22.03.290,exp11,2020.2.6,MacIntel,60,IwAR0hkvJJfxNT5N4ovJsgwvEkF3m95afrXr5DqkyR0guLPsVDKkMaCO7fX3c,,,,,,,,,,,
,,,,,,,,,,,,,,a,1,0.661125,space,0.33828,0,127,127,133,1,0_targ_4_dist_green/trial9.png,,,0,4,greenverival,a,24,25,Male,2021-02-19_12h22.03.290,exp11,2020.2.6,MacIntel,60,IwAR0hkvJJfxNT5N4ovJsgwvEkF3m95afrXr5DqkyR0guLPsVDKkMaCO7fX3c,,,,,,,,,,,
,,,,,,,,,,,,,,p,1,0.9327,space,0.31762,0,128,128,51,1,9_dist_green/trial2.png,,,1,9,greenverival,p,24,25,Male,2021-02-19_12h22.03.290,exp11,2020.2.6,MacIntel,60,IwAR0hkvJJfxNT5N4ovJsgwvEkF3m95afrXr5DqkyR0guLPsVDKkMaCO7fX3c,,,,,,,,,,,
,,,,,,,,,,,,,,p,1,0.626655,space,0.273395,0,129,129,92,1,15_dist_green/trial18.png,,,1,15,greenverival,p,24,25,Male,2021-02-19_12h22.03.290,exp11,2020.2.6,MacIntel,60,IwAR0hkvJJfxNT5N4ovJsgwvEkF3m95afrXr5DqkyR0guLPsVDKkMaCO7fX3c,,,,,,,,,,,
,,,,,,,,,,,,,,a,1,0.71631,space,0.25447,0,130,130,163,1,0_targ_10_dist_green/trial14.png,,,0,10,greenverival,a,24,25,Male,2021-02-19_12h22.03.290,exp11,2020.2.6,MacIntel,60,IwAR0hkvJJfxNT5N4ovJsgwvEkF3m95afrXr5DqkyR0guLPsVDKkMaCO7fX3c,,,,,,,,,,,
,,,,,,,,,,,,,,p,1,0.755805,space,0.31255,0,131,131,61,1,9_dist_green/trial12.png,,,1,9,greenverival,p,24,25,Male,2021-02-19_12h22.03.290,exp11,2020.2.6,MacIntel,60,IwAR0hkvJJfxNT5N4ovJsgwvEkF3m95afrXr5DqkyR0guLPsVDKkMaCO7fX3c,,,,,,,,,,,
,,,,,,,,,,,,,,p,1,0.594515,space,0.259145,0,132,132,10,1,0_dist_green/trial11.png,,,1,0,greenverival,p,24,25,Male,2021-02-19_12h22.03.290,exp11,2020.2.6,MacIntel,60,IwAR0hkvJJfxNT5N4ovJsgwvEkF3m95afrXr5DqkyR0guLPsVDKkMaCO7fX3c,,,,,,,,,,,
,,,,,,,,,,,,,,p,1,0.96388,space,0.231915,0,133,133,78,1,15_dist_green/trial4.png,,,1,15,greenverival,p,24,25,Male,2021-02-19_12h22.03.290,exp11,2020.2.6,MacIntel,60,IwAR0hkvJJfxNT5N4ovJsgwvEkF3m95afrXr5DqkyR0guLPsVDKkMaCO7fX3c,,,,,,,,,,,
,,,,,,,,,,,,,,a,1,0.74462,space,0.23789,0,134,134,127,1,0_targ_4_dist_green/trial3.png,,,0,4,greenverival,a,24,25,Male,2021-02-19_12h22.03.290,exp11,2020.2.6,MacIntel,60,IwAR0hkvJJfxNT5N4ovJsgwvEkF3m95afrXr5DqkyR0guLPsVDKkMaCO7fX3c,,,,,,,,,,,
,,,,,,,,,,,,,,a,1,0.9799,space,1.01721,0,135,135,184,1,0_targ_16_dist_green/trial10.png,,,0,16,greenverival,a,24,25,Male,2021-02-19_12h22.03.290,exp11,2020.2.6,MacIntel,60,IwAR0hkvJJfxNT5N4ovJsgwvEkF3m95afrXr5DqkyR0guLPsVDKkMaCO7fX3c,,,,,,,,,,,
,,,,,,,,,,,,,,p,1,0.77875,space,0.36553,0,136,136,55,1,9_dist_green/trial6.png,,,1,9,greenverival,p,24,25,Male,2021-02-19_12h22.03.290,exp11,2020.2.6,MacIntel,60,IwAR0hkvJJfxNT5N4ovJsgwvEkF3m95afrXr5DqkyR0guLPsVDKkMaCO7fX3c,,,,,,,,,,,
,,,,,,,,,,,,,,p,1,0.95625,space,0.319125,0,137,137,85,1,15_dist_green/trial11.png,,,1,15,greenverival,p,24,25,Male,2021-02-19_12h22.03.290,exp11,2020.2.6,MacIntel,60,IwAR0hkvJJfxNT5N4ovJsgwvEkF3m95afrXr5DqkyR0guLPsVDKkMaCO7fX3c,,,,,,,,,,,
,,,,,,,,,,,,,,p,1,0.51775,space,0.223645,0,138,138,33,1,3_dist_green/trial9.png,,,1,3,greenverival,p,24,25,Male,2021-02-19_12h22.03.290,exp11,2020.2.6,MacIntel,60,IwAR0hkvJJfxNT5N4ovJsgwvEkF3m95afrXr5DqkyR0guLPsVDKkMaCO7fX3c,,,,,,,,,,,
,,,,,,,,,,,,,,a,1,0.76389,space,0.28539,0,139,139,147,1,0_targ_4_dist_green/trial23.png,,,0,4,greenverival,a,24,25,Male,2021-02-19_12h22.03.290,exp11,2020.2.6,MacIntel,60,IwAR0hkvJJfxNT5N4ovJsgwvEkF3m95afrXr5DqkyR0guLPsVDKkMaCO7fX3c,,,,,,,,,,,
,,,,,,,,,,,,,,a,1,1.43504,space,0.37597,0,140,140,189,1,0_targ_16_dist_green/trial15.png,,,0,16,greenverival,a,24,25,Male,2021-02-19_12h22.03.290,exp11,2020.2.6,MacIntel,60,IwAR0hkvJJfxNT5N4ovJsgwvEkF3m95afrXr5DqkyR0guLPsVDKkMaCO7fX3c,,,,,,,,,,,
,,,,,,,,,,,,,,a,1,0.52559,space,0.377055,0,141,141,190,1,0_targ_16_dist_green/trial16.png,,,0,16,greenverival,a,24,25,Male,2021-02-19_12h22.03.290,exp11,2020.2.6,MacIntel,60,IwAR0hkvJJfxNT5N4ovJsgwvEkF3m95afrXr5DqkyR0guLPsVDKkMaCO7fX3c,,,,,,,,,,,
,,,,,,,,,,,,,,p,1,0.81811,space,0.314385,0,142,142,62,1,9_dist_green/trial13.png,,,1,9,greenverival,p,24,25,Male,2021-02-19_12h22.03.290,exp11,2020.2.6,MacIntel,60,IwAR0hkvJJfxNT5N4ovJsgwvEkF3m95afrXr5DqkyR0guLPsVDKkMaCO7fX3c,,,,,,,,,,,
,,,,,,,,,,,,,,a,1,0.96146,space,0.32065,0,143,143,120,1,0_targ_1_dist_green/trial21.png,,,0,1,greenverival,a,24,25,Male,2021-02-19_12h22.03.290,exp11,2020.2.6,MacIntel,60,IwAR0hkvJJfxNT5N4ovJsgwvEkF3m95afrXr5DqkyR0guLPsVDKkMaCO7fX3c,,,,,,,,,,,
,,,,,,,,,,,,,,p,1,0.678675,space,0.291475,0,144,144,31,1,3_dist_green/trial7.png,,,1,3,greenverival,p,24,25,Male,2021-02-19_12h22.03.290,exp11,2020.2.6,MacIntel,60,IwAR0hkvJJfxNT5N4ovJsgwvEkF3m95afrXr5DqkyR0guLPsVDKkMaCO7fX3c,,,,,,,,,,,
,,,,,,,,,,,,,,a,1,0.960465,space,0.318445,0,145,145,187,1,0_targ_16_dist_green/trial13.png,,,0,16,greenverival,a,24,25,Male,2021-02-19_12h22.03.290,exp11,2020.2.6,MacIntel,60,IwAR0hkvJJfxNT5N4ovJsgwvEkF3m95afrXr5DqkyR0guLPsVDKkMaCO7fX3c,,,,,,,,,,,
,,,,,,,,,,,,,,p,1,0.47247,space,0.38366,0,146,146,24,1,0_dist_green/trial25.png,,,1,0,greenverival,p,24,25,Male,2021-02-19_12h22.03.290,exp11,2020.2.6,MacIntel,60,IwAR0hkvJJfxNT5N4ovJsgwvEkF3m95afrXr5DqkyR0guLPsVDKkMaCO7fX3c,,,,,,,,,,,
,,,,,,,,,,,,,,p,1,1.119595,space,0.57637,0,147,147,72,1,9_dist_green/trial23.png,,,1,9,greenverival,p,24,25,Male,2021-02-19_12h22.03.290,exp11,2020.2.6,MacIntel,60,IwAR0hkvJJfxNT5N4ovJsgwvEkF3m95afrXr5DqkyR0guLPsVDKkMaCO7fX3c,,,,,,,,,,,
,,,,,,,,,,,,,,p,1,0.878465,space,0.32445,0,148,148,50,1,9_dist_green/trial1.png,,,1,9,greenverival,p,24,25,Male,2021-02-19_12h22.03.290,exp11,2020.2.6,MacIntel,60,IwAR0hkvJJfxNT5N4ovJsgwvEkF3m95afrXr5DqkyR0guLPsVDKkMaCO7fX3c,,,,,,,,,,,
,,,,,,,,,,,,,,p,1,0.77603,space,0.367335,0,149,149,84,1,15_dist_green/trial10.png,,,1,15,greenverival,p,24,25,Male,2021-02-19_12h22.03.290,exp11,2020.2.6,MacIntel,60,IwAR0hkvJJfxNT5N4ovJsgwvEkF3m95afrXr5DqkyR0guLPsVDKkMaCO7fX3c,,,,,,,,,,,
,,,,,,,,,,,,,,a,1,0.94493,space,0.47537,0,150,150,146,1,0_targ_4_dist_green/trial22.png,,,0,4,greenverival,a,24,25,Male,2021-02-19_12h22.03.290,exp11,2020.2.6,MacIntel,60,IwAR0hkvJJfxNT5N4ovJsgwvEkF3m95afrXr5DqkyR0guLPsVDKkMaCO7fX3c,,,,,,,,,,,
,,,,,,,,,,,,,,a,1,0.71065,space,0.34971,0,151,151,130,1,0_targ_4_dist_green/trial6.png,,,0,4,greenverival,a,24,25,Male,2021-02-19_12h22.03.290,exp11,2020.2.6,MacIntel,60,IwAR0hkvJJfxNT5N4ovJsgwvEkF3m95afrXr5DqkyR0guLPsVDKkMaCO7fX3c,,,,,,,,,,,
,,,,,,,,,,,,,,p,0,0.64144,space,0.165375,0,152,152,117,1,0_targ_1_dist_green/trial18.png,,,0,1,greenverival,a,24,25,Male,2021-02-19_12h22.03.290,exp11,2020.2.6,MacIntel,60,IwAR0hkvJJfxNT5N4ovJsgwvEkF3m95afrXr5DqkyR0guLPsVDKkMaCO7fX3c,,,,,,,,,,,
,,,,,,,,,,,,,,a,1,0.83702,space,0.309835,0,153,153,122,1,0_targ_1_dist_green/trial23.png,,,0,1,greenverival,a,24,25,Male,2021-02-19_12h22.03.290,exp11,2020.2.6,MacIntel,60,IwAR0hkvJJfxNT5N4ovJsgwvEkF3m95afrXr5DqkyR0guLPsVDKkMaCO7fX3c,,,,,,,,,,,
,,,,,,,,,,,,,,p,1,0.74301,space,0.22006,0,154,154,29,1,3_dist_green/trial5.png,,,1,3,greenverival,p,24,25,Male,2021-02-19_12h22.03.290,exp11,2020.2.6,MacIntel,60,IwAR0hkvJJfxNT5N4ovJsgwvEkF3m95afrXr5DqkyR0guLPsVDKkMaCO7fX3c,,,,,,,,,,,
,,,,,,,,,,,,,,a,1,1.26817,space,0.236445,0,155,155,186,1,0_targ_16_dist_green/trial12.png,,,0,16,greenverival,a,24,25,Male,2021-02-19_12h22.03.290,exp11,2020.2.6,MacIntel,60,IwAR0hkvJJfxNT5N4ovJsgwvEkF3m95afrXr5DqkyR0guLPsVDKkMaCO7fX3c,,,,,,,,,,,
,,,,,,,,,,,,,,p,1,0.88071,space,0.247935,0,156,156,79,1,15_dist_green/trial5.png,,,1,15,greenverival,p,24,25,Male,2021-02-19_12h22.03.290,exp11,2020.2.6,MacIntel,60,IwAR0hkvJJfxNT5N4ovJsgwvEkF3m95afrXr5DqkyR0guLPsVDKkMaCO7fX3c,,,,,,,,,,,
,,,,,,,,,,,,,,p,1,1.24032,space,0.263705,0,157,157,80,1,15_dist_green/trial6.png,,,1,15,greenverival,p,24,25,Male,2021-02-19_12h22.03.290,exp11,2020.2.6,MacIntel,60,IwAR0hkvJJfxNT5N4ovJsgwvEkF3m95afrXr5DqkyR0guLPsVDKkMaCO7fX3c,,,,,,,,,,,
,,,,,,,,,,,,,,a,1,1.026745,space,0.3425,0,158,158,198,1,0_targ_16_dist_green/trial24.png,,,0,16,greenverival,a,24,25,Male,2021-02-19_12h22.03.290,exp11,2020.2.6,MacIntel,60,IwAR0hkvJJfxNT5N4ovJsgwvEkF3m95afrXr5DqkyR0guLPsVDKkMaCO7fX3c,,,,,,,,,,,
,,,,,,,,,,,,,,p,1,0.942865,space,0.22914,0,159,159,94,1,15_dist_green/trial20.png,,,1,15,greenverival,p,24,25,Male,2021-02-19_12h22.03.290,exp11,2020.2.6,MacIntel,60,IwAR0hkvJJfxNT5N4ovJsgwvEkF3m95afrXr5DqkyR0guLPsVDKkMaCO7fX3c,,,,,,,,,,,
,,,,,,,,,,,,,,p,1,0.6284,space,0.192185,0,160,160,22,1,0_dist_green/trial23.png,,,1,0,greenverival,p,24,25,Male,2021-02-19_12h22.03.290,exp11,2020.2.6,MacIntel,60,IwAR0hkvJJfxNT5N4ovJsgwvEkF3m95afrXr5DqkyR0guLPsVDKkMaCO7fX3c,,,,,,,,,,,
,,,,,,,,,,,,,,p,1,1.017505,space,0.357655,0,161,161,32,1,3_dist_green/trial8.png,,,1,3,greenverival,p,24,25,Male,2021-02-19_12h22.03.290,exp11,2020.2.6,MacIntel,60,IwAR0hkvJJfxNT5N4ovJsgwvEkF3m95afrXr5DqkyR0guLPsVDKkMaCO7fX3c,,,,,,,,,,,
,,,,,,,,,,,,,,a,1,0.5774,space,0.241635,0,162,162,102,1,0_targ_1_dist_green/trial3.png,,,0,1,greenverival,a,24,25,Male,2021-02-19_12h22.03.290,exp11,2020.2.6,MacIntel,60,IwAR0hkvJJfxNT5N4ovJsgwvEkF3m95afrXr5DqkyR0guLPsVDKkMaCO7fX3c,,,,,,,,,,,
,,,,,,,,,,,,,,a,1,0.68597,space,0.234725,0,163,163,111,1,0_targ_1_dist_green/trial12.png,,,0,1,greenverival,a,24,25,Male,2021-02-19_12h22.03.290,exp11,2020.2.6,MacIntel,60,IwAR0hkvJJfxNT5N4ovJsgwvEkF3m95afrXr5DqkyR0guLPsVDKkMaCO7fX3c,,,,,,,,,,,
,,,,,,,,,,,,,,p,1,0.701995,space,0.19934,0,164,164,30,1,3_dist_green/trial6.png,,,1,3,greenverival,p,24,25,Male,2021-02-19_12h22.03.290,exp11,2020.2.6,MacIntel,60,IwAR0hkvJJfxNT5N4ovJsgwvEkF3m95afrXr5DqkyR0guLPsVDKkMaCO7fX3c,,,,,,,,,,,
,,,,,,,,,,,,,,p,1,0.757805,space,0.180005,0,165,165,66,1,9_dist_green/trial17.png,,,1,9,greenverival,p,24,25,Male,2021-02-19_12h22.03.290,exp11,2020.2.6,MacIntel,60,IwAR0hkvJJfxNT5N4ovJsgwvEkF3m95afrXr5DqkyR0guLPsVDKkMaCO7fX3c,,,,,,,,,,,
,,,,,,,,,,,,,,p,1,0.972785,space,0.186075,0,166,166,96,1,15_dist_green/trial22.png,,,1,15,greenverival,p,24,25,Male,2021-02-19_12h22.03.290,exp11,2020.2.6,MacIntel,60,IwAR0hkvJJfxNT5N4ovJsgwvEkF3m95afrXr5DqkyR0guLPsVDKkMaCO7fX3c,,,,,,,,,,,
,,,,,,,,,,,,,,a,1,0.982815,space,0.19267,0,167,167,100,1,0_targ_1_dist_green/trial1.png,,,0,1,greenverival,a,24,25,Male,2021-02-19_12h22.03.290,exp11,2020.2.6,MacIntel,60,IwAR0hkvJJfxNT5N4ovJsgwvEkF3m95afrXr5DqkyR0guLPsVDKkMaCO7fX3c,,,,,,,,,,,
,,,,,,,,,,,,,,p,1,0.692875,space,0.25873,0,168,168,70,1,9_dist_green/trial21.png,,,1,9,greenverival,p,24,25,Male,2021-02-19_12h22.03.290,exp11,2020.2.6,MacIntel,60,IwAR0hkvJJfxNT5N4ovJsgwvEkF3m95afrXr5DqkyR0guLPsVDKkMaCO7fX3c,,,,,,,,,,,
,,,,,,,,,,,,,,p,1,0.994785,space,0.334845,0,169,169,74,1,9_dist_green/trial25.png,,,1,9,greenverival,p,24,25,Male,2021-02-19_12h22.03.290,exp11,2020.2.6,MacIntel,60,IwAR0hkvJJfxNT5N4ovJsgwvEkF3m95afrXr5DqkyR0guLPsVDKkMaCO7fX3c,,,,,,,,,,,
,,,,,,,,,,,,,,a,1,1.02554,space,0.218205,0,170,170,113,1,0_targ_1_dist_green/trial14.png,,,0,1,greenverival,a,24,25,Male,2021-02-19_12h22.03.290,exp11,2020.2.6,MacIntel,60,IwAR0hkvJJfxNT5N4ovJsgwvEkF3m95afrXr5DqkyR0guLPsVDKkMaCO7fX3c,,,,,,,,,,,
,,,,,,,,,,,,,,a,1,2.095165,space,0.23592,0,171,171,104,1,0_targ_1_dist_green/trial5.png,,,0,1,greenverival,a,24,25,Male,2021-02-19_12h22.03.290,exp11,2020.2.6,MacIntel,60,IwAR0hkvJJfxNT5N4ovJsgwvEkF3m95afrXr5DqkyR0guLPsVDKkMaCO7fX3c,,,,,,,,,,,
,,,,,,,,,,,,,,a,1,0.511205,space,0.20595,0,172,172,106,1,0_targ_1_dist_green/trial7.png,,,0,1,greenverival,a,24,25,Male,2021-02-19_12h22.03.290,exp11,2020.2.6,MacIntel,60,IwAR0hkvJJfxNT5N4ovJsgwvEkF3m95afrXr5DqkyR0guLPsVDKkMaCO7fX3c,,,,,,,,,,,
,,,,,,,,,,,,,,a,1,0.928295,space,0.295305,0,173,173,135,1,0_targ_4_dist_green/trial11.png,,,0,4,greenverival,a,24,25,Male,2021-02-19_12h22.03.290,exp11,2020.2.6,MacIntel,60,IwAR0hkvJJfxNT5N4ovJsgwvEkF3m95afrXr5DqkyR0guLPsVDKkMaCO7fX3c,,,,,,,,,,,
,,,,,,,,,,,,,,a,1,0.509025,space,0.3515,0,174,174,115,1,0_targ_1_dist_green/trial6.png,,,0,1,greenverival,a,24,25,Male,2021-02-19_12h22.03.290,exp11,2020.2.6,MacIntel,60,IwAR0hkvJJfxNT5N4ovJsgwvEkF3m95afrXr5DqkyR0guLPsVDKkMaCO7fX3c,,,,,,,,,,,
,,,,,,,,,,,,,,p,1,0.756645,space,0.29433,0,175,175,3,1,0_dist_green/trial4.png,,,1,0,greenverival,p,24,25,Male,2021-02-19_12h22.03.290,exp11,2020.2.6,MacIntel,60,IwAR0hkvJJfxNT5N4ovJsgwvEkF3m95afrXr5DqkyR0guLPsVDKkMaCO7fX3c,,,,,,,,,,,
,,,,,,,,,,,,,,p,1,1.095515,space,0.541705,0,176,176,35,1,3_dist_green/trial11.png,,,1,3,greenverival,p,24,25,Male,2021-02-19_12h22.03.290,exp11,2020.2.6,MacIntel,60,IwAR0hkvJJfxNT5N4ovJsgwvEkF3m95afrXr5DqkyR0guLPsVDKkMaCO7fX3c,,,,,,,,,,,
,,,,,,,,,,,,,,a,1,0.86121,space,0.336265,0,177,177,139,1,0_targ_4_dist_green/trial15.png,,,0,4,greenverival,a,24,25,Male,2021-02-19_12h22.03.290,exp11,2020.2.6,MacIntel,60,IwAR0hkvJJfxNT5N4ovJsgwvEkF3m95afrXr5DqkyR0guLPsVDKkMaCO7fX3c,,,,,,,,,,,
,,,,,,,,,,,,,,p,1,0.605235,space,0.343275,0,178,178,88,1,15_dist_green/trial14.png,,,1,15,greenverival,p,24,25,Male,2021-02-19_12h22.03.290,exp11,2020.2.6,MacIntel,60,IwAR0hkvJJfxNT5N4ovJsgwvEkF3m95afrXr5DqkyR0guLPsVDKkMaCO7fX3c,,,,,,,,,,,
,,,,,,,,,,,,,,a,1,0.9731,space,0.426465,0,179,179,129,1,0_targ_4_dist_green/trial5.png,,,0,4,greenverival,a,24,25,Male,2021-02-19_12h22.03.290,exp11,2020.2.6,MacIntel,60,IwAR0hkvJJfxNT5N4ovJsgwvEkF3m95afrXr5DqkyR0guLPsVDKkMaCO7fX3c,,,,,,,,,,,
,,,,,,,,,,,,,,p,1,0.875825,space,0.23269,0,180,180,28,1,3_dist_green/trial4.png,,,1,3,greenverival,p,24,25,Male,2021-02-19_12h22.03.290,exp11,2020.2.6,MacIntel,60,IwAR0hkvJJfxNT5N4ovJsgwvEkF3m95afrXr5DqkyR0guLPsVDKkMaCO7fX3c,,,,,,,,,,,
,,,,,,,,,,,,,,a,1,0.873855,space,0.234445,0,181,181,182,1,0_targ_16_dist_green/trial8.png,,,0,16,greenverival,a,24,25,Male,2021-02-19_12h22.03.290,exp11,2020.2.6,MacIntel,60,IwAR0hkvJJfxNT5N4ovJsgwvEkF3m95afrXr5DqkyR0guLPsVDKkMaCO7fX3c,,,,,,,,,,,
,,,,,,,,,,,,,,a,1,0.7712,space,0.24136,0,182,182,137,1,0_targ_4_dist_green/trial13.png,,,0,4,greenverival,a,24,25,Male,2021-02-19_12h22.03.290,exp11,2020.2.6,MacIntel,60,IwAR0hkvJJfxNT5N4ovJsgwvEkF3m95afrXr5DqkyR0guLPsVDKkMaCO7fX3c,,,,,,,,,,,
,,,,,,,,,,,,,,a,1,0.73397,space,0.30015,0,183,183,194,1,0_targ_16_dist_green/trial20.png,,,0,16,greenverival,a,24,25,Male,2021-02-19_12h22.03.290,exp11,2020.2.6,MacIntel,60,IwAR0hkvJJfxNT5N4ovJsgwvEkF3m95afrXr5DqkyR0guLPsVDKkMaCO7fX3c,,,,,,,,,,,
,,,,,,,,,,,,,,a,0,0.76969,space,0.383995,0,184,184,53,1,9_dist_green/trial4.png,,,1,9,greenverival,p,24,25,Male,2021-02-19_12h22.03.290,exp11,2020.2.6,MacIntel,60,IwAR0hkvJJfxNT5N4ovJsgwvEkF3m95afrXr5DqkyR0guLPsVDKkMaCO7fX3c,,,,,,,,,,,
,,,,,,,,,,,,,,p,1,1.108695,space,0.19561,0,185,185,47,1,3_dist_green/trial23.png,,,1,3,greenverival,p,24,25,Male,2021-02-19_12h22.03.290,exp11,2020.2.6,MacIntel,60,IwAR0hkvJJfxNT5N4ovJsgwvEkF3m95afrXr5DqkyR0guLPsVDKkMaCO7fX3c,,,,,,,,,,,
,,,,,,,,,,,,,,p,1,0.537155,space,0.17598,0,186,186,43,1,3_dist_green/trial19.png,,,1,3,greenverival,p,24,25,Male,2021-02-19_12h22.03.290,exp11,2020.2.6,MacIntel,60,IwAR0hkvJJfxNT5N4ovJsgwvEkF3m95afrXr5DqkyR0guLPsVDKkMaCO7fX3c,,,,,,,,,,,
,,,,,,,,,,,,,,p,1,0.494605,space,0.36659,0,187,187,7,1,0_dist_green/trial8.png,,,1,0,greenverival,p,24,25,Male,2021-02-19_12h22.03.290,exp11,2020.2.6,MacIntel,60,IwAR0hkvJJfxNT5N4ovJsgwvEkF3m95afrXr5DqkyR0guLPsVDKkMaCO7fX3c,,,,,,,,,,,
,,,,,,,,,,,,,,p,1,0.734055,space,0.459805,0,188,188,82,1,15_dist_green/trial8.png,,,1,15,greenverival,p,24,25,Male,2021-02-19_12h22.03.290,exp11,2020.2.6,MacIntel,60,IwAR0hkvJJfxNT5N4ovJsgwvEkF3m95afrXr5DqkyR0guLPsVDKkMaCO7fX3c,,,,,,,,,,,
,,,,,,,,,,,,,,a,1,0.90232,space,0.60228,0,189,189,134,1,0_targ_4_dist_green/trial10.png,,,0,4,greenverival,a,24,25,Male,2021-02-19_12h22.03.290,exp11,2020.2.6,MacIntel,60,IwAR0hkvJJfxNT5N4ovJsgwvEkF3m95afrXr5DqkyR0guLPsVDKkMaCO7fX3c,,,,,,,,,,,
,,,,,,,,,,,,,,a,1,0.772425,space,0.343985,0,190,190,112,1,0_targ_1_dist_green/trial13.png,,,0,1,greenverival,a,24,25,Male,2021-02-19_12h22.03.290,exp11,2020.2.6,MacIntel,60,IwAR0hkvJJfxNT5N4ovJsgwvEkF3m95afrXr5DqkyR0guLPsVDKkMaCO7fX3c,,,,,,,,,,,
,,,,,,,,,,,,,,p,1,0.6457,space,0.29121,0,191,191,65,1,9_dist_green/trial16.png,,,1,9,greenverival,p,24,25,Male,2021-02-19_12h22.03.290,exp11,2020.2.6,MacIntel,60,IwAR0hkvJJfxNT5N4ovJsgwvEkF3m95afrXr5DqkyR0guLPsVDKkMaCO7fX3c,,,,,,,,,,,
,,,,,,,,,,,,,,a,1,1.36014,space,0.30714,0,192,192,138,1,0_targ_4_dist_green/trial14.png,,,0,4,greenverival,a,24,25,Male,2021-02-19_12h22.03.290,exp11,2020.2.6,MacIntel,60,IwAR0hkvJJfxNT5N4ovJsgwvEkF3m95afrXr5DqkyR0guLPsVDKkMaCO7fX3c,,,,,,,,,,,
,,,,,,,,,,,,,,a,1,1.047715,space,0.30331,0,193,193,126,1,0_targ_4_dist_green/trial2.png,,,0,4,greenverival,a,24,25,Male,2021-02-19_12h22.03.290,exp11,2020.2.6,MacIntel,60,IwAR0hkvJJfxNT5N4ovJsgwvEkF3m95afrXr5DqkyR0guLPsVDKkMaCO7fX3c,,,,,,,,,,,
,,,,,,,,,,,,,,p,1,0.5702,space,0.24122,0,194,194,37,1,3_dist_green/trial13.png,,,1,3,greenverival,p,24,25,Male,2021-02-19_12h22.03.290,exp11,2020.2.6,MacIntel,60,IwAR0hkvJJfxNT5N4ovJsgwvEkF3m95afrXr5DqkyR0guLPsVDKkMaCO7fX3c,,,,,,,,,,,
,,,,,,,,,,,,,,p,1,0.956305,space,0.31866,0,195,195,49,1,3_dist_green/trial25.png,,,1,3,greenverival,p,24,25,Male,2021-02-19_12h22.03.290,exp11,2020.2.6,MacIntel,60,IwAR0hkvJJfxNT5N4ovJsgwvEkF3m95afrXr5DqkyR0guLPsVDKkMaCO7fX3c,,,,,,,,,,,
,,,,,,,,,,,,,,a,1,1.536715,space,0.400065,0,196,196,143,1,0_targ_4_dist_green/trial19.png,,,0,4,greenverival,a,24,25,Male,2021-02-19_12h22.03.290,exp11,2020.2.6,MacIntel,60,IwAR0hkvJJfxNT5N4ovJsgwvEkF3m95afrXr5DqkyR0guLPsVDKkMaCO7fX3c,,,,,,,,,,,
,,,,,,,,,,,,,,a,1,0.821505,space,0.332755,0,197,197,103,1,0_targ_1_dist_green/trial4.png,,,0,1,greenverival,a,24,25,Male,2021-02-19_12h22.03.290,exp11,2020.2.6,MacIntel,60,IwAR0hkvJJfxNT5N4ovJsgwvEkF3m95afrXr5DqkyR0guLPsVDKkMaCO7fX3c,,,,,,,,,,,
,,,,,,,,,,,,,,a,1,0.827255,space,0.26451,0,198,198,169,1,0_targ_10_dist_green/trial20.png,,,0,10,greenverival,a,24,25,Male,2021-02-19_12h22.03.290,exp11,2020.2.6,MacIntel,60,IwAR0hkvJJfxNT5N4ovJsgwvEkF3m95afrXr5DqkyR0guLPsVDKkMaCO7fX3c,,,,,,,,,,,
,,,,,,,,,,,,,,p,1,0.638875,space,0.2161,0,199,199,9,1,0_dist_green/trial10.png,,,1,0,greenverival,p,24,25,Male,2021-02-19_12h22.03.290,exp11,2020.2.6,MacIntel,60,IwAR0hkvJJfxNT5N4ovJsgwvEkF3m95afrXr5DqkyR0guLPsVDKkMaCO7fX3c,,,,,,,,,,,
,,,,,,,,,,,,,,,,,,,,,,,,,,,,,,,24,25,Male,2021-02-19_12h22.03.290,exp11,2020.2.6,MacIntel,60,IwAR0hkvJJfxNT5N4ovJsgwvEkF3m95afrXr5DqkyR0guLPsVDKkMaCO7fX3c,0,1,1,0,1,conGreen.xlsx,green vertical,Look for green vertical bar (target) and indicate if it is present or absent in the array. If green vertical target is present press 'p' and if absent press 'a'. Press SPACE to start.,,,
