key_resp_6.keys,key_resp_6.rt,key_resp_7.keys,key_resp_7.rt,key_resp_8.keys,key_resp_8.rt,key_resp_10.keys,key_resp_10.rt,key_resp_9.keys,key_resp_9.rt,key_resp_3.keys,key_resp_3.rt,key_resp_5.keys,key_resp_5.rt,key_resp.keys,key_resp.corr,key_resp.rt,key_resp_4.keys,key_resp_4.rt,trials.thisRepN,trials.thisTrialN,trials.thisN,trials.thisIndex,trials.ran,ImageFile,tarPos,tarSize,targPres,numDist,targetName,correctAns,participant,age,sex,date,expName,psychopyVersion,OS,frameRate,trials_2.thisRepN,trials_2.thisTrialN,trials_2.thisN,trials_2.thisIndex,trials_2.ran,condsFile,targName,instructionText,colTarget,sizeTarg,posit
space,1.649,space,21.46,space,20.251,space,125.056,space,19.467,space,38.336,space,12.073,p,0,0.596,space,2.384,0,0,0,103,1,0_targ_1_dist_red/trial4.png,,,0,1,redHorizontal,a,25,26,female,2021-02-19_15h29.12.399,exp11,2020.2.6,MacIntel,60,,,,,,,,,,,
,,,,,,,,,,,,,,a,0,4.03,space,4.502,0,1,1,71,1,9_dist_red/trial22.png,,,1,9,redHorizontal,p,25,26,female,2021-02-19_15h29.12.399,exp11,2020.2.6,MacIntel,60,,,,,,,,,,,
,,,,,,,,,,,,,,a,0,3.778,space,9.842,0,2,2,72,1,9_dist_red/trial23.png,,,1,9,redHorizontal,p,25,26,female,2021-02-19_15h29.12.399,exp11,2020.2.6,MacIntel,60,,,,,,,,,,,
,,,,,,,,,,,,,,p,0,13.698,space,7.401,0,3,3,198,1,0_targ_16_dist_red/trial24.png,,,0,16,redHorizontal,a,25,26,female,2021-02-19_15h29.12.399,exp11,2020.2.6,MacIntel,60,,,,,,,,,,,
,,,,,,,,,,,,,,p,1,3.314,space,4.644,0,4,4,36,1,3_dist_red/trial12.png,,,1,3,redHorizontal,p,25,26,female,2021-02-19_15h29.12.399,exp11,2020.2.6,MacIntel,60,,,,,,,,,,,
,,,,,,,,,,,,,,p,1,1.325,space,1.367,0,5,5,34,1,3_dist_red/trial10.png,,,1,3,redHorizontal,p,25,26,female,2021-02-19_15h29.12.399,exp11,2020.2.6,MacIntel,60,,,,,,,,,,,
,,,,,,,,,,,,,,p,1,1.058,space,1.259,0,6,6,70,1,9_dist_red/trial21.png,,,1,9,redHorizontal,p,25,26,female,2021-02-19_15h29.12.399,exp11,2020.2.6,MacIntel,60,,,,,,,,,,,
,,,,,,,,,,,,,,p,0,1.575,space,0.241,0,7,7,197,1,0_targ_16_dist_red/trial23.png,,,0,16,redHorizontal,a,25,26,female,2021-02-19_15h29.12.399,exp11,2020.2.6,MacIntel,60,,,,,,,,,,,
,,,,,,,,,,,,,,p,1,1.206,space,2.542,0,8,8,49,1,3_dist_red/trial25.png,,,1,3,redHorizontal,p,25,26,female,2021-02-19_15h29.12.399,exp11,2020.2.6,MacIntel,60,,,,,,,,,,,
,,,,,,,,,,,,,,p,0,2.799,space,0.652,0,9,9,126,1,0_targ_4_dist_red/trial2.png,,,0,4,redHorizontal,a,25,26,female,2021-02-19_15h29.12.399,exp11,2020.2.6,MacIntel,60,,,,,,,,,,,
,,,,,,,,,,,,,,a,0,1.388,space,1.825,0,10,10,4,1,0_dist_red/trial5.png,,,1,0,redHorizontal,p,25,26,female,2021-02-19_15h29.12.399,exp11,2020.2.6,MacIntel,60,,,,,,,,,,,
,,,,,,,,,,,,,,p,0,1.863,space,0.017,0,11,11,146,1,0_targ_4_dist_red/trial22.png,,,0,4,redHorizontal,a,25,26,female,2021-02-19_15h29.12.399,exp11,2020.2.6,MacIntel,60,,,,,,,,,,,
,,,,,,,,,,,,,,a,0,1.233,space,1.517,0,12,12,10,1,0_dist_red/trial11.png,,,1,0,redHorizontal,p,25,26,female,2021-02-19_15h29.12.399,exp11,2020.2.6,MacIntel,60,,,,,,,,,,,
,,,,,,,,,,,,,,p,1,0.965,space,1.923,0,13,13,12,1,0_dist_red/trial13.png,,,1,0,redHorizontal,p,25,26,female,2021-02-19_15h29.12.399,exp11,2020.2.6,MacIntel,60,,,,,,,,,,,
,,,,,,,,,,,,,,a,1,3.81,space,2.441,0,14,14,172,1,0_targ_10_dist_red/trial23.png,,,0,10,redHorizontal,a,25,26,female,2021-02-19_15h29.12.399,exp11,2020.2.6,MacIntel,60,,,,,,,,,,,
,,,,,,,,,,,,,,p,0,6.016,space,0.827,0,15,15,154,1,0_targ_10_dist_red/trial5.png,,,0,10,redHorizontal,a,25,26,female,2021-02-19_15h29.12.399,exp11,2020.2.6,MacIntel,60,,,,,,,,,,,
,,,,,,,,,,,,,,a,0,1.015,space,1.535,0,16,16,66,1,9_dist_red/trial17.png,,,1,9,redHorizontal,p,25,26,female,2021-02-19_15h29.12.399,exp11,2020.2.6,MacIntel,60,,,,,,,,,,,
,,,,,,,,,,,,,,a,0,0.905,space,0.917,0,17,17,75,1,15_dist_red/trial1.png,,,1,15,redHorizontal,p,25,26,female,2021-02-19_15h29.12.399,exp11,2020.2.6,MacIntel,60,,,,,,,,,,,
,,,,,,,,,,,,,,p,1,0.756,space,1.806,0,18,18,82,1,15_dist_red/trial8.png,,,1,15,redHorizontal,p,25,26,female,2021-02-19_15h29.12.399,exp11,2020.2.6,MacIntel,60,,,,,,,,,,,
,,,,,,,,,,,,,,p,0,0.624,space,0.675,0,19,19,182,1,0_targ_16_dist_red/trial8.png,,,0,16,redHorizontal,a,25,26,female,2021-02-19_15h29.12.399,exp11,2020.2.6,MacIntel,60,,,,,,,,,,,
,,,,,,,,,,,,,,a,1,1.509,space,0.845,0,20,20,151,1,0_targ_10_dist_red/trial2.png,,,0,10,redHorizontal,a,25,26,female,2021-02-19_15h29.12.399,exp11,2020.2.6,MacIntel,60,,,,,,,,,,,
,,,,,,,,,,,,,,a,1,1.013,space,0.743,0,21,21,139,1,0_targ_4_dist_red/trial15.png,,,0,4,redHorizontal,a,25,26,female,2021-02-19_15h29.12.399,exp11,2020.2.6,MacIntel,60,,,,,,,,,,,
,,,,,,,,,,,,,,a,1,0.724,space,0.7,0,22,22,191,1,0_targ_16_dist_red/trial17.png,,,0,16,redHorizontal,a,25,26,female,2021-02-19_15h29.12.399,exp11,2020.2.6,MacIntel,60,,,,,,,,,,,
,,,,,,,,,,,,,,p,0,1.214,space,0.708,0,23,23,113,1,0_targ_1_dist_red/trial14.png,,,0,1,redHorizontal,a,25,26,female,2021-02-19_15h29.12.399,exp11,2020.2.6,MacIntel,60,,,,,,,,,,,
,,,,,,,,,,,,,,p,1,1.359,space,0.685,0,24,24,5,1,0_dist_red/trial6.png,,,1,0,redHorizontal,p,25,26,female,2021-02-19_15h29.12.399,exp11,2020.2.6,MacIntel,60,,,,,,,,,,,
,,,,,,,,,,,,,,a,0,0.649,space,0.493,0,25,25,50,1,9_dist_red/trial1.png,,,1,9,redHorizontal,p,25,26,female,2021-02-19_15h29.12.399,exp11,2020.2.6,MacIntel,60,,,,,,,,,,,
,,,,,,,,,,,,,,a,1,1.716,space,0.786,0,26,26,101,1,0_targ_1_dist_red/trial2.png,,,0,1,redHorizontal,a,25,26,female,2021-02-19_15h29.12.399,exp11,2020.2.6,MacIntel,60,,,,,,,,,,,
,,,,,,,,,,,,,,a,1,2.142,space,0.809,0,27,27,166,1,0_targ_10_dist_red/trial17.png,,,0,10,redHorizontal,a,25,26,female,2021-02-19_15h29.12.399,exp11,2020.2.6,MacIntel,60,,,,,,,,,,,
,,,,,,,,,,,,,,a,0,1.177,space,0.283,0,28,28,40,1,3_dist_red/trial16.png,,,1,3,redHorizontal,p,25,26,female,2021-02-19_15h29.12.399,exp11,2020.2.6,MacIntel,60,,,,,,,,,,,
,,,,,,,,,,,,,,p,1,0.908,space,0.647,0,29,29,19,1,0_dist_red/trial20.png,,,1,0,redHorizontal,p,25,26,female,2021-02-19_15h29.12.399,exp11,2020.2.6,MacIntel,60,,,,,,,,,,,
,,,,,,,,,,,,,,a,1,0.973,space,0.729,0,30,30,199,1,0_targ_16_dist_red/trial25.png,,,0,16,redHorizontal,a,25,26,female,2021-02-19_15h29.12.399,exp11,2020.2.6,MacIntel,60,,,,,,,,,,,
,,,,,,,,,,,,,,p,0,0.993,space,1.157,0,31,31,181,1,0_targ_16_dist_red/trial7.png,,,0,16,redHorizontal,a,25,26,female,2021-02-19_15h29.12.399,exp11,2020.2.6,MacIntel,60,,,,,,,,,,,
,,,,,,,,,,,,,,p,1,0.981,space,0.589,0,32,32,78,1,15_dist_red/trial4.png,,,1,15,redHorizontal,p,25,26,female,2021-02-19_15h29.12.399,exp11,2020.2.6,MacIntel,60,,,,,,,,,,,
,,,,,,,,,,,,,,p,0,1.002,space,0.69,0,33,33,171,1,0_targ_10_dist_red/trial22.png,,,0,10,redHorizontal,a,25,26,female,2021-02-19_15h29.12.399,exp11,2020.2.6,MacIntel,60,,,,,,,,,,,
,,,,,,,,,,,,,,a,0,0.966,space,0.384,0,34,34,2,1,0_dist_red/trial3.png,,,1,0,redHorizontal,p,25,26,female,2021-02-19_15h29.12.399,exp11,2020.2.6,MacIntel,60,,,,,,,,,,,
,,,,,,,,,,,,,,p,1,1.048,space,1.728,0,35,35,47,1,3_dist_red/trial23.png,,,1,3,redHorizontal,p,25,26,female,2021-02-19_15h29.12.399,exp11,2020.2.6,MacIntel,60,,,,,,,,,,,
,,,,,,,,,,,,,,a,1,0.694,space,0.627,0,36,36,186,1,0_targ_16_dist_red/trial12.png,,,0,16,redHorizontal,a,25,26,female,2021-02-19_15h29.12.399,exp11,2020.2.6,MacIntel,60,,,,,,,,,,,
,,,,,,,,,,,,,,a,1,0.891,space,0.56,0,37,37,100,1,0_targ_1_dist_red/trial1.png,,,0,1,redHorizontal,a,25,26,female,2021-02-19_15h29.12.399,exp11,2020.2.6,MacIntel,60,,,,,,,,,,,
,,,,,,,,,,,,,,a,0,0.81,space,0.036,0,38,38,97,1,15_dist_red/trial23.png,,,1,15,redHorizontal,p,25,26,female,2021-02-19_15h29.12.399,exp11,2020.2.6,MacIntel,60,,,,,,,,,,,
,,,,,,,,,,,,,,p,1,1.048,space,0.662,0,39,39,26,1,3_dist_red/trial2.png,,,1,3,redHorizontal,p,25,26,female,2021-02-19_15h29.12.399,exp11,2020.2.6,MacIntel,60,,,,,,,,,,,
,,,,,,,,,,,,,,a,1,0.89,space,0.576,0,40,40,159,1,0_targ_10_dist_red/trial10.png,,,0,10,redHorizontal,a,25,26,female,2021-02-19_15h29.12.399,exp11,2020.2.6,MacIntel,60,,,,,,,,,,,
,,,,,,,,,,,,,,p,1,1.141,space,0.652,0,41,41,3,1,0_dist_red/trial4.png,,,1,0,redHorizontal,p,25,26,female,2021-02-19_15h29.12.399,exp11,2020.2.6,MacIntel,60,,,,,,,,,,,
,,,,,,,,,,,,,,a,0,0.848,space,0.407,0,42,42,29,1,3_dist_red/trial5.png,,,1,3,redHorizontal,p,25,26,female,2021-02-19_15h29.12.399,exp11,2020.2.6,MacIntel,60,,,,,,,,,,,
,,,,,,,,,,,,,,a,0,0.928,space,0.15,0,43,43,60,1,9_dist_red/trial11.png,,,1,9,redHorizontal,p,25,26,female,2021-02-19_15h29.12.399,exp11,2020.2.6,MacIntel,60,,,,,,,,,,,
,,,,,,,,,,,,,,p,1,1.025,space,0.549,0,44,44,7,1,0_dist_red/trial8.png,,,1,0,redHorizontal,p,25,26,female,2021-02-19_15h29.12.399,exp11,2020.2.6,MacIntel,60,,,,,,,,,,,
,,,,,,,,,,,,,,p,1,0.708,space,0.684,0,45,45,16,1,0_dist_red/trial17.png,,,1,0,redHorizontal,p,25,26,female,2021-02-19_15h29.12.399,exp11,2020.2.6,MacIntel,60,,,,,,,,,,,
,,,,,,,,,,,,,,a,1,2.96,space,0.7,0,46,46,195,1,0_targ_16_dist_red/trial21.png,,,0,16,redHorizontal,a,25,26,female,2021-02-19_15h29.12.399,exp11,2020.2.6,MacIntel,60,,,,,,,,,,,
,,,,,,,,,,,,,,a,1,1.862,space,0.571,0,47,47,119,1,0_targ_1_dist_red/trial20.png,,,0,1,redHorizontal,a,25,26,female,2021-02-19_15h29.12.399,exp11,2020.2.6,MacIntel,60,,,,,,,,,,,
,,,,,,,,,,,,,,a,1,4.032,space,0.702,0,48,48,135,1,0_targ_4_dist_red/trial11.png,,,0,4,redHorizontal,a,25,26,female,2021-02-19_15h29.12.399,exp11,2020.2.6,MacIntel,60,,,,,,,,,,,
,,,,,,,,,,,,,,a,0,1.65,space,0.717,0,49,49,79,1,15_dist_red/trial5.png,,,1,15,redHorizontal,p,25,26,female,2021-02-19_15h29.12.399,exp11,2020.2.6,MacIntel,60,,,,,,,,,,,
,,,,,,,,,,,,,,p,1,0.805,space,0.664,0,50,50,23,1,0_dist_red/trial24.png,,,1,0,redHorizontal,p,25,26,female,2021-02-19_15h29.12.399,exp11,2020.2.6,MacIntel,60,,,,,,,,,,,
,,,,,,,,,,,,,,p,0,0.659,space,0.875,0,51,51,102,1,0_targ_1_dist_red/trial3.png,,,0,1,redHorizontal,a,25,26,female,2021-02-19_15h29.12.399,exp11,2020.2.6,MacIntel,60,,,,,,,,,,,
,,,,,,,,,,,,,,a,0,3.863,space,0.81,0,52,52,54,1,9_dist_red/trial5.png,,,1,9,redHorizontal,p,25,26,female,2021-02-19_15h29.12.399,exp11,2020.2.6,MacIntel,60,,,,,,,,,,,
,,,,,,,,,,,,,,a,0,1.547,space,0.01,0,53,53,85,1,15_dist_red/trial11.png,,,1,15,redHorizontal,p,25,26,female,2021-02-19_15h29.12.399,exp11,2020.2.6,MacIntel,60,,,,,,,,,,,
,,,,,,,,,,,,,,a,1,0.774,space,0.634,0,54,54,178,1,0_targ_16_dist_red/trial4.png,,,0,16,redHorizontal,a,25,26,female,2021-02-19_15h29.12.399,exp11,2020.2.6,MacIntel,60,,,,,,,,,,,
,,,,,,,,,,,,,,a,0,2.516,space,0.843,0,55,55,53,1,9_dist_red/trial4.png,,,1,9,redHorizontal,p,25,26,female,2021-02-19_15h29.12.399,exp11,2020.2.6,MacIntel,60,,,,,,,,,,,
,,,,,,,,,,,,,,a,0,2.4,space,0.968,0,56,56,45,1,3_dist_red/trial21.png,,,1,3,redHorizontal,p,25,26,female,2021-02-19_15h29.12.399,exp11,2020.2.6,MacIntel,60,,,,,,,,,,,
,,,,,,,,,,,,,,p,1,1.431,space,1.191,0,57,57,33,1,3_dist_red/trial9.png,,,1,3,redHorizontal,p,25,26,female,2021-02-19_15h29.12.399,exp11,2020.2.6,MacIntel,60,,,,,,,,,,,
,,,,,,,,,,,,,,p,0,0.875,space,0.726,0,58,58,128,1,0_targ_4_dist_red/trial4.png,,,0,4,redHorizontal,a,25,26,female,2021-02-19_15h29.12.399,exp11,2020.2.6,MacIntel,60,,,,,,,,,,,
,,,,,,,,,,,,,,p,1,1.277,space,0.595,0,59,59,42,1,3_dist_red/trial18.png,,,1,3,redHorizontal,p,25,26,female,2021-02-19_15h29.12.399,exp11,2020.2.6,MacIntel,60,,,,,,,,,,,
,,,,,,,,,,,,,,p,0,2.979,space,1.185,0,60,60,105,1,0_targ_1_dist_red/trial6.png,,,0,1,redHorizontal,a,25,26,female,2021-02-19_15h29.12.399,exp11,2020.2.6,MacIntel,60,,,,,,,,,,,
,,,,,,,,,,,,,,a,0,1.838,space,1.127,0,61,61,51,1,9_dist_red/trial2.png,,,1,9,redHorizontal,p,25,26,female,2021-02-19_15h29.12.399,exp11,2020.2.6,MacIntel,60,,,,,,,,,,,
,,,,,,,,,,,,,,p,1,1.059,space,0.723,0,62,62,11,1,0_dist_red/trial12.png,,,1,0,redHorizontal,p,25,26,female,2021-02-19_15h29.12.399,exp11,2020.2.6,MacIntel,60,,,,,,,,,,,
,,,,,,,,,,,,,,p,0,1.715,space,1.15,0,63,63,147,1,0_targ_4_dist_red/trial23.png,,,0,4,redHorizontal,a,25,26,female,2021-02-19_15h29.12.399,exp11,2020.2.6,MacIntel,60,,,,,,,,,,,
,,,,,,,,,,,,,,a,1,5.855,space,0.619,0,64,64,163,1,0_targ_10_dist_red/trial14.png,,,0,10,redHorizontal,a,25,26,female,2021-02-19_15h29.12.399,exp11,2020.2.6,MacIntel,60,,,,,,,,,,,
,,,,,,,,,,,,,,a,0,3.708,space,0.443,0,65,65,74,1,9_dist_red/trial25.png,,,1,9,redHorizontal,p,25,26,female,2021-02-19_15h29.12.399,exp11,2020.2.6,MacIntel,60,,,,,,,,,,,
,,,,,,,,,,,,,,p,0,2.044,space,1.659,0,66,66,155,1,0_targ_10_dist_red/trial6.png,,,0,10,redHorizontal,a,25,26,female,2021-02-19_15h29.12.399,exp11,2020.2.6,MacIntel,60,,,,,,,,,,,
,,,,,,,,,,,,,,p,1,1.093,space,0.681,0,67,67,17,1,0_dist_red/trial18.png,,,1,0,redHorizontal,p,25,26,female,2021-02-19_15h29.12.399,exp11,2020.2.6,MacIntel,60,,,,,,,,,,,
,,,,,,,,,,,,,,a,0,0.81,space,0.17,0,68,68,57,1,9_dist_red/trial8.png,,,1,9,redHorizontal,p,25,26,female,2021-02-19_15h29.12.399,exp11,2020.2.6,MacIntel,60,,,,,,,,,,,
,,,,,,,,,,,,,,p,1,0.724,space,0.504,0,69,69,35,1,3_dist_red/trial11.png,,,1,3,redHorizontal,p,25,26,female,2021-02-19_15h29.12.399,exp11,2020.2.6,MacIntel,60,,,,,,,,,,,
,,,,,,,,,,,,,,p,1,0.972,space,0.627,0,70,70,58,1,9_dist_red/trial9.png,,,1,9,redHorizontal,p,25,26,female,2021-02-19_15h29.12.399,exp11,2020.2.6,MacIntel,60,,,,,,,,,,,
,,,,,,,,,,,,,,a,1,1.568,space,0.625,0,71,71,129,1,0_targ_4_dist_red/trial5.png,,,0,4,redHorizontal,a,25,26,female,2021-02-19_15h29.12.399,exp11,2020.2.6,MacIntel,60,,,,,,,,,,,
,,,,,,,,,,,,,,p,0,1.422,space,1.957,0,72,72,121,1,0_targ_1_dist_red/trial22.png,,,0,1,redHorizontal,a,25,26,female,2021-02-19_15h29.12.399,exp11,2020.2.6,MacIntel,60,,,,,,,,,,,
,,,,,,,,,,,,,,p,1,1.213,space,0.569,0,73,73,15,1,0_dist_red/trial16.png,,,1,0,redHorizontal,p,25,26,female,2021-02-19_15h29.12.399,exp11,2020.2.6,MacIntel,60,,,,,,,,,,,
,,,,,,,,,,,,,,p,1,0.775,space,0.483,0,74,74,89,1,15_dist_red/trial15.png,,,1,15,redHorizontal,p,25,26,female,2021-02-19_15h29.12.399,exp11,2020.2.6,MacIntel,60,,,,,,,,,,,
,,,,,,,,,,,,,,p,1,0.402,space,0.517,0,75,75,91,1,15_dist_red/trial17.png,,,1,15,redHorizontal,p,25,26,female,2021-02-19_15h29.12.399,exp11,2020.2.6,MacIntel,60,,,,,,,,,,,
,,,,,,,,,,,,,,p,1,0.624,space,0.503,0,76,76,32,1,3_dist_red/trial8.png,,,1,3,redHorizontal,p,25,26,female,2021-02-19_15h29.12.399,exp11,2020.2.6,MacIntel,60,,,,,,,,,,,
,,,,,,,,,,,,,,p,1,0.492,space,0.504,0,77,77,83,1,15_dist_red/trial9.png,,,1,15,redHorizontal,p,25,26,female,2021-02-19_15h29.12.399,exp11,2020.2.6,MacIntel,60,,,,,,,,,,,
,,,,,,,,,,,,,,p,0,0.839,space,0.133,0,78,78,118,1,0_targ_1_dist_red/trial19.png,,,0,1,redHorizontal,a,25,26,female,2021-02-19_15h29.12.399,exp11,2020.2.6,MacIntel,60,,,,,,,,,,,
,,,,,,,,,,,,,,p,1,0.896,space,0.512,0,79,79,55,1,9_dist_red/trial6.png,,,1,9,redHorizontal,p,25,26,female,2021-02-19_15h29.12.399,exp11,2020.2.6,MacIntel,60,,,,,,,,,,,
,,,,,,,,,,,,,,p,1,1.09,space,0.518,0,80,80,56,1,9_dist_red/trial7.png,,,1,9,redHorizontal,p,25,26,female,2021-02-19_15h29.12.399,exp11,2020.2.6,MacIntel,60,,,,,,,,,,,
,,,,,,,,,,,,,,p,1,0.633,space,0.451,0,81,81,77,1,15_dist_red/trial3.png,,,1,15,redHorizontal,p,25,26,female,2021-02-19_15h29.12.399,exp11,2020.2.6,MacIntel,60,,,,,,,,,,,
,,,,,,,,,,,,,,a,0,0.539,space,0.1,0,82,82,0,1,0_dist_red/trial1.png,,,1,0,redHorizontal,p,25,26,female,2021-02-19_15h29.12.399,exp11,2020.2.6,MacIntel,60,,,,,,,,,,,
,,,,,,,,,,,,,,a,1,1.345,space,0.529,0,83,83,174,1,0_targ_10_dist_red/trial25.png,,,0,10,redHorizontal,a,25,26,female,2021-02-19_15h29.12.399,exp11,2020.2.6,MacIntel,60,,,,,,,,,,,
,,,,,,,,,,,,,,a,0,0.823,space,0.926,0,84,84,28,1,3_dist_red/trial4.png,,,1,3,redHorizontal,p,25,26,female,2021-02-19_15h29.12.399,exp11,2020.2.6,MacIntel,60,,,,,,,,,,,
,,,,,,,,,,,,,,p,1,0.574,space,0.903,0,85,85,46,1,3_dist_red/trial22.png,,,1,3,redHorizontal,p,25,26,female,2021-02-19_15h29.12.399,exp11,2020.2.6,MacIntel,60,,,,,,,,,,,
,,,,,,,,,,,,,,p,0,0.873,space,2.509,0,86,86,145,1,0_targ_4_dist_red/trial21.png,,,0,4,redHorizontal,a,25,26,female,2021-02-19_15h29.12.399,exp11,2020.2.6,MacIntel,60,,,,,,,,,,,
,,,,,,,,,,,,,,p,0,0.686,space,1.032,0,87,87,168,1,0_targ_10_dist_red/trial19.png,,,0,10,redHorizontal,a,25,26,female,2021-02-19_15h29.12.399,exp11,2020.2.6,MacIntel,60,,,,,,,,,,,
,,,,,,,,,,,,,,p,1,0.708,space,0.503,0,88,88,9,1,0_dist_red/trial10.png,,,1,0,redHorizontal,p,25,26,female,2021-02-19_15h29.12.399,exp11,2020.2.6,MacIntel,60,,,,,,,,,,,
,,,,,,,,,,,,,,a,0,0.517,space,0.058,0,89,89,39,1,3_dist_red/trial15.png,,,1,3,redHorizontal,p,25,26,female,2021-02-19_15h29.12.399,exp11,2020.2.6,MacIntel,60,,,,,,,,,,,
,,,,,,,,,,,,,,a,1,0.811,space,0.431,0,90,90,132,1,0_targ_4_dist_red/trial8.png,,,0,4,redHorizontal,a,25,26,female,2021-02-19_15h29.12.399,exp11,2020.2.6,MacIntel,60,,,,,,,,,,,
,,,,,,,,,,,,,,a,0,0.433,space,0.676,0,91,91,64,1,9_dist_red/trial15.png,,,1,9,redHorizontal,p,25,26,female,2021-02-19_15h29.12.399,exp11,2020.2.6,MacIntel,60,,,,,,,,,,,
,,,,,,,,,,,,,,a,1,1.072,space,0.47,0,92,92,177,1,0_targ_16_dist_red/trial3.png,,,0,16,redHorizontal,a,25,26,female,2021-02-19_15h29.12.399,exp11,2020.2.6,MacIntel,60,,,,,,,,,,,
,,,,,,,,,,,,,,p,1,0.795,space,0.484,0,93,93,80,1,15_dist_red/trial6.png,,,1,15,redHorizontal,p,25,26,female,2021-02-19_15h29.12.399,exp11,2020.2.6,MacIntel,60,,,,,,,,,,,
,,,,,,,,,,,,,,p,0,0.543,space,0.567,0,94,94,176,1,0_targ_16_dist_red/trial2.png,,,0,16,redHorizontal,a,25,26,female,2021-02-19_15h29.12.399,exp11,2020.2.6,MacIntel,60,,,,,,,,,,,
,,,,,,,,,,,,,,p,0,0.668,space,0.928,0,95,95,114,1,0_targ_1_dist_red/trial15.png,,,0,1,redHorizontal,a,25,26,female,2021-02-19_15h29.12.399,exp11,2020.2.6,MacIntel,60,,,,,,,,,,,
,,,,,,,,,,,,,,a,1,0.61,space,0.638,0,96,96,136,1,0_targ_4_dist_red/trial12.png,,,0,4,redHorizontal,a,25,26,female,2021-02-19_15h29.12.399,exp11,2020.2.6,MacIntel,60,,,,,,,,,,,
,,,,,,,,,,,,,,a,0,0.592,space,0.051,0,97,97,93,1,15_dist_red/trial19.png,,,1,15,redHorizontal,p,25,26,female,2021-02-19_15h29.12.399,exp11,2020.2.6,MacIntel,60,,,,,,,,,,,
,,,,,,,,,,,,,,a,1,1.286,space,0.529,0,98,98,196,1,0_targ_16_dist_red/trial22.png,,,0,16,redHorizontal,a,25,26,female,2021-02-19_15h29.12.399,exp11,2020.2.6,MacIntel,60,,,,,,,,,,,
,,,,,,,,,,,,,,p,0,4.857,space,0.81,0,99,99,152,1,0_targ_10_dist_red/trial3.png,,,0,10,redHorizontal,a,25,26,female,2021-02-19_15h29.12.399,exp11,2020.2.6,MacIntel,60,,,,,,,,,,,
,,,,,,,,,,,,,,a,0,1.141,space,0.893,0,100,100,96,1,15_dist_red/trial22.png,,,1,15,redHorizontal,p,25,26,female,2021-02-19_15h29.12.399,exp11,2020.2.6,MacIntel,60,,,,,,,,,,,
,,,,,,,,,,,,,,p,1,0.874,space,0.496,0,101,101,61,1,9_dist_red/trial12.png,,,1,9,redHorizontal,p,25,26,female,2021-02-19_15h29.12.399,exp11,2020.2.6,MacIntel,60,,,,,,,,,,,
,,,,,,,,,,,,,,p,1,0.76,space,0.549,0,102,102,31,1,3_dist_red/trial7.png,,,1,3,redHorizontal,p,25,26,female,2021-02-19_15h29.12.399,exp11,2020.2.6,MacIntel,60,,,,,,,,,,,
,,,,,,,,,,,,,,p,0,1.915,space,0.687,0,103,103,124,1,0_targ_1_dist_red/trial25.png,,,0,1,redHorizontal,a,25,26,female,2021-02-19_15h29.12.399,exp11,2020.2.6,MacIntel,60,,,,,,,,,,,
,,,,,,,,,,,,,,p,1,0.64,space,0.452,0,104,104,67,1,9_dist_red/trial18.png,,,1,9,redHorizontal,p,25,26,female,2021-02-19_15h29.12.399,exp11,2020.2.6,MacIntel,60,,,,,,,,,,,
,,,,,,,,,,,,,,a,0,0.46,space,0.666,0,105,105,6,1,0_dist_red/trial7.png,,,1,0,redHorizontal,p,25,26,female,2021-02-19_15h29.12.399,exp11,2020.2.6,MacIntel,60,,,,,,,,,,,
,,,,,,,,,,,,,,a,1,1.765,space,0.482,0,106,106,109,1,0_targ_1_dist_red/trial10.png,,,0,1,redHorizontal,a,25,26,female,2021-02-19_15h29.12.399,exp11,2020.2.6,MacIntel,60,,,,,,,,,,,
,,,,,,,,,,,,,,a,1,0.773,space,0.542,0,107,107,116,1,0_targ_1_dist_red/trial17.png,,,0,1,redHorizontal,a,25,26,female,2021-02-19_15h29.12.399,exp11,2020.2.6,MacIntel,60,,,,,,,,,,,
,,,,,,,,,,,,,,a,1,0.728,space,0.408,0,108,108,120,1,0_targ_1_dist_red/trial21.png,,,0,1,redHorizontal,a,25,26,female,2021-02-19_15h29.12.399,exp11,2020.2.6,MacIntel,60,,,,,,,,,,,
,,,,,,,,,,,,,,p,1,1.559,space,0.567,0,109,109,88,1,15_dist_red/trial14.png,,,1,15,redHorizontal,p,25,26,female,2021-02-19_15h29.12.399,exp11,2020.2.6,MacIntel,60,,,,,,,,,,,
,,,,,,,,,,,,,,p,0,0.597,space,0.36,0,110,110,170,1,0_targ_10_dist_red/trial21.png,,,0,10,redHorizontal,a,25,26,female,2021-02-19_15h29.12.399,exp11,2020.2.6,MacIntel,60,,,,,,,,,,,
,,,,,,,,,,,,,,p,0,0.782,space,0.337,0,111,111,185,1,0_targ_16_dist_red/trial11.png,,,0,16,redHorizontal,a,25,26,female,2021-02-19_15h29.12.399,exp11,2020.2.6,MacIntel,60,,,,,,,,,,,
,,,,,,,,,,,,,,a,0,0.393,space,0.149,0,112,112,84,1,15_dist_red/trial10.png,,,1,15,redHorizontal,p,25,26,female,2021-02-19_15h29.12.399,exp11,2020.2.6,MacIntel,60,,,,,,,,,,,
,,,,,,,,,,,,,,a,0,2.144,space,0.258,0,113,113,62,1,9_dist_red/trial13.png,,,1,9,redHorizontal,p,25,26,female,2021-02-19_15h29.12.399,exp11,2020.2.6,MacIntel,60,,,,,,,,,,,
,,,,,,,,,,,,,,a,1,0.758,space,0.469,0,114,114,142,1,0_targ_4_dist_red/trial18.png,,,0,4,redHorizontal,a,25,26,female,2021-02-19_15h29.12.399,exp11,2020.2.6,MacIntel,60,,,,,,,,,,,
,,,,,,,,,,,,,,p,0,0.666,space,0.64,0,115,115,188,1,0_targ_16_dist_red/trial14.png,,,0,16,redHorizontal,a,25,26,female,2021-02-19_15h29.12.399,exp11,2020.2.6,MacIntel,60,,,,,,,,,,,
,,,,,,,,,,,,,,a,1,0.542,space,0.569,0,116,116,179,1,0_targ_16_dist_red/trial5.png,,,0,16,redHorizontal,a,25,26,female,2021-02-19_15h29.12.399,exp11,2020.2.6,MacIntel,60,,,,,,,,,,,
,,,,,,,,,,,,,,a,1,0.69,space,0.507,0,117,117,112,1,0_targ_1_dist_red/trial13.png,,,0,1,redHorizontal,a,25,26,female,2021-02-19_15h29.12.399,exp11,2020.2.6,MacIntel,60,,,,,,,,,,,
,,,,,,,,,,,,,,a,0,0.741,space,0.186,0,118,118,25,1,3_dist_red/trial1.png,,,1,3,redHorizontal,p,25,26,female,2021-02-19_15h29.12.399,exp11,2020.2.6,MacIntel,60,,,,,,,,,,,
,,,,,,,,,,,,,,p,0,0.608,space,0.767,0,119,119,133,1,0_targ_4_dist_red/trial9.png,,,0,4,redHorizontal,a,25,26,female,2021-02-19_15h29.12.399,exp11,2020.2.6,MacIntel,60,,,,,,,,,,,
,,,,,,,,,,,,,,p,0,0.779,space,0.49,0,120,120,143,1,0_targ_4_dist_red/trial19.png,,,0,4,redHorizontal,a,25,26,female,2021-02-19_15h29.12.399,exp11,2020.2.6,MacIntel,60,,,,,,,,,,,
,,,,,,,,,,,,,,a,1,1.096,space,0.797,0,121,121,115,1,0_targ_1_dist_red/trial6.png,,,0,1,redHorizontal,a,25,26,female,2021-02-19_15h29.12.399,exp11,2020.2.6,MacIntel,60,,,,,,,,,,,
,,,,,,,,,,,,,,a,1,0.741,space,0.617,0,122,122,123,1,0_targ_1_dist_red/trial24.png,,,0,1,redHorizontal,a,25,26,female,2021-02-19_15h29.12.399,exp11,2020.2.6,MacIntel,60,,,,,,,,,,,
,,,,,,,,,,,,,,a,1,0.831,space,0.6,0,123,123,140,1,0_targ_4_dist_red/trial6.png,,,0,4,redHorizontal,a,25,26,female,2021-02-19_15h29.12.399,exp11,2020.2.6,MacIntel,60,,,,,,,,,,,
,,,,,,,,,,,,,,p,0,0.947,space,0.784,0,124,124,164,1,0_targ_10_dist_red/trial15.png,,,0,10,redHorizontal,a,25,26,female,2021-02-19_15h29.12.399,exp11,2020.2.6,MacIntel,60,,,,,,,,,,,
,,,,,,,,,,,,,,a,1,0.673,space,0.565,0,125,125,141,1,0_targ_4_dist_red/trial17.png,,,0,4,redHorizontal,a,25,26,female,2021-02-19_15h29.12.399,exp11,2020.2.6,MacIntel,60,,,,,,,,,,,
,,,,,,,,,,,,,,a,0,0.652,space,0.494,0,126,126,68,1,9_dist_red/trial19.png,,,1,9,redHorizontal,p,25,26,female,2021-02-19_15h29.12.399,exp11,2020.2.6,MacIntel,60,,,,,,,,,,,
,,,,,,,,,,,,,,p,1,0.74,space,0.545,0,127,127,13,1,0_dist_red/trial14.png,,,1,0,redHorizontal,p,25,26,female,2021-02-19_15h29.12.399,exp11,2020.2.6,MacIntel,60,,,,,,,,,,,
,,,,,,,,,,,,,,p,0,0.673,space,0.883,0,128,128,131,1,0_targ_4_dist_red/trial7.png,,,0,4,redHorizontal,a,25,26,female,2021-02-19_15h29.12.399,exp11,2020.2.6,MacIntel,60,,,,,,,,,,,
,,,,,,,,,,,,,,p,1,0.939,space,0.678,0,129,129,14,1,0_dist_red/trial15.png,,,1,0,redHorizontal,p,25,26,female,2021-02-19_15h29.12.399,exp11,2020.2.6,MacIntel,60,,,,,,,,,,,
,,,,,,,,,,,,,,p,0,1.008,space,0.208,0,130,130,144,1,0_targ_4_dist_red/trial20.png,,,0,4,redHorizontal,a,25,26,female,2021-02-19_15h29.12.399,exp11,2020.2.6,MacIntel,60,,,,,,,,,,,
,,,,,,,,,,,,,,p,0,0.636,space,0.818,0,131,131,106,1,0_targ_1_dist_red/trial7.png,,,0,1,redHorizontal,a,25,26,female,2021-02-19_15h29.12.399,exp11,2020.2.6,MacIntel,60,,,,,,,,,,,
,,,,,,,,,,,,,,a,0,0.65,space,0.657,0,132,132,21,1,0_dist_red/trial22.png,,,1,0,redHorizontal,p,25,26,female,2021-02-19_15h29.12.399,exp11,2020.2.6,MacIntel,60,,,,,,,,,,,
,,,,,,,,,,,,,,p,1,0.783,space,0.73,0,133,133,20,1,0_dist_red/trial21.png,,,1,0,redHorizontal,p,25,26,female,2021-02-19_15h29.12.399,exp11,2020.2.6,MacIntel,60,,,,,,,,,,,
,,,,,,,,,,,,,,p,1,0.577,space,0.569,0,134,134,1,1,0_dist_red/trial2.png,,,1,0,redHorizontal,p,25,26,female,2021-02-19_15h29.12.399,exp11,2020.2.6,MacIntel,60,,,,,,,,,,,
,,,,,,,,,,,,,,p,0,0.407,space,0.65,0,135,135,111,1,0_targ_1_dist_red/trial12.png,,,0,1,redHorizontal,a,25,26,female,2021-02-19_15h29.12.399,exp11,2020.2.6,MacIntel,60,,,,,,,,,,,
,,,,,,,,,,,,,,a,1,1.29,space,0.602,0,136,136,194,1,0_targ_16_dist_red/trial20.png,,,0,16,redHorizontal,a,25,26,female,2021-02-19_15h29.12.399,exp11,2020.2.6,MacIntel,60,,,,,,,,,,,
,,,,,,,,,,,,,,a,1,0.541,space,0.625,0,137,137,192,1,0_targ_16_dist_red/trial18.png,,,0,16,redHorizontal,a,25,26,female,2021-02-19_15h29.12.399,exp11,2020.2.6,MacIntel,60,,,,,,,,,,,
,,,,,,,,,,,,,,a,1,0.541,space,0.542,0,138,138,162,1,0_targ_10_dist_red/trial13.png,,,0,10,redHorizontal,a,25,26,female,2021-02-19_15h29.12.399,exp11,2020.2.6,MacIntel,60,,,,,,,,,,,
,,,,,,,,,,,,,,a,1,0.578,space,0.618,0,139,139,167,1,0_targ_10_dist_red/trial18.png,,,0,10,redHorizontal,a,25,26,female,2021-02-19_15h29.12.399,exp11,2020.2.6,MacIntel,60,,,,,,,,,,,
,,,,,,,,,,,,,,a,1,0.457,space,0.539,0,140,140,160,1,0_targ_10_dist_red/trial11.png,,,0,10,redHorizontal,a,25,26,female,2021-02-19_15h29.12.399,exp11,2020.2.6,MacIntel,60,,,,,,,,,,,
,,,,,,,,,,,,,,a,1,0.538,space,0.524,0,141,141,148,1,0_targ_4_dist_red/trial24.png,,,0,4,redHorizontal,a,25,26,female,2021-02-19_15h29.12.399,exp11,2020.2.6,MacIntel,60,,,,,,,,,,,
,,,,,,,,,,,,,,a,1,0.562,space,0.567,0,142,142,134,1,0_targ_4_dist_red/trial10.png,,,0,4,redHorizontal,a,25,26,female,2021-02-19_15h29.12.399,exp11,2020.2.6,MacIntel,60,,,,,,,,,,,
,,,,,,,,,,,,,,a,1,0.49,space,0.534,0,143,143,150,1,0_targ_10_dist_red/trial1.png,,,0,10,redHorizontal,a,25,26,female,2021-02-19_15h29.12.399,exp11,2020.2.6,MacIntel,60,,,,,,,,,,,
,,,,,,,,,,,,,,a,0,0.594,space,0.667,0,144,144,87,1,15_dist_red/trial13.png,,,1,15,redHorizontal,p,25,26,female,2021-02-19_15h29.12.399,exp11,2020.2.6,MacIntel,60,,,,,,,,,,,
,,,,,,,,,,,,,,p,0,0.979,space,0.195,0,145,145,161,1,0_targ_10_dist_red/trial12.png,,,0,10,redHorizontal,a,25,26,female,2021-02-19_15h29.12.399,exp11,2020.2.6,MacIntel,60,,,,,,,,,,,
,,,,,,,,,,,,,,a,1,0.594,space,0.963,0,146,146,117,1,0_targ_1_dist_red/trial18.png,,,0,1,redHorizontal,a,25,26,female,2021-02-19_15h29.12.399,exp11,2020.2.6,MacIntel,60,,,,,,,,,,,
,,,,,,,,,,,,,,a,1,0.532,space,0.617,0,147,147,130,1,0_targ_4_dist_red/trial6.png,,,0,4,redHorizontal,a,25,26,female,2021-02-19_15h29.12.399,exp11,2020.2.6,MacIntel,60,,,,,,,,,,,
,,,,,,,,,,,,,,a,0,1.197,space,0.942,0,148,148,41,1,3_dist_red/trial17.png,,,1,3,redHorizontal,p,25,26,female,2021-02-19_15h29.12.399,exp11,2020.2.6,MacIntel,60,,,,,,,,,,,
,,,,,,,,,,,,,,a,0,1.356,space,0.11,0,149,149,63,1,9_dist_red/trial14.png,,,1,9,redHorizontal,p,25,26,female,2021-02-19_15h29.12.399,exp11,2020.2.6,MacIntel,60,,,,,,,,,,,
,,,,,,,,,,,,,,a,1,0.698,space,0.478,0,150,150,190,1,0_targ_16_dist_red/trial16.png,,,0,16,redHorizontal,a,25,26,female,2021-02-19_15h29.12.399,exp11,2020.2.6,MacIntel,60,,,,,,,,,,,
,,,,,,,,,,,,,,a,1,0.978,space,0.419,0,151,151,149,1,0_targ_4_dist_red/trial25.png,,,0,4,redHorizontal,a,25,26,female,2021-02-19_15h29.12.399,exp11,2020.2.6,MacIntel,60,,,,,,,,,,,
,,,,,,,,,,,,,,p,1,1.392,space,0.6,0,152,152,38,1,3_dist_red/trial14.png,,,1,3,redHorizontal,p,25,26,female,2021-02-19_15h29.12.399,exp11,2020.2.6,MacIntel,60,,,,,,,,,,,
,,,,,,,,,,,,,,p,0,0.624,space,0.584,0,153,153,108,1,0_targ_1_dist_red/trial9.png,,,0,1,redHorizontal,a,25,26,female,2021-02-19_15h29.12.399,exp11,2020.2.6,MacIntel,60,,,,,,,,,,,
,,,,,,,,,,,,,,a,1,0.706,space,0.786,0,154,154,138,1,0_targ_4_dist_red/trial14.png,,,0,4,redHorizontal,a,25,26,female,2021-02-19_15h29.12.399,exp11,2020.2.6,MacIntel,60,,,,,,,,,,,
,,,,,,,,,,,,,,a,0,0.615,space,0.156,0,155,155,86,1,15_dist_red/trial12.png,,,1,15,redHorizontal,p,25,26,female,2021-02-19_15h29.12.399,exp11,2020.2.6,MacIntel,60,,,,,,,,,,,
,,,,,,,,,,,,,,a,0,0.726,space,0.042,0,156,156,99,1,15_dist_red/trial25.png,,,1,15,redHorizontal,p,25,26,female,2021-02-19_15h29.12.399,exp11,2020.2.6,MacIntel,60,,,,,,,,,,,
,,,,,,,,,,,,,,a,0,0.731,space,0.157,0,157,157,59,1,9_dist_red/trial10.png,,,1,9,redHorizontal,p,25,26,female,2021-02-19_15h29.12.399,exp11,2020.2.6,MacIntel,60,,,,,,,,,,,
,,,,,,,,,,,,,,p,0,0.91,space,0.777,0,158,158,107,1,0_targ_1_dist_red/trial8.png,,,0,1,redHorizontal,a,25,26,female,2021-02-19_15h29.12.399,exp11,2020.2.6,MacIntel,60,,,,,,,,,,,
,,,,,,,,,,,,,,a,0,0.447,space,0.718,0,159,159,8,1,0_dist_red/trial9.png,,,1,0,redHorizontal,p,25,26,female,2021-02-19_15h29.12.399,exp11,2020.2.6,MacIntel,60,,,,,,,,,,,
,,,,,,,,,,,,,,p,1,2.781,space,0.589,0,160,160,94,1,15_dist_red/trial20.png,,,1,15,redHorizontal,p,25,26,female,2021-02-19_15h29.12.399,exp11,2020.2.6,MacIntel,60,,,,,,,,,,,
,,,,,,,,,,,,,,p,1,0.989,space,0.593,0,161,161,37,1,3_dist_red/trial13.png,,,1,3,redHorizontal,p,25,26,female,2021-02-19_15h29.12.399,exp11,2020.2.6,MacIntel,60,,,,,,,,,,,
,,,,,,,,,,,,,,a,0,1.523,space,1.473,0,162,162,73,1,9_dist_red/trial24.png,,,1,9,redHorizontal,p,25,26,female,2021-02-19_15h29.12.399,exp11,2020.2.6,MacIntel,60,,,,,,,,,,,
,,,,,,,,,,,,,,p,1,1.531,space,0.595,0,163,163,69,1,9_dist_red/trial20.png,,,1,9,redHorizontal,p,25,26,female,2021-02-19_15h29.12.399,exp11,2020.2.6,MacIntel,60,,,,,,,,,,,
,,,,,,,,,,,,,,p,0,0.643,space,0.275,0,164,164,156,1,0_targ_10_dist_red/trial7.png,,,0,10,redHorizontal,a,25,26,female,2021-02-19_15h29.12.399,exp11,2020.2.6,MacIntel,60,,,,,,,,,,,
,,,,,,,,,,,,,,a,0,0.906,space,0.623,0,165,165,43,1,3_dist_red/trial19.png,,,1,3,redHorizontal,p,25,26,female,2021-02-19_15h29.12.399,exp11,2020.2.6,MacIntel,60,,,,,,,,,,,
,,,,,,,,,,,,,,p,1,1.86,space,0.414,0,166,166,44,1,3_dist_red/trial20.png,,,1,3,redHorizontal,p,25,26,female,2021-02-19_15h29.12.399,exp11,2020.2.6,MacIntel,60,,,,,,,,,,,
,,,,,,,,,,,,,,p,0,1.59,space,1.126,0,167,167,193,1,0_targ_16_dist_red/trial19.png,,,0,16,redHorizontal,a,25,26,female,2021-02-19_15h29.12.399,exp11,2020.2.6,MacIntel,60,,,,,,,,,,,
,,,,,,,,,,,,,,a,0,0.719,space,0.368,0,168,168,18,1,0_dist_red/trial19.png,,,1,0,redHorizontal,p,25,26,female,2021-02-19_15h29.12.399,exp11,2020.2.6,MacIntel,60,,,,,,,,,,,
,,,,,,,,,,,,,,p,0,0.932,space,0.35,0,169,169,184,1,0_targ_16_dist_red/trial10.png,,,0,16,redHorizontal,a,25,26,female,2021-02-19_15h29.12.399,exp11,2020.2.6,MacIntel,60,,,,,,,,,,,
,,,,,,,,,,,,,,p,0,0.741,space,0.111,0,170,170,175,1,0_targ_16_dist_red/trial1.png,,,0,16,redHorizontal,a,25,26,female,2021-02-19_15h29.12.399,exp11,2020.2.6,MacIntel,60,,,,,,,,,,,
,,,,,,,,,,,,,,a,1,0.848,space,0.611,0,171,171,137,1,0_targ_4_dist_red/trial13.png,,,0,4,redHorizontal,a,25,26,female,2021-02-19_15h29.12.399,exp11,2020.2.6,MacIntel,60,,,,,,,,,,,
,,,,,,,,,,,,,,a,1,1.399,space,0.517,0,172,172,183,1,0_targ_16_dist_red/trial9.png,,,0,16,redHorizontal,a,25,26,female,2021-02-19_15h29.12.399,exp11,2020.2.6,MacIntel,60,,,,,,,,,,,
,,,,,,,,,,,,,,a,0,0.641,space,0.358,0,173,173,48,1,3_dist_red/trial24.png,,,1,3,redHorizontal,p,25,26,female,2021-02-19_15h29.12.399,exp11,2020.2.6,MacIntel,60,,,,,,,,,,,
,,,,,,,,,,,,,,p,0,0.615,space,0.107,0,174,174,122,1,0_targ_1_dist_red/trial23.png,,,0,1,redHorizontal,a,25,26,female,2021-02-19_15h29.12.399,exp11,2020.2.6,MacIntel,60,,,,,,,,,,,
,,,,,,,,,,,,,,a,0,0.657,space,0.157,0,175,175,22,1,0_dist_red/trial23.png,,,1,0,redHorizontal,p,25,26,female,2021-02-19_15h29.12.399,exp11,2020.2.6,MacIntel,60,,,,,,,,,,,
,,,,,,,,,,,,,,p,0,1.031,space,0.233,0,176,176,104,1,0_targ_1_dist_red/trial5.png,,,0,1,redHorizontal,a,25,26,female,2021-02-19_15h29.12.399,exp11,2020.2.6,MacIntel,60,,,,,,,,,,,
,,,,,,,,,,,,,,p,1,0.649,space,0.543,0,177,177,92,1,15_dist_red/trial18.png,,,1,15,redHorizontal,p,25,26,female,2021-02-19_15h29.12.399,exp11,2020.2.6,MacIntel,60,,,,,,,,,,,
,,,,,,,,,,,,,,p,1,0.557,space,0.483,0,178,178,95,1,15_dist_red/trial21.png,,,1,15,redHorizontal,p,25,26,female,2021-02-19_15h29.12.399,exp11,2020.2.6,MacIntel,60,,,,,,,,,,,
,,,,,,,,,,,,,,a,0,0.489,space,0.291,0,179,179,24,1,0_dist_red/trial25.png,,,1,0,redHorizontal,p,25,26,female,2021-02-19_15h29.12.399,exp11,2020.2.6,MacIntel,60,,,,,,,,,,,
,,,,,,,,,,,,,,p,1,0.683,space,0.452,0,180,180,98,1,15_dist_red/trial24.png,,,1,15,redHorizontal,p,25,26,female,2021-02-19_15h29.12.399,exp11,2020.2.6,MacIntel,60,,,,,,,,,,,
,,,,,,,,,,,,,,p,0,0.707,space,0.586,0,181,181,173,1,0_targ_10_dist_red/trial24.png,,,0,10,redHorizontal,a,25,26,female,2021-02-19_15h29.12.399,exp11,2020.2.6,MacIntel,60,,,,,,,,,,,
,,,,,,,,,,,,,,p,1,0.706,space,0.444,0,182,182,90,1,15_dist_red/trial16.png,,,1,15,redHorizontal,p,25,26,female,2021-02-19_15h29.12.399,exp11,2020.2.6,MacIntel,60,,,,,,,,,,,
,,,,,,,,,,,,,,p,0,0.752,space,0.709,0,183,183,127,1,0_targ_4_dist_red/trial3.png,,,0,4,redHorizontal,a,25,26,female,2021-02-19_15h29.12.399,exp11,2020.2.6,MacIntel,60,,,,,,,,,,,
,,,,,,,,,,,,,,p,1,0.761,space,0.418,0,184,184,81,1,15_dist_red/trial7.png,,,1,15,redHorizontal,p,25,26,female,2021-02-19_15h29.12.399,exp11,2020.2.6,MacIntel,60,,,,,,,,,,,
,,,,,,,,,,,,,,p,1,0.712,space,0.425,0,185,185,52,1,9_dist_red/trial3.png,,,1,9,redHorizontal,p,25,26,female,2021-02-19_15h29.12.399,exp11,2020.2.6,MacIntel,60,,,,,,,,,,,
,,,,,,,,,,,,,,p,0,0.691,space,0.052,0,186,186,158,1,0_targ_10_dist_red/trial9.png,,,0,10,redHorizontal,a,25,26,female,2021-02-19_15h29.12.399,exp11,2020.2.6,MacIntel,60,,,,,,,,,,,
,,,,,,,,,,,,,,p,0,0.591,space,0.461,0,187,187,153,1,0_targ_10_dist_red/trial4.png,,,0,10,redHorizontal,a,25,26,female,2021-02-19_15h29.12.399,exp11,2020.2.6,MacIntel,60,,,,,,,,,,,
,,,,,,,,,,,,,,p,0,0.593,space,0.25,0,188,188,187,1,0_targ_16_dist_red/trial13.png,,,0,16,redHorizontal,a,25,26,female,2021-02-19_15h29.12.399,exp11,2020.2.6,MacIntel,60,,,,,,,,,,,
,,,,,,,,,,,,,,p,1,1.671,space,0.37,0,189,189,65,1,9_dist_red/trial16.png,,,1,9,redHorizontal,p,25,26,female,2021-02-19_15h29.12.399,exp11,2020.2.6,MacIntel,60,,,,,,,,,,,
,,,,,,,,,,,,,,p,0,0.707,space,0.176,0,190,190,125,1,0_targ_4_dist_red/trial1.png,,,0,4,redHorizontal,a,25,26,female,2021-02-19_15h29.12.399,exp11,2020.2.6,MacIntel,60,,,,,,,,,,,
,,,,,,,,,,,,,,p,0,0.771,space,0.457,0,191,191,169,1,0_targ_10_dist_red/trial20.png,,,0,10,redHorizontal,a,25,26,female,2021-02-19_15h29.12.399,exp11,2020.2.6,MacIntel,60,,,,,,,,,,,
,,,,,,,,,,,,,,a,1,0.541,space,0.468,0,192,192,157,1,0_targ_10_dist_red/trial8.png,,,0,10,redHorizontal,a,25,26,female,2021-02-19_15h29.12.399,exp11,2020.2.6,MacIntel,60,,,,,,,,,,,
,,,,,,,,,,,,,,p,0,1.124,space,0.407,0,193,193,110,1,0_targ_1_dist_red/trial11.png,,,0,1,redHorizontal,a,25,26,female,2021-02-19_15h29.12.399,exp11,2020.2.6,MacIntel,60,,,,,,,,,,,
,,,,,,,,,,,,,,p,0,0.588,space,0.974,0,194,194,165,1,0_targ_10_dist_red/trial16.png,,,0,10,redHorizontal,a,25,26,female,2021-02-19_15h29.12.399,exp11,2020.2.6,MacIntel,60,,,,,,,,,,,
,,,,,,,,,,,,,,p,1,0.64,space,0.511,0,195,195,76,1,15_dist_red/trial2.png,,,1,15,redHorizontal,p,25,26,female,2021-02-19_15h29.12.399,exp11,2020.2.6,MacIntel,60,,,,,,,,,,,
,,,,,,,,,,,,,,p,0,0.666,space,0.192,0,196,196,180,1,0_targ_16_dist_red/trial6.png,,,0,16,redHorizontal,a,25,26,female,2021-02-19_15h29.12.399,exp11,2020.2.6,MacIntel,60,,,,,,,,,,,
,,,,,,,,,,,,,,p,0,0.605,space,0.085,0,197,197,189,1,0_targ_16_dist_red/trial15.png,,,0,16,redHorizontal,a,25,26,female,2021-02-19_15h29.12.399,exp11,2020.2.6,MacIntel,60,,,,,,,,,,,
,,,,,,,,,,,,,,p,1,0.524,space,0.502,0,198,198,27,1,3_dist_red/trial3.png,,,1,3,redHorizontal,p,25,26,female,2021-02-19_15h29.12.399,exp11,2020.2.6,MacIntel,60,,,,,,,,,,,
,,,,,,,,,,,,,,a,0,0.523,space,0.642,0,199,199,30,1,3_dist_red/trial6.png,,,1,3,redHorizontal,p,25,26,female,2021-02-19_15h29.12.399,exp11,2020.2.6,MacIntel,60,,,,,,,,,,,
,,,,,,,,,,,,,,,,,,,,,,,,,,,,,,,25,26,female,2021-02-19_15h29.12.399,exp11,2020.2.6,MacIntel,60,0,0,0,1,1,conRed.xlsx,red horizontal,Look for red horizontal bar (target) and indicate if it is present or absent in the array. If red horizontal target is present press 'p' and if absent press 'a'. Press SPACE to start.,,,
,,,,,,,,,,space,28.935,space,6.062,p,1,0.851,space,1.96,0,0,0,57,1,9_dist_green/trial8.png,,,1,9,greenverival,p,25,26,female,2021-02-19_15h29.12.399,exp11,2020.2.6,MacIntel,60,,,,,,,,,,,
,,,,,,,,,,,,,,p,1,0.888,space,0.987,0,1,1,60,1,9_dist_green/trial11.png,,,1,9,greenverival,p,25,26,female,2021-02-19_15h29.12.399,exp11,2020.2.6,MacIntel,60,,,,,,,,,,,
,,,,,,,,,,,,,,p,1,0.855,space,0.584,0,2,2,94,1,15_dist_green/trial20.png,,,1,15,greenverival,p,25,26,female,2021-02-19_15h29.12.399,exp11,2020.2.6,MacIntel,60,,,,,,,,,,,
,,,,,,,,,,,,,,a,1,0.863,space,0.4,0,3,3,163,1,0_targ_10_dist_green/trial14.png,,,0,10,greenverival,a,25,26,female,2021-02-19_15h29.12.399,exp11,2020.2.6,MacIntel,60,,,,,,,,,,,
,,,,,,,,,,,,,,p,1,0.456,space,0.375,0,4,4,13,1,0_dist_green/trial14.png,,,1,0,greenverival,p,25,26,female,2021-02-19_15h29.12.399,exp11,2020.2.6,MacIntel,60,,,,,,,,,,,
,,,,,,,,,,,,,,p,1,0.656,space,0.366,0,5,5,61,1,9_dist_green/trial12.png,,,1,9,greenverival,p,25,26,female,2021-02-19_15h29.12.399,exp11,2020.2.6,MacIntel,60,,,,,,,,,,,
,,,,,,,,,,,,,,p,1,0.895,space,0.636,0,6,6,82,1,15_dist_green/trial8.png,,,1,15,greenverival,p,25,26,female,2021-02-19_15h29.12.399,exp11,2020.2.6,MacIntel,60,,,,,,,,,,,
,,,,,,,,,,,,,,a,1,0.701,space,0.385,0,7,7,134,1,0_targ_4_dist_green/trial10.png,,,0,4,greenverival,a,25,26,female,2021-02-19_15h29.12.399,exp11,2020.2.6,MacIntel,60,,,,,,,,,,,
,,,,,,,,,,,,,,p,1,1.122,space,0.407,0,8,8,9,1,0_dist_green/trial10.png,,,1,0,greenverival,p,25,26,female,2021-02-19_15h29.12.399,exp11,2020.2.6,MacIntel,60,,,,,,,,,,,
,,,,,,,,,,,,,,a,1,2.277,space,0.391,0,9,9,196,1,0_targ_16_dist_green/trial22.png,,,0,16,greenverival,a,25,26,female,2021-02-19_15h29.12.399,exp11,2020.2.6,MacIntel,60,,,,,,,,,,,
,,,,,,,,,,,,,,a,1,1.276,space,0.268,0,10,10,140,1,0_targ_4_dist_green/trial6.png,,,0,4,greenverival,a,25,26,female,2021-02-19_15h29.12.399,exp11,2020.2.6,MacIntel,60,,,,,,,,,,,
,,,,,,,,,,,,,,p,1,1.113,space,0.284,0,11,11,90,1,15_dist_green/trial16.png,,,1,15,greenverival,p,25,26,female,2021-02-19_15h29.12.399,exp11,2020.2.6,MacIntel,60,,,,,,,,,,,
,,,,,,,,,,,,,,p,1,0.773,space,0.302,0,12,12,91,1,15_dist_green/trial17.png,,,1,15,greenverival,p,25,26,female,2021-02-19_15h29.12.399,exp11,2020.2.6,MacIntel,60,,,,,,,,,,,
,,,,,,,,,,,,,,p,1,0.642,space,0.324,0,13,13,4,1,0_dist_green/trial5.png,,,1,0,greenverival,p,25,26,female,2021-02-19_15h29.12.399,exp11,2020.2.6,MacIntel,60,,,,,,,,,,,
,,,,,,,,,,,,,,p,1,0.614,space,0.269,0,14,14,93,1,15_dist_green/trial19.png,,,1,15,greenverival,p,25,26,female,2021-02-19_15h29.12.399,exp11,2020.2.6,MacIntel,60,,,,,,,,,,,
,,,,,,,,,,,,,,a,1,0.574,space,0.252,0,15,15,138,1,0_targ_4_dist_green/trial14.png,,,0,4,greenverival,a,25,26,female,2021-02-19_15h29.12.399,exp11,2020.2.6,MacIntel,60,,,,,,,,,,,
,,,,,,,,,,,,,,p,1,0.528,space,0.252,0,16,16,21,1,0_dist_green/trial22.png,,,1,0,greenverival,p,25,26,female,2021-02-19_15h29.12.399,exp11,2020.2.6,MacIntel,60,,,,,,,,,,,
,,,,,,,,,,,,,,p,1,0.545,space,0.268,0,17,17,44,1,3_dist_green/trial20.png,,,1,3,greenverival,p,25,26,female,2021-02-19_15h29.12.399,exp11,2020.2.6,MacIntel,60,,,,,,,,,,,
,,,,,,,,,,,,,,a,0,0.859,space,0.466,0,18,18,75,1,15_dist_green/trial1.png,,,1,15,greenverival,p,25,26,female,2021-02-19_15h29.12.399,exp11,2020.2.6,MacIntel,60,,,,,,,,,,,
,,,,,,,,,,,,,,a,1,0.673,space,0.244,0,19,19,152,1,0_targ_10_dist_green/trial3.png,,,0,10,greenverival,a,25,26,female,2021-02-19_15h29.12.399,exp11,2020.2.6,MacIntel,60,,,,,,,,,,,
,,,,,,,,,,,,,,p,1,0.626,space,0.303,0,20,20,68,1,9_dist_green/trial19.png,,,1,9,greenverival,p,25,26,female,2021-02-19_15h29.12.399,exp11,2020.2.6,MacIntel,60,,,,,,,,,,,
,,,,,,,,,,,,,,a,1,1.107,space,0.318,0,21,21,144,1,0_targ_4_dist_green/trial20.png,,,0,4,greenverival,a,25,26,female,2021-02-19_15h29.12.399,exp11,2020.2.6,MacIntel,60,,,,,,,,,,,
,,,,,,,,,,,,,,p,1,0.915,space,0.293,0,22,22,62,1,9_dist_green/trial13.png,,,1,9,greenverival,p,25,26,female,2021-02-19_15h29.12.399,exp11,2020.2.6,MacIntel,60,,,,,,,,,,,
,,,,,,,,,,,,,,a,1,1.383,space,0.166,0,23,23,185,1,0_targ_16_dist_green/trial11.png,,,0,16,greenverival,a,25,26,female,2021-02-19_15h29.12.399,exp11,2020.2.6,MacIntel,60,,,,,,,,,,,
,,,,,,,,,,,,,,a,1,1.226,space,1.051,0,24,24,193,1,0_targ_16_dist_green/trial19.png,,,0,16,greenverival,a,25,26,female,2021-02-19_15h29.12.399,exp11,2020.2.6,MacIntel,60,,,,,,,,,,,
,,,,,,,,,,,,,,p,1,0.689,space,0.243,0,25,25,30,1,3_dist_green/trial6.png,,,1,3,greenverival,p,25,26,female,2021-02-19_15h29.12.399,exp11,2020.2.6,MacIntel,60,,,,,,,,,,,
,,,,,,,,,,,,,,a,1,0.758,space,0.25,0,26,26,176,1,0_targ_16_dist_green/trial2.png,,,0,16,greenverival,a,25,26,female,2021-02-19_15h29.12.399,exp11,2020.2.6,MacIntel,60,,,,,,,,,,,
,,,,,,,,,,,,,,a,0,0.69,space,1.1,0,27,27,80,1,15_dist_green/trial6.png,,,1,15,greenverival,p,25,26,female,2021-02-19_15h29.12.399,exp11,2020.2.6,MacIntel,60,,,,,,,,,,,
,,,,,,,,,,,,,,p,0,0.807,space,1.52,0,28,28,108,1,0_targ_1_dist_green/trial9.png,,,0,1,greenverival,a,25,26,female,2021-02-19_15h29.12.399,exp11,2020.2.6,MacIntel,60,,,,,,,,,,,
,,,,,,,,,,,,,,p,1,1.739,space,0.799,0,29,29,81,1,15_dist_green/trial7.png,,,1,15,greenverival,p,25,26,female,2021-02-19_15h29.12.399,exp11,2020.2.6,MacIntel,60,,,,,,,,,,,
,,,,,,,,,,,,,,a,1,0.623,space,0.307,0,30,30,148,1,0_targ_4_dist_green/trial24.png,,,0,4,greenverival,a,25,26,female,2021-02-19_15h29.12.399,exp11,2020.2.6,MacIntel,60,,,,,,,,,,,
,,,,,,,,,,,,,,a,1,0.691,space,0.275,0,31,31,169,1,0_targ_10_dist_green/trial20.png,,,0,10,greenverival,a,25,26,female,2021-02-19_15h29.12.399,exp11,2020.2.6,MacIntel,60,,,,,,,,,,,
,,,,,,,,,,,,,,a,1,0.673,space,0.328,0,32,32,188,1,0_targ_16_dist_green/trial14.png,,,0,16,greenverival,a,25,26,female,2021-02-19_15h29.12.399,exp11,2020.2.6,MacIntel,60,,,,,,,,,,,
,,,,,,,,,,,,,,a,1,0.992,space,0.324,0,33,33,146,1,0_targ_4_dist_green/trial22.png,,,0,4,greenverival,a,25,26,female,2021-02-19_15h29.12.399,exp11,2020.2.6,MacIntel,60,,,,,,,,,,,
,,,,,,,,,,,,,,a,1,0.677,space,0.29,0,34,34,155,1,0_targ_10_dist_green/trial6.png,,,0,10,greenverival,a,25,26,female,2021-02-19_15h29.12.399,exp11,2020.2.6,MacIntel,60,,,,,,,,,,,
,,,,,,,,,,,,,,p,1,0.948,space,0.266,0,35,35,53,1,9_dist_green/trial4.png,,,1,9,greenverival,p,25,26,female,2021-02-19_15h29.12.399,exp11,2020.2.6,MacIntel,60,,,,,,,,,,,
,,,,,,,,,,,,,,p,1,0.572,space,0.275,0,36,36,28,1,3_dist_green/trial4.png,,,1,3,greenverival,p,25,26,female,2021-02-19_15h29.12.399,exp11,2020.2.6,MacIntel,60,,,,,,,,,,,
,,,,,,,,,,,,,,p,1,0.641,space,0.259,0,37,37,95,1,15_dist_green/trial21.png,,,1,15,greenverival,p,25,26,female,2021-02-19_15h29.12.399,exp11,2020.2.6,MacIntel,60,,,,,,,,,,,
,,,,,,,,,,,,,,p,1,0.655,space,0.29,0,38,38,89,1,15_dist_green/trial15.png,,,1,15,greenverival,p,25,26,female,2021-02-19_15h29.12.399,exp11,2020.2.6,MacIntel,60,,,,,,,,,,,
,,,,,,,,,,,,,,p,1,0.548,space,0.262,0,39,39,12,1,0_dist_green/trial13.png,,,1,0,greenverival,p,25,26,female,2021-02-19_15h29.12.399,exp11,2020.2.6,MacIntel,60,,,,,,,,,,,
,,,,,,,,,,,,,,p,1,0.614,space,0.234,0,40,40,79,1,15_dist_green/trial5.png,,,1,15,greenverival,p,25,26,female,2021-02-19_15h29.12.399,exp11,2020.2.6,MacIntel,60,,,,,,,,,,,
,,,,,,,,,,,,,,p,1,0.431,space,0.217,0,41,41,34,1,3_dist_green/trial10.png,,,1,3,greenverival,p,25,26,female,2021-02-19_15h29.12.399,exp11,2020.2.6,MacIntel,60,,,,,,,,,,,
,,,,,,,,,,,,,,p,1,0.506,space,0.173,0,42,42,69,1,9_dist_green/trial20.png,,,1,9,greenverival,p,25,26,female,2021-02-19_15h29.12.399,exp11,2020.2.6,MacIntel,60,,,,,,,,,,,
,,,,,,,,,,,,,,p,1,0.54,space,0.201,0,43,43,11,1,0_dist_green/trial12.png,,,1,0,greenverival,p,25,26,female,2021-02-19_15h29.12.399,exp11,2020.2.6,MacIntel,60,,,,,,,,,,,
,,,,,,,,,,,,,,a,1,0.696,space,0.177,0,44,44,131,1,0_targ_4_dist_green/trial7.png,,,0,4,greenverival,a,25,26,female,2021-02-19_15h29.12.399,exp11,2020.2.6,MacIntel,60,,,,,,,,,,,
,,,,,,,,,,,,,,a,1,0.849,space,0.174,0,45,45,112,1,0_targ_1_dist_green/trial13.png,,,0,1,greenverival,a,25,26,female,2021-02-19_15h29.12.399,exp11,2020.2.6,MacIntel,60,,,,,,,,,,,
,,,,,,,,,,,,,,a,1,0.956,space,0.111,0,46,46,173,1,0_targ_10_dist_green/trial24.png,,,0,10,greenverival,a,25,26,female,2021-02-19_15h29.12.399,exp11,2020.2.6,MacIntel,60,,,,,,,,,,,
,,,,,,,,,,,,,,p,1,0.759,space,0.157,0,47,47,72,1,9_dist_green/trial23.png,,,1,9,greenverival,p,25,26,female,2021-02-19_15h29.12.399,exp11,2020.2.6,MacIntel,60,,,,,,,,,,,
,,,,,,,,,,,,,,a,1,0.945,space,0.184,0,48,48,194,1,0_targ_16_dist_green/trial20.png,,,0,16,greenverival,a,25,26,female,2021-02-19_15h29.12.399,exp11,2020.2.6,MacIntel,60,,,,,,,,,,,
,,,,,,,,,,,,,,p,1,0.84,space,0.2,0,49,49,64,1,9_dist_green/trial15.png,,,1,9,greenverival,p,25,26,female,2021-02-19_15h29.12.399,exp11,2020.2.6,MacIntel,60,,,,,,,,,,,
,,,,,,,,,,,,,,p,1,0.643,space,0.241,0,50,50,16,1,0_dist_green/trial17.png,,,1,0,greenverival,p,25,26,female,2021-02-19_15h29.12.399,exp11,2020.2.6,MacIntel,60,,,,,,,,,,,
,,,,,,,,,,,,,,p,1,0.859,space,0.224,0,51,51,88,1,15_dist_green/trial14.png,,,1,15,greenverival,p,25,26,female,2021-02-19_15h29.12.399,exp11,2020.2.6,MacIntel,60,,,,,,,,,,,
,,,,,,,,,,,,,,a,1,0.823,space,0.175,0,52,52,164,1,0_targ_10_dist_green/trial15.png,,,0,10,greenverival,a,25,26,female,2021-02-19_15h29.12.399,exp11,2020.2.6,MacIntel,60,,,,,,,,,,,
,,,,,,,,,,,,,,p,1,0.715,space,0.186,0,53,53,14,1,0_dist_green/trial15.png,,,1,0,greenverival,p,25,26,female,2021-02-19_15h29.12.399,exp11,2020.2.6,MacIntel,60,,,,,,,,,,,
,,,,,,,,,,,,,,a,1,1.457,space,0.126,0,54,54,195,1,0_targ_16_dist_green/trial21.png,,,0,16,greenverival,a,25,26,female,2021-02-19_15h29.12.399,exp11,2020.2.6,MacIntel,60,,,,,,,,,,,
,,,,,,,,,,,,,,a,1,0.643,space,0.291,0,55,55,121,1,0_targ_1_dist_green/trial22.png,,,0,1,greenverival,a,25,26,female,2021-02-19_15h29.12.399,exp11,2020.2.6,MacIntel,60,,,,,,,,,,,
,,,,,,,,,,,,,,p,1,0.575,space,0.169,0,56,56,74,1,9_dist_green/trial25.png,,,1,9,greenverival,p,25,26,female,2021-02-19_15h29.12.399,exp11,2020.2.6,MacIntel,60,,,,,,,,,,,
,,,,,,,,,,,,,,p,1,0.606,space,0.141,0,57,57,27,1,3_dist_green/trial3.png,,,1,3,greenverival,p,25,26,female,2021-02-19_15h29.12.399,exp11,2020.2.6,MacIntel,60,,,,,,,,,,,
,,,,,,,,,,,,,,a,1,0.841,space,0.127,0,58,58,175,1,0_targ_16_dist_green/trial1.png,,,0,16,greenverival,a,25,26,female,2021-02-19_15h29.12.399,exp11,2020.2.6,MacIntel,60,,,,,,,,,,,
,,,,,,,,,,,,,,p,1,1.015,space,0.133,0,59,59,76,1,15_dist_green/trial2.png,,,1,15,greenverival,p,25,26,female,2021-02-19_15h29.12.399,exp11,2020.2.6,MacIntel,60,,,,,,,,,,,
,,,,,,,,,,,,,,p,1,0.9,space,0.204,0,60,60,92,1,15_dist_green/trial18.png,,,1,15,greenverival,p,25,26,female,2021-02-19_15h29.12.399,exp11,2020.2.6,MacIntel,60,,,,,,,,,,,
,,,,,,,,,,,,,,p,1,0.534,space,0.172,0,61,61,10,1,0_dist_green/trial11.png,,,1,0,greenverival,p,25,26,female,2021-02-19_15h29.12.399,exp11,2020.2.6,MacIntel,60,,,,,,,,,,,
,,,,,,,,,,,,,,p,1,0.54,space,0.133,0,62,62,38,1,3_dist_green/trial14.png,,,1,3,greenverival,p,25,26,female,2021-02-19_15h29.12.399,exp11,2020.2.6,MacIntel,60,,,,,,,,,,,
,,,,,,,,,,,,,,p,1,0.423,space,0.132,0,63,63,37,1,3_dist_green/trial13.png,,,1,3,greenverival,p,25,26,female,2021-02-19_15h29.12.399,exp11,2020.2.6,MacIntel,60,,,,,,,,,,,
,,,,,,,,,,,,,,a,1,0.821,space,0.079,0,64,64,186,1,0_targ_16_dist_green/trial12.png,,,0,16,greenverival,a,25,26,female,2021-02-19_15h29.12.399,exp11,2020.2.6,MacIntel,60,,,,,,,,,,,
,,,,,,,,,,,,,,p,1,0.815,space,0.14,0,65,65,71,1,9_dist_green/trial22.png,,,1,9,greenverival,p,25,26,female,2021-02-19_15h29.12.399,exp11,2020.2.6,MacIntel,60,,,,,,,,,,,
,,,,,,,,,,,,,,p,1,0.39,space,0.118,0,66,66,22,1,0_dist_green/trial23.png,,,1,0,greenverival,p,25,26,female,2021-02-19_15h29.12.399,exp11,2020.2.6,MacIntel,60,,,,,,,,,,,
,,,,,,,,,,,,,,p,0,0.356,space,0.604,0,67,67,133,1,0_targ_4_dist_green/trial9.png,,,0,4,greenverival,a,25,26,female,2021-02-19_15h29.12.399,exp11,2020.2.6,MacIntel,60,,,,,,,,,,,
,,,,,,,,,,,,,,p,1,0.641,space,0.111,0,68,68,97,1,15_dist_green/trial23.png,,,1,15,greenverival,p,25,26,female,2021-02-19_15h29.12.399,exp11,2020.2.6,MacIntel,60,,,,,,,,,,,
,,,,,,,,,,,,,,a,1,0.808,space,0.086,0,69,69,113,1,0_targ_1_dist_green/trial14.png,,,0,1,greenverival,a,25,26,female,2021-02-19_15h29.12.399,exp11,2020.2.6,MacIntel,60,,,,,,,,,,,
,,,,,,,,,,,,,,a,1,0.682,space,0.069,0,70,70,182,1,0_targ_16_dist_green/trial8.png,,,0,16,greenverival,a,25,26,female,2021-02-19_15h29.12.399,exp11,2020.2.6,MacIntel,60,,,,,,,,,,,
,,,,,,,,,,,,,,p,1,0.607,space,0.133,0,71,71,26,1,3_dist_green/trial2.png,,,1,3,greenverival,p,25,26,female,2021-02-19_15h29.12.399,exp11,2020.2.6,MacIntel,60,,,,,,,,,,,
,,,,,,,,,,,,,,a,1,0.807,space,0.083,0,72,72,172,1,0_targ_10_dist_green/trial23.png,,,0,10,greenverival,a,25,26,female,2021-02-19_15h29.12.399,exp11,2020.2.6,MacIntel,60,,,,,,,,,,,
,,,,,,,,,,,,,,a,1,0.699,space,0.093,0,73,73,174,1,0_targ_10_dist_green/trial25.png,,,0,10,greenverival,a,25,26,female,2021-02-19_15h29.12.399,exp11,2020.2.6,MacIntel,60,,,,,,,,,,,
,,,,,,,,,,,,,,a,1,0.767,space,0.934,0,74,74,184,1,0_targ_16_dist_green/trial10.png,,,0,16,greenverival,a,25,26,female,2021-02-19_15h29.12.399,exp11,2020.2.6,MacIntel,60,,,,,,,,,,,
,,,,,,,,,,,,,,p,0,0.764,space,0.534,0,75,75,178,1,0_targ_16_dist_green/trial4.png,,,0,16,greenverival,a,25,26,female,2021-02-19_15h29.12.399,exp11,2020.2.6,MacIntel,60,,,,,,,,,,,
,,,,,,,,,,,,,,p,1,1.056,space,0.098,0,76,76,66,1,9_dist_green/trial17.png,,,1,9,greenverival,p,25,26,female,2021-02-19_15h29.12.399,exp11,2020.2.6,MacIntel,60,,,,,,,,,,,
,,,,,,,,,,,,,,a,1,0.781,space,0.108,0,77,77,157,1,0_targ_10_dist_green/trial8.png,,,0,10,greenverival,a,25,26,female,2021-02-19_15h29.12.399,exp11,2020.2.6,MacIntel,60,,,,,,,,,,,
,,,,,,,,,,,,,,a,1,0.657,space,0.084,0,78,78,105,1,0_targ_1_dist_green/trial6.png,,,0,1,greenverival,a,25,26,female,2021-02-19_15h29.12.399,exp11,2020.2.6,MacIntel,60,,,,,,,,,,,
,,,,,,,,,,,,,,p,1,0.64,space,0.108,0,79,79,84,1,15_dist_green/trial10.png,,,1,15,greenverival,p,25,26,female,2021-02-19_15h29.12.399,exp11,2020.2.6,MacIntel,60,,,,,,,,,,,
,,,,,,,,,,,,,,a,1,0.777,space,0.11,0,80,80,160,1,0_targ_10_dist_green/trial11.png,,,0,10,greenverival,a,25,26,female,2021-02-19_15h29.12.399,exp11,2020.2.6,MacIntel,60,,,,,,,,,,,
,,,,,,,,,,,,,,p,1,0.51,space,0.141,0,81,81,46,1,3_dist_green/trial22.png,,,1,3,greenverival,p,25,26,female,2021-02-19_15h29.12.399,exp11,2020.2.6,MacIntel,60,,,,,,,,,,,
,,,,,,,,,,,,,,a,1,0.631,space,0.126,0,82,82,110,1,0_targ_1_dist_green/trial11.png,,,0,1,greenverival,a,25,26,female,2021-02-19_15h29.12.399,exp11,2020.2.6,MacIntel,60,,,,,,,,,,,
,,,,,,,,,,,,,,p,1,0.593,space,0.157,0,83,83,47,1,3_dist_green/trial23.png,,,1,3,greenverival,p,25,26,female,2021-02-19_15h29.12.399,exp11,2020.2.6,MacIntel,60,,,,,,,,,,,
,,,,,,,,,,,,,,p,1,0.568,space,0.159,0,84,84,8,1,0_dist_green/trial9.png,,,1,0,greenverival,p,25,26,female,2021-02-19_15h29.12.399,exp11,2020.2.6,MacIntel,60,,,,,,,,,,,
,,,,,,,,,,,,,,p,1,0.582,space,0.169,0,85,85,50,1,9_dist_green/trial1.png,,,1,9,greenverival,p,25,26,female,2021-02-19_15h29.12.399,exp11,2020.2.6,MacIntel,60,,,,,,,,,,,
,,,,,,,,,,,,,,a,1,0.733,space,0.134,0,86,86,187,1,0_targ_16_dist_green/trial13.png,,,0,16,greenverival,a,25,26,female,2021-02-19_15h29.12.399,exp11,2020.2.6,MacIntel,60,,,,,,,,,,,
,,,,,,,,,,,,,,a,1,0.857,space,0.091,0,87,87,154,1,0_targ_10_dist_green/trial5.png,,,0,10,greenverival,a,25,26,female,2021-02-19_15h29.12.399,exp11,2020.2.6,MacIntel,60,,,,,,,,,,,
,,,,,,,,,,,,,,p,1,0.652,space,0.126,0,88,88,36,1,3_dist_green/trial12.png,,,1,3,greenverival,p,25,26,female,2021-02-19_15h29.12.399,exp11,2020.2.6,MacIntel,60,,,,,,,,,,,
,,,,,,,,,,,,,,p,1,0.681,space,0.139,0,89,89,43,1,3_dist_green/trial19.png,,,1,3,greenverival,p,25,26,female,2021-02-19_15h29.12.399,exp11,2020.2.6,MacIntel,60,,,,,,,,,,,
,,,,,,,,,,,,,,a,1,0.885,space,0.108,0,90,90,151,1,0_targ_10_dist_green/trial2.png,,,0,10,greenverival,a,25,26,female,2021-02-19_15h29.12.399,exp11,2020.2.6,MacIntel,60,,,,,,,,,,,
,,,,,,,,,,,,,,a,1,0.64,space,0.483,0,91,91,129,1,0_targ_4_dist_green/trial5.png,,,0,4,greenverival,a,25,26,female,2021-02-19_15h29.12.399,exp11,2020.2.6,MacIntel,60,,,,,,,,,,,
,,,,,,,,,,,,,,a,1,0.079,space,1.243,0,92,92,118,1,0_targ_1_dist_green/trial19.png,,,0,1,greenverival,a,25,26,female,2021-02-19_15h29.12.399,exp11,2020.2.6,MacIntel,60,,,,,,,,,,,
,,,,,,,,,,,,,,a,1,0.714,space,0.108,0,93,93,114,1,0_targ_1_dist_green/trial15.png,,,0,1,greenverival,a,25,26,female,2021-02-19_15h29.12.399,exp11,2020.2.6,MacIntel,60,,,,,,,,,,,
,,,,,,,,,,,,,,p,1,0.583,space,0.176,0,94,94,23,1,0_dist_green/trial24.png,,,1,0,greenverival,p,25,26,female,2021-02-19_15h29.12.399,exp11,2020.2.6,MacIntel,60,,,,,,,,,,,
,,,,,,,,,,,,,,a,1,1.424,space,0.079,0,95,95,190,1,0_targ_16_dist_green/trial16.png,,,0,16,greenverival,a,25,26,female,2021-02-19_15h29.12.399,exp11,2020.2.6,MacIntel,60,,,,,,,,,,,
,,,,,,,,,,,,,,a,1,0.624,space,0.832,0,96,96,170,1,0_targ_10_dist_green/trial21.png,,,0,10,greenverival,a,25,26,female,2021-02-19_15h29.12.399,exp11,2020.2.6,MacIntel,60,,,,,,,,,,,
,,,,,,,,,,,,,,p,1,0.815,space,0.144,0,97,97,54,1,9_dist_green/trial5.png,,,1,9,greenverival,p,25,26,female,2021-02-19_15h29.12.399,exp11,2020.2.6,MacIntel,60,,,,,,,,,,,
,,,,,,,,,,,,,,p,0,0.675,space,1.144,0,98,98,180,1,0_targ_16_dist_green/trial6.png,,,0,16,greenverival,a,25,26,female,2021-02-19_15h29.12.399,exp11,2020.2.6,MacIntel,60,,,,,,,,,,,
,,,,,,,,,,,,,,p,1,0.601,space,0.128,0,99,99,1,1,0_dist_green/trial2.png,,,1,0,greenverival,p,25,26,female,2021-02-19_15h29.12.399,exp11,2020.2.6,MacIntel,60,,,,,,,,,,,
,,,,,,,,,,,,,,a,1,0.681,space,0.093,0,100,100,149,1,0_targ_4_dist_green/trial25.png,,,0,4,greenverival,a,25,26,female,2021-02-19_15h29.12.399,exp11,2020.2.6,MacIntel,60,,,,,,,,,,,
,,,,,,,,,,,,,,a,1,0.598,space,0.091,0,101,101,124,1,0_targ_1_dist_green/trial25.png,,,0,1,greenverival,a,25,26,female,2021-02-19_15h29.12.399,exp11,2020.2.6,MacIntel,60,,,,,,,,,,,
,,,,,,,,,,,,,,p,1,0.606,space,0.133,0,102,102,52,1,9_dist_green/trial3.png,,,1,9,greenverival,p,25,26,female,2021-02-19_15h29.12.399,exp11,2020.2.6,MacIntel,60,,,,,,,,,,,
,,,,,,,,,,,,,,p,0,0.625,space,1.633,0,103,103,165,1,0_targ_10_dist_green/trial16.png,,,0,10,greenverival,a,25,26,female,2021-02-19_15h29.12.399,exp11,2020.2.6,MacIntel,60,,,,,,,,,,,
,,,,,,,,,,,,,,p,1,0.625,space,0.13,0,104,104,3,1,0_dist_green/trial4.png,,,1,0,greenverival,p,25,26,female,2021-02-19_15h29.12.399,exp11,2020.2.6,MacIntel,60,,,,,,,,,,,
,,,,,,,,,,,,,,a,1,0.891,space,0.085,0,105,105,197,1,0_targ_16_dist_green/trial23.png,,,0,16,greenverival,a,25,26,female,2021-02-19_15h29.12.399,exp11,2020.2.6,MacIntel,60,,,,,,,,,,,
,,,,,,,,,,,,,,a,1,0.656,space,0.051,0,106,106,104,1,0_targ_1_dist_green/trial5.png,,,0,1,greenverival,a,25,26,female,2021-02-19_15h29.12.399,exp11,2020.2.6,MacIntel,60,,,,,,,,,,,
,,,,,,,,,,,,,,p,1,0.597,space,0.117,0,107,107,20,1,0_dist_green/trial21.png,,,1,0,greenverival,p,25,26,female,2021-02-19_15h29.12.399,exp11,2020.2.6,MacIntel,60,,,,,,,,,,,
,,,,,,,,,,,,,,p,1,0.51,space,0.095,0,108,108,45,1,3_dist_green/trial21.png,,,1,3,greenverival,p,25,26,female,2021-02-19_15h29.12.399,exp11,2020.2.6,MacIntel,60,,,,,,,,,,,
,,,,,,,,,,,,,,a,1,0.807,space,0.073,0,109,109,156,1,0_targ_10_dist_green/trial7.png,,,0,10,greenverival,a,25,26,female,2021-02-19_15h29.12.399,exp11,2020.2.6,MacIntel,60,,,,,,,,,,,
,,,,,,,,,,,,,,a,1,0.742,space,0.067,0,110,110,122,1,0_targ_1_dist_green/trial23.png,,,0,1,greenverival,a,25,26,female,2021-02-19_15h29.12.399,exp11,2020.2.6,MacIntel,60,,,,,,,,,,,
,,,,,,,,,,,,,,p,1,1.007,space,0.056,0,111,111,7,1,0_dist_green/trial8.png,,,1,0,greenverival,p,25,26,female,2021-02-19_15h29.12.399,exp11,2020.2.6,MacIntel,60,,,,,,,,,,,
,,,,,,,,,,,,,,a,1,0.655,space,0.033,0,112,112,158,1,0_targ_10_dist_green/trial9.png,,,0,10,greenverival,a,25,26,female,2021-02-19_15h29.12.399,exp11,2020.2.6,MacIntel,60,,,,,,,,,,,
,,,,,,,,,,,,,,p,1,0.632,space,0.118,0,113,113,0,1,0_dist_green/trial1.png,,,1,0,greenverival,p,25,26,female,2021-02-19_15h29.12.399,exp11,2020.2.6,MacIntel,60,,,,,,,,,,,
,,,,,,,,,,,,,,p,1,0.748,space,0.117,0,114,114,70,1,9_dist_green/trial21.png,,,1,9,greenverival,p,25,26,female,2021-02-19_15h29.12.399,exp11,2020.2.6,MacIntel,60,,,,,,,,,,,
,,,,,,,,,,,,,,a,1,0.876,space,0.101,0,115,115,120,1,0_targ_1_dist_green/trial21.png,,,0,1,greenverival,a,25,26,female,2021-02-19_15h29.12.399,exp11,2020.2.6,MacIntel,60,,,,,,,,,,,
,,,,,,,,,,,,,,p,1,0.7,space,0.126,0,116,116,59,1,9_dist_green/trial10.png,,,1,9,greenverival,p,25,26,female,2021-02-19_15h29.12.399,exp11,2020.2.6,MacIntel,60,,,,,,,,,,,
,,,,,,,,,,,,,,a,1,0.932,space,0.076,0,117,117,167,1,0_targ_10_dist_green/trial18.png,,,0,10,greenverival,a,25,26,female,2021-02-19_15h29.12.399,exp11,2020.2.6,MacIntel,60,,,,,,,,,,,
,,,,,,,,,,,,,,a,1,1.098,space,0.034,0,118,118,192,1,0_targ_16_dist_green/trial18.png,,,0,16,greenverival,a,25,26,female,2021-02-19_15h29.12.399,exp11,2020.2.6,MacIntel,60,,,,,,,,,,,
,,,,,,,,,,,,,,p,1,0.557,space,0.116,0,119,119,40,1,3_dist_green/trial16.png,,,1,3,greenverival,p,25,26,female,2021-02-19_15h29.12.399,exp11,2020.2.6,MacIntel,60,,,,,,,,,,,
,,,,,,,,,,,,,,a,1,0.801,space,0.191,0,120,120,117,1,0_targ_1_dist_green/trial18.png,,,0,1,greenverival,a,25,26,female,2021-02-19_15h29.12.399,exp11,2020.2.6,MacIntel,60,,,,,,,,,,,
,,,,,,,,,,,,,,a,1,0.874,space,0.059,0,121,121,161,1,0_targ_10_dist_green/trial12.png,,,0,10,greenverival,a,25,26,female,2021-02-19_15h29.12.399,exp11,2020.2.6,MacIntel,60,,,,,,,,,,,
,,,,,,,,,,,,,,p,1,0.705,space,0.128,0,122,122,78,1,15_dist_green/trial4.png,,,1,15,greenverival,p,25,26,female,2021-02-19_15h29.12.399,exp11,2020.2.6,MacIntel,60,,,,,,,,,,,
,,,,,,,,,,,,,,a,1,0.667,space,0.101,0,123,123,101,1,0_targ_1_dist_green/trial2.png,,,0,1,greenverival,a,25,26,female,2021-02-19_15h29.12.399,exp11,2020.2.6,MacIntel,60,,,,,,,,,,,
,,,,,,,,,,,,,,p,1,0.546,space,0.127,0,124,124,32,1,3_dist_green/trial8.png,,,1,3,greenverival,p,25,26,female,2021-02-19_15h29.12.399,exp11,2020.2.6,MacIntel,60,,,,,,,,,,,
,,,,,,,,,,,,,,a,1,0.759,space,0.043,0,125,125,126,1,0_targ_4_dist_green/trial2.png,,,0,4,greenverival,a,25,26,female,2021-02-19_15h29.12.399,exp11,2020.2.6,MacIntel,60,,,,,,,,,,,
,,,,,,,,,,,,,,a,1,0.731,space,0.042,0,126,126,135,1,0_targ_4_dist_green/trial11.png,,,0,4,greenverival,a,25,26,female,2021-02-19_15h29.12.399,exp11,2020.2.6,MacIntel,60,,,,,,,,,,,
,,,,,,,,,,,,,,a,1,0.629,space,0.008,0,127,127,147,1,0_targ_4_dist_green/trial23.png,,,0,4,greenverival,a,25,26,female,2021-02-19_15h29.12.399,exp11,2020.2.6,MacIntel,60,,,,,,,,,,,
,,,,,,,,,,,,,,a,1,0.842,space,0.552,0,128,128,103,1,0_targ_1_dist_green/trial4.png,,,0,1,greenverival,a,25,26,female,2021-02-19_15h29.12.399,exp11,2020.2.6,MacIntel,60,,,,,,,,,,,
,,,,,,,,,,,,,,a,1,0,space,0.577,0,129,129,119,1,0_targ_1_dist_green/trial20.png,,,0,1,greenverival,a,25,26,female,2021-02-19_15h29.12.399,exp11,2020.2.6,MacIntel,60,,,,,,,,,,,
,,,,,,,,,,,,,,p,0,0.129,space,0.158,0,130,130,115,1,0_targ_1_dist_green/trial6.png,,,0,1,greenverival,a,25,26,female,2021-02-19_15h29.12.399,exp11,2020.2.6,MacIntel,60,,,,,,,,,,,
,,,,,,,,,,,,,,a,1,0.834,space,0.094,0,131,131,171,1,0_targ_10_dist_green/trial22.png,,,0,10,greenverival,a,25,26,female,2021-02-19_15h29.12.399,exp11,2020.2.6,MacIntel,60,,,,,,,,,,,
,,,,,,,,,,,,,,a,1,0.807,space,0.092,0,132,132,191,1,0_targ_16_dist_green/trial17.png,,,0,16,greenverival,a,25,26,female,2021-02-19_15h29.12.399,exp11,2020.2.6,MacIntel,60,,,,,,,,,,,
,,,,,,,,,,,,,,p,1,0.558,space,0.115,0,133,133,48,1,3_dist_green/trial24.png,,,1,3,greenverival,p,25,26,female,2021-02-19_15h29.12.399,exp11,2020.2.6,MacIntel,60,,,,,,,,,,,
,,,,,,,,,,,,,,p,1,0.613,space,0.117,0,134,134,17,1,0_dist_green/trial18.png,,,1,0,greenverival,p,25,26,female,2021-02-19_15h29.12.399,exp11,2020.2.6,MacIntel,60,,,,,,,,,,,
,,,,,,,,,,,,,,p,1,0.865,space,0.085,0,135,135,51,1,9_dist_green/trial2.png,,,1,9,greenverival,p,25,26,female,2021-02-19_15h29.12.399,exp11,2020.2.6,MacIntel,60,,,,,,,,,,,
,,,,,,,,,,,,,,p,1,0.526,space,0.127,0,136,136,29,1,3_dist_green/trial5.png,,,1,3,greenverival,p,25,26,female,2021-02-19_15h29.12.399,exp11,2020.2.6,MacIntel,60,,,,,,,,,,,
,,,,,,,,,,,,,,p,1,0.42,space,0.152,0,137,137,35,1,3_dist_green/trial11.png,,,1,3,greenverival,p,25,26,female,2021-02-19_15h29.12.399,exp11,2020.2.6,MacIntel,60,,,,,,,,,,,
,,,,,,,,,,,,,,a,1,0.649,space,0.067,0,138,138,177,1,0_targ_16_dist_green/trial3.png,,,0,16,greenverival,a,25,26,female,2021-02-19_15h29.12.399,exp11,2020.2.6,MacIntel,60,,,,,,,,,,,
,,,,,,,,,,,,,,a,1,0.558,space,0.07,0,139,139,128,1,0_targ_4_dist_green/trial4.png,,,0,4,greenverival,a,25,26,female,2021-02-19_15h29.12.399,exp11,2020.2.6,MacIntel,60,,,,,,,,,,,
,,,,,,,,,,,,,,p,1,0.798,space,0.102,0,140,140,83,1,15_dist_green/trial9.png,,,1,15,greenverival,p,25,26,female,2021-02-19_15h29.12.399,exp11,2020.2.6,MacIntel,60,,,,,,,,,,,
,,,,,,,,,,,,,,a,1,0.814,space,0.084,0,141,141,181,1,0_targ_16_dist_green/trial7.png,,,0,16,greenverival,a,25,26,female,2021-02-19_15h29.12.399,exp11,2020.2.6,MacIntel,60,,,,,,,,,,,
,,,,,,,,,,,,,,a,1,0.64,space,0.083,0,142,142,130,1,0_targ_4_dist_green/trial6.png,,,0,4,greenverival,a,25,26,female,2021-02-19_15h29.12.399,exp11,2020.2.6,MacIntel,60,,,,,,,,,,,
,,,,,,,,,,,,,,a,0,0.481,space,0.478,0,143,143,33,1,3_dist_green/trial9.png,,,1,3,greenverival,p,25,26,female,2021-02-19_15h29.12.399,exp11,2020.2.6,MacIntel,60,,,,,,,,,,,
,,,,,,,,,,,,,,p,1,0.778,space,0.088,0,144,144,73,1,9_dist_green/trial24.png,,,1,9,greenverival,p,25,26,female,2021-02-19_15h29.12.399,exp11,2020.2.6,MacIntel,60,,,,,,,,,,,
,,,,,,,,,,,,,,a,1,0.806,space,0.058,0,145,145,198,1,0_targ_16_dist_green/trial24.png,,,0,16,greenverival,a,25,26,female,2021-02-19_15h29.12.399,exp11,2020.2.6,MacIntel,60,,,,,,,,,,,
,,,,,,,,,,,,,,p,1,0.732,space,0.123,0,146,146,18,1,0_dist_green/trial19.png,,,1,0,greenverival,p,25,26,female,2021-02-19_15h29.12.399,exp11,2020.2.6,MacIntel,60,,,,,,,,,,,
,,,,,,,,,,,,,,a,1,0.675,space,0.095,0,147,147,100,1,0_targ_1_dist_green/trial1.png,,,0,1,greenverival,a,25,26,female,2021-02-19_15h29.12.399,exp11,2020.2.6,MacIntel,60,,,,,,,,,,,
,,,,,,,,,,,,,,p,1,0.549,space,0.109,0,148,148,98,1,15_dist_green/trial24.png,,,1,15,greenverival,p,25,26,female,2021-02-19_15h29.12.399,exp11,2020.2.6,MacIntel,60,,,,,,,,,,,
,,,,,,,,,,,,,,a,1,0.62,space,0.093,0,149,149,136,1,0_targ_4_dist_green/trial12.png,,,0,4,greenverival,a,25,26,female,2021-02-19_15h29.12.399,exp11,2020.2.6,MacIntel,60,,,,,,,,,,,
,,,,,,,,,,,,,,p,1,0.631,space,0.12,0,150,150,31,1,3_dist_green/trial7.png,,,1,3,greenverival,p,25,26,female,2021-02-19_15h29.12.399,exp11,2020.2.6,MacIntel,60,,,,,,,,,,,
,,,,,,,,,,,,,,p,1,0.645,space,0.108,0,151,151,41,1,3_dist_green/trial17.png,,,1,3,greenverival,p,25,26,female,2021-02-19_15h29.12.399,exp11,2020.2.6,MacIntel,60,,,,,,,,,,,
,,,,,,,,,,,,,,p,1,0.589,space,0.111,0,152,152,55,1,9_dist_green/trial6.png,,,1,9,greenverival,p,25,26,female,2021-02-19_15h29.12.399,exp11,2020.2.6,MacIntel,60,,,,,,,,,,,
,,,,,,,,,,,,,,p,1,0.508,space,0.143,0,153,153,56,1,9_dist_green/trial7.png,,,1,9,greenverival,p,25,26,female,2021-02-19_15h29.12.399,exp11,2020.2.6,MacIntel,60,,,,,,,,,,,
,,,,,,,,,,,,,,a,1,0.53,space,0.099,0,154,154,106,1,0_targ_1_dist_green/trial7.png,,,0,1,greenverival,a,25,26,female,2021-02-19_15h29.12.399,exp11,2020.2.6,MacIntel,60,,,,,,,,,,,
,,,,,,,,,,,,,,a,1,0.841,space,0.116,0,155,155,189,1,0_targ_16_dist_green/trial15.png,,,0,16,greenverival,a,25,26,female,2021-02-19_15h29.12.399,exp11,2020.2.6,MacIntel,60,,,,,,,,,,,
,,,,,,,,,,,,,,a,1,0.549,space,0.075,0,156,156,150,1,0_targ_10_dist_green/trial1.png,,,0,10,greenverival,a,25,26,female,2021-02-19_15h29.12.399,exp11,2020.2.6,MacIntel,60,,,,,,,,,,,
,,,,,,,,,,,,,,a,1,0.605,space,0.074,0,157,157,141,1,0_targ_4_dist_green/trial17.png,,,0,4,greenverival,a,25,26,female,2021-02-19_15h29.12.399,exp11,2020.2.6,MacIntel,60,,,,,,,,,,,
,,,,,,,,,,,,,,a,1,0.541,space,0.053,0,158,158,111,1,0_targ_1_dist_green/trial12.png,,,0,1,greenverival,a,25,26,female,2021-02-19_15h29.12.399,exp11,2020.2.6,MacIntel,60,,,,,,,,,,,
,,,,,,,,,,,,,,p,1,0.521,space,0.119,0,159,159,42,1,3_dist_green/trial18.png,,,1,3,greenverival,p,25,26,female,2021-02-19_15h29.12.399,exp11,2020.2.6,MacIntel,60,,,,,,,,,,,
,,,,,,,,,,,,,,p,1,0.473,space,0.099,0,160,160,5,1,0_dist_green/trial6.png,,,1,0,greenverival,p,25,26,female,2021-02-19_15h29.12.399,exp11,2020.2.6,MacIntel,60,,,,,,,,,,,
,,,,,,,,,,,,,,p,1,0.428,space,0.108,0,161,161,87,1,15_dist_green/trial13.png,,,1,15,greenverival,p,25,26,female,2021-02-19_15h29.12.399,exp11,2020.2.6,MacIntel,60,,,,,,,,,,,
,,,,,,,,,,,,,,p,0,0.54,space,0.569,0,162,162,139,1,0_targ_4_dist_green/trial15.png,,,0,4,greenverival,a,25,26,female,2021-02-19_15h29.12.399,exp11,2020.2.6,MacIntel,60,,,,,,,,,,,
,,,,,,,,,,,,,,a,1,1.666,space,0.071,0,163,163,145,1,0_targ_4_dist_green/trial21.png,,,0,4,greenverival,a,25,26,female,2021-02-19_15h29.12.399,exp11,2020.2.6,MacIntel,60,,,,,,,,,,,
,,,,,,,,,,,,,,a,1,0.756,space,0.01,0,164,164,168,1,0_targ_10_dist_green/trial19.png,,,0,10,greenverival,a,25,26,female,2021-02-19_15h29.12.399,exp11,2020.2.6,MacIntel,60,,,,,,,,,,,
,,,,,,,,,,,,,,a,1,0.607,space,0.067,0,165,165,162,1,0_targ_10_dist_green/trial13.png,,,0,10,greenverival,a,25,26,female,2021-02-19_15h29.12.399,exp11,2020.2.6,MacIntel,60,,,,,,,,,,,
,,,,,,,,,,,,,,p,1,0.641,space,0.108,0,166,166,67,1,9_dist_green/trial18.png,,,1,9,greenverival,p,25,26,female,2021-02-19_15h29.12.399,exp11,2020.2.6,MacIntel,60,,,,,,,,,,,
,,,,,,,,,,,,,,p,1,0.857,space,0.086,0,167,167,96,1,15_dist_green/trial22.png,,,1,15,greenverival,p,25,26,female,2021-02-19_15h29.12.399,exp11,2020.2.6,MacIntel,60,,,,,,,,,,,
,,,,,,,,,,,,,,a,1,0.754,space,0.067,0,168,168,179,1,0_targ_16_dist_green/trial5.png,,,0,16,greenverival,a,25,26,female,2021-02-19_15h29.12.399,exp11,2020.2.6,MacIntel,60,,,,,,,,,,,
,,,,,,,,,,,,,,a,1,0.523,space,0.057,0,169,169,109,1,0_targ_1_dist_green/trial10.png,,,0,1,greenverival,a,25,26,female,2021-02-19_15h29.12.399,exp11,2020.2.6,MacIntel,60,,,,,,,,,,,
,,,,,,,,,,,,,,a,0,0.763,space,1.794,0,170,170,86,1,15_dist_green/trial12.png,,,1,15,greenverival,p,25,26,female,2021-02-19_15h29.12.399,exp11,2020.2.6,MacIntel,60,,,,,,,,,,,
,,,,,,,,,,,,,,p,1,0.582,space,0.086,0,171,171,49,1,3_dist_green/trial25.png,,,1,3,greenverival,p,25,26,female,2021-02-19_15h29.12.399,exp11,2020.2.6,MacIntel,60,,,,,,,,,,,
,,,,,,,,,,,,,,p,1,0.423,space,0.117,0,172,172,39,1,3_dist_green/trial15.png,,,1,3,greenverival,p,25,26,female,2021-02-19_15h29.12.399,exp11,2020.2.6,MacIntel,60,,,,,,,,,,,
,,,,,,,,,,,,,,p,1,0.391,space,0.099,0,173,173,24,1,0_dist_green/trial25.png,,,1,0,greenverival,p,25,26,female,2021-02-19_15h29.12.399,exp11,2020.2.6,MacIntel,60,,,,,,,,,,,
,,,,,,,,,,,,,,p,1,0.607,space,0.157,0,174,174,99,1,15_dist_green/trial25.png,,,1,15,greenverival,p,25,26,female,2021-02-19_15h29.12.399,exp11,2020.2.6,MacIntel,60,,,,,,,,,,,
,,,,,,,,,,,,,,a,1,0.657,space,0.117,0,175,175,125,1,0_targ_4_dist_green/trial1.png,,,0,4,greenverival,a,25,26,female,2021-02-19_15h29.12.399,exp11,2020.2.6,MacIntel,60,,,,,,,,,,,
,,,,,,,,,,,,,,a,1,0.496,space,0.058,0,176,176,143,1,0_targ_4_dist_green/trial19.png,,,0,4,greenverival,a,25,26,female,2021-02-19_15h29.12.399,exp11,2020.2.6,MacIntel,60,,,,,,,,,,,
,,,,,,,,,,,,,,a,1,0.496,space,0.093,0,177,177,132,1,0_targ_4_dist_green/trial8.png,,,0,4,greenverival,a,25,26,female,2021-02-19_15h29.12.399,exp11,2020.2.6,MacIntel,60,,,,,,,,,,,
,,,,,,,,,,,,,,a,1,0.427,space,0.078,0,178,178,127,1,0_targ_4_dist_green/trial3.png,,,0,4,greenverival,a,25,26,female,2021-02-19_15h29.12.399,exp11,2020.2.6,MacIntel,60,,,,,,,,,,,
,,,,,,,,,,,,,,p,1,0.557,space,0.123,0,179,179,19,1,0_dist_green/trial20.png,,,1,0,greenverival,p,25,26,female,2021-02-19_15h29.12.399,exp11,2020.2.6,MacIntel,60,,,,,,,,,,,
,,,,,,,,,,,,,,a,1,0.713,space,0.086,0,180,180,159,1,0_targ_10_dist_green/trial10.png,,,0,10,greenverival,a,25,26,female,2021-02-19_15h29.12.399,exp11,2020.2.6,MacIntel,60,,,,,,,,,,,
,,,,,,,,,,,,,,a,1,0.739,space,0.108,0,181,181,153,1,0_targ_10_dist_green/trial4.png,,,0,10,greenverival,a,25,26,female,2021-02-19_15h29.12.399,exp11,2020.2.6,MacIntel,60,,,,,,,,,,,
,,,,,,,,,,,,,,p,1,0.631,space,0.16,0,182,182,2,1,0_dist_green/trial3.png,,,1,0,greenverival,p,25,26,female,2021-02-19_15h29.12.399,exp11,2020.2.6,MacIntel,60,,,,,,,,,,,
,,,,,,,,,,,,,,p,1,0.574,space,0.134,0,183,183,25,1,3_dist_green/trial1.png,,,1,3,greenverival,p,25,26,female,2021-02-19_15h29.12.399,exp11,2020.2.6,MacIntel,60,,,,,,,,,,,
,,,,,,,,,,,,,,p,0,0.4,space,0.293,0,184,184,107,1,0_targ_1_dist_green/trial8.png,,,0,1,greenverival,a,25,26,female,2021-02-19_15h29.12.399,exp11,2020.2.6,MacIntel,60,,,,,,,,,,,
,,,,,,,,,,,,,,a,1,0.848,space,0.136,0,185,185,102,1,0_targ_1_dist_green/trial3.png,,,0,1,greenverival,a,25,26,female,2021-02-19_15h29.12.399,exp11,2020.2.6,MacIntel,60,,,,,,,,,,,
,,,,,,,,,,,,,,p,1,0.606,space,0.082,0,186,186,15,1,0_dist_green/trial16.png,,,1,0,greenverival,p,25,26,female,2021-02-19_15h29.12.399,exp11,2020.2.6,MacIntel,60,,,,,,,,,,,
,,,,,,,,,,,,,,p,1,0.595,space,0.107,0,187,187,58,1,9_dist_green/trial9.png,,,1,9,greenverival,p,25,26,female,2021-02-19_15h29.12.399,exp11,2020.2.6,MacIntel,60,,,,,,,,,,,
,,,,,,,,,,,,,,p,1,0.465,space,0.09,0,188,188,63,1,9_dist_green/trial14.png,,,1,9,greenverival,p,25,26,female,2021-02-19_15h29.12.399,exp11,2020.2.6,MacIntel,60,,,,,,,,,,,
,,,,,,,,,,,,,,p,1,0.695,space,0.1,0,189,189,77,1,15_dist_green/trial3.png,,,1,15,greenverival,p,25,26,female,2021-02-19_15h29.12.399,exp11,2020.2.6,MacIntel,60,,,,,,,,,,,
,,,,,,,,,,,,,,p,1,0.489,space,0.091,0,190,190,6,1,0_dist_green/trial7.png,,,1,0,greenverival,p,25,26,female,2021-02-19_15h29.12.399,exp11,2020.2.6,MacIntel,60,,,,,,,,,,,
,,,,,,,,,,,,,,a,1,0.68,space,0.05,0,191,191,123,1,0_targ_1_dist_green/trial24.png,,,0,1,greenverival,a,25,26,female,2021-02-19_15h29.12.399,exp11,2020.2.6,MacIntel,60,,,,,,,,,,,
,,,,,,,,,,,,,,a,1,0.675,space,0,0,192,192,183,1,0_targ_16_dist_green/trial9.png,,,0,16,greenverival,a,25,26,female,2021-02-19_15h29.12.399,exp11,2020.2.6,MacIntel,60,,,,,,,,,,,
,,,,,,,,,,,,,,a,1,0.505,space,0.02,0,193,193,142,1,0_targ_4_dist_green/trial18.png,,,0,4,greenverival,a,25,26,female,2021-02-19_15h29.12.399,exp11,2020.2.6,MacIntel,60,,,,,,,,,,,
,,,,,,,,,,,,,,a,1,0.814,space,0.1,0,194,194,137,1,0_targ_4_dist_green/trial13.png,,,0,4,greenverival,a,25,26,female,2021-02-19_15h29.12.399,exp11,2020.2.6,MacIntel,60,,,,,,,,,,,
,,,,,,,,,,,,,,a,1,0.59,space,0.099,0,195,195,199,1,0_targ_16_dist_green/trial25.png,,,0,16,greenverival,a,25,26,female,2021-02-19_15h29.12.399,exp11,2020.2.6,MacIntel,60,,,,,,,,,,,
,,,,,,,,,,,,,,a,1,0.497,space,0.1,0,196,196,166,1,0_targ_10_dist_green/trial17.png,,,0,10,greenverival,a,25,26,female,2021-02-19_15h29.12.399,exp11,2020.2.6,MacIntel,60,,,,,,,,,,,
,,,,,,,,,,,,,,p,1,0.815,space,0.099,0,197,197,85,1,15_dist_green/trial11.png,,,1,15,greenverival,p,25,26,female,2021-02-19_15h29.12.399,exp11,2020.2.6,MacIntel,60,,,,,,,,,,,
,,,,,,,,,,,,,,p,0,0.542,space,0.8,0,198,198,116,1,0_targ_1_dist_green/trial17.png,,,0,1,greenverival,a,25,26,female,2021-02-19_15h29.12.399,exp11,2020.2.6,MacIntel,60,,,,,,,,,,,
,,,,,,,,,,,,,,p,1,1.46,space,0.112,0,199,199,65,1,9_dist_green/trial16.png,,,1,9,greenverival,p,25,26,female,2021-02-19_15h29.12.399,exp11,2020.2.6,MacIntel,60,,,,,,,,,,,
,,,,,,,,,,,,,,,,,,,,,,,,,,,,,,,25,26,female,2021-02-19_15h29.12.399,exp11,2020.2.6,MacIntel,60,0,1,1,0,1,conGreen.xlsx,green vertical,Look for green vertical bar (target) and indicate if it is present or absent in the array. If green vertical target is present press 'p' and if absent press 'a'. Press SPACE to start.,,,
