key_resp_6.keys,key_resp_6.rt,key_resp_7.keys,key_resp_7.rt,key_resp_8.keys,key_resp_8.rt,key_resp_10.keys,key_resp_10.rt,key_resp_9.keys,key_resp_9.rt,key_resp_3.keys,key_resp_3.rt,key_resp_5.keys,key_resp_5.rt,key_resp.keys,key_resp.corr,key_resp.rt,key_resp_4.keys,key_resp_4.rt,trials.thisRepN,trials.thisTrialN,trials.thisN,trials.thisIndex,trials.ran,ImageFile,tarPos,tarSize,targPres,numDist,targetName,correctAns,participant,age,sex,date,expName,psychopyVersion,OS,frameRate,trials_2.thisRepN,trials_2.thisTrialN,trials_2.thisN,trials_2.thisIndex,trials_2.ran,condsFile,targName,instructionText,colTarget,sizeTarg,posit
space,6.147,space,32.939,space,34.95,space,45.056,space,69.864,space,58.369,space,8.815,p,1,1.51,space,6.11,0,0,0,76,1,15_dist_green/trial2.png,,,1,15,greenverival,p,26,26,female,2021-02-19_15h28.13.954,exp11,2020.2.6,MacIntel,60,,,,,,,,,,,
,,,,,,,,,,,,,,p,1,0.584,space,1.284,0,1,1,84,1,15_dist_green/trial10.png,,,1,15,greenverival,p,26,26,female,2021-02-19_15h28.13.954,exp11,2020.2.6,MacIntel,60,,,,,,,,,,,
,,,,,,,,,,,,,,p,1,0.586,space,0.824,0,2,2,96,1,15_dist_green/trial22.png,,,1,15,greenverival,p,26,26,female,2021-02-19_15h28.13.954,exp11,2020.2.6,MacIntel,60,,,,,,,,,,,
,,,,,,,,,,,,,,p,1,0.619,space,2.191,0,3,3,70,1,9_dist_green/trial21.png,,,1,9,greenverival,p,26,26,female,2021-02-19_15h28.13.954,exp11,2020.2.6,MacIntel,60,,,,,,,,,,,
,,,,,,,,,,,,,,p,1,0.685,space,1.036,0,4,4,39,1,3_dist_green/trial15.png,,,1,3,greenverival,p,26,26,female,2021-02-19_15h28.13.954,exp11,2020.2.6,MacIntel,60,,,,,,,,,,,
,,,,,,,,,,,,,,p,1,0.635,space,1.556,0,5,5,47,1,3_dist_green/trial23.png,,,1,3,greenverival,p,26,26,female,2021-02-19_15h28.13.954,exp11,2020.2.6,MacIntel,60,,,,,,,,,,,
,,,,,,,,,,,,,,p,1,0.585,space,0.603,0,6,6,57,1,9_dist_green/trial8.png,,,1,9,greenverival,p,26,26,female,2021-02-19_15h28.13.954,exp11,2020.2.6,MacIntel,60,,,,,,,,,,,
,,,,,,,,,,,,,,p,1,0.437,space,0.44,0,7,7,16,1,0_dist_green/trial17.png,,,1,0,greenverival,p,26,26,female,2021-02-19_15h28.13.954,exp11,2020.2.6,MacIntel,60,,,,,,,,,,,
,,,,,,,,,,,,,,p,0,0.503,space,3.22,0,8,8,176,1,0_targ_16_dist_green/trial2.png,,,0,16,greenverival,a,26,26,female,2021-02-19_15h28.13.954,exp11,2020.2.6,MacIntel,60,,,,,,,,,,,
,,,,,,,,,,,,,,p,1,0.904,space,0.548,0,9,9,93,1,15_dist_green/trial19.png,,,1,15,greenverival,p,26,26,female,2021-02-19_15h28.13.954,exp11,2020.2.6,MacIntel,60,,,,,,,,,,,
,,,,,,,,,,,,,,p,0,0.653,space,1.287,0,10,10,187,1,0_targ_16_dist_green/trial13.png,,,0,16,greenverival,a,26,26,female,2021-02-19_15h28.13.954,exp11,2020.2.6,MacIntel,60,,,,,,,,,,,
,,,,,,,,,,,,,,p,1,1.17,space,1.944,0,11,11,11,1,0_dist_green/trial12.png,,,1,0,greenverival,p,26,26,female,2021-02-19_15h28.13.954,exp11,2020.2.6,MacIntel,60,,,,,,,,,,,
,,,,,,,,,,,,,,p,0,0.787,space,0.857,0,12,12,115,1,0_targ_1_dist_green/trial6.png,,,0,1,greenverival,a,26,26,female,2021-02-19_15h28.13.954,exp11,2020.2.6,MacIntel,60,,,,,,,,,,,
,,,,,,,,,,,,,,p,0,0.986,space,0.291,0,13,13,132,1,0_targ_4_dist_green/trial8.png,,,0,4,greenverival,a,26,26,female,2021-02-19_15h28.13.954,exp11,2020.2.6,MacIntel,60,,,,,,,,,,,
,,,,,,,,,,,,,,p,0,0.651,space,0.125,0,14,14,136,1,0_targ_4_dist_green/trial12.png,,,0,4,greenverival,a,26,26,female,2021-02-19_15h28.13.954,exp11,2020.2.6,MacIntel,60,,,,,,,,,,,
,,,,,,,,,,,,,,p,0,0.969,space,1.307,0,15,15,108,1,0_targ_1_dist_green/trial9.png,,,0,1,greenverival,a,26,26,female,2021-02-19_15h28.13.954,exp11,2020.2.6,MacIntel,60,,,,,,,,,,,
,,,,,,,,,,,,,,p,1,3.819,space,1.014,0,16,16,37,1,3_dist_green/trial13.png,,,1,3,greenverival,p,26,26,female,2021-02-19_15h28.13.954,exp11,2020.2.6,MacIntel,60,,,,,,,,,,,
,,,,,,,,,,,,,,a,1,0.935,space,0.705,0,17,17,179,1,0_targ_16_dist_green/trial5.png,,,0,16,greenverival,a,26,26,female,2021-02-19_15h28.13.954,exp11,2020.2.6,MacIntel,60,,,,,,,,,,,
,,,,,,,,,,,,,,p,1,0.653,space,0.62,0,18,18,64,1,9_dist_green/trial15.png,,,1,9,greenverival,p,26,26,female,2021-02-19_15h28.13.954,exp11,2020.2.6,MacIntel,60,,,,,,,,,,,
,,,,,,,,,,,,,,a,1,1.137,space,0.68,0,19,19,178,1,0_targ_16_dist_green/trial4.png,,,0,16,greenverival,a,26,26,female,2021-02-19_15h28.13.954,exp11,2020.2.6,MacIntel,60,,,,,,,,,,,
,,,,,,,,,,,,,,a,1,0.82,space,0.42,0,20,20,153,1,0_targ_10_dist_green/trial4.png,,,0,10,greenverival,a,26,26,female,2021-02-19_15h28.13.954,exp11,2020.2.6,MacIntel,60,,,,,,,,,,,
,,,,,,,,,,,,,,a,1,0.837,space,0.456,0,21,21,156,1,0_targ_10_dist_green/trial7.png,,,0,10,greenverival,a,26,26,female,2021-02-19_15h28.13.954,exp11,2020.2.6,MacIntel,60,,,,,,,,,,,
,,,,,,,,,,,,,,a,1,0.803,space,0.304,0,22,22,198,1,0_targ_16_dist_green/trial24.png,,,0,16,greenverival,a,26,26,female,2021-02-19_15h28.13.954,exp11,2020.2.6,MacIntel,60,,,,,,,,,,,
,,,,,,,,,,,,,,p,1,0.867,space,0.906,0,23,23,35,1,3_dist_green/trial11.png,,,1,3,greenverival,p,26,26,female,2021-02-19_15h28.13.954,exp11,2020.2.6,MacIntel,60,,,,,,,,,,,
,,,,,,,,,,,,,,a,1,4.803,space,5.356,0,24,24,124,1,0_targ_1_dist_green/trial25.png,,,0,1,greenverival,a,26,26,female,2021-02-19_15h28.13.954,exp11,2020.2.6,MacIntel,60,,,,,,,,,,,
,,,,,,,,,,,,,,p,1,0.903,space,22.223,0,25,25,49,1,3_dist_green/trial25.png,,,1,3,greenverival,p,26,26,female,2021-02-19_15h28.13.954,exp11,2020.2.6,MacIntel,60,,,,,,,,,,,
,,,,,,,,,,,,,,a,1,1.132,space,1.02,0,26,26,170,1,0_targ_10_dist_green/trial21.png,,,0,10,greenverival,a,26,26,female,2021-02-19_15h28.13.954,exp11,2020.2.6,MacIntel,60,,,,,,,,,,,
,,,,,,,,,,,,,,a,1,0.903,space,0.386,0,27,27,159,1,0_targ_10_dist_green/trial10.png,,,0,10,greenverival,a,26,26,female,2021-02-19_15h28.13.954,exp11,2020.2.6,MacIntel,60,,,,,,,,,,,
,,,,,,,,,,,,,,p,1,0.785,space,1.019,0,28,28,61,1,9_dist_green/trial12.png,,,1,9,greenverival,p,26,26,female,2021-02-19_15h28.13.954,exp11,2020.2.6,MacIntel,60,,,,,,,,,,,
,,,,,,,,,,,,,,p,1,1.185,space,0.702,0,29,29,89,1,15_dist_green/trial15.png,,,1,15,greenverival,p,26,26,female,2021-02-19_15h28.13.954,exp11,2020.2.6,MacIntel,60,,,,,,,,,,,
,,,,,,,,,,,,,,a,1,0.801,space,0.69,0,30,30,177,1,0_targ_16_dist_green/trial3.png,,,0,16,greenverival,a,26,26,female,2021-02-19_15h28.13.954,exp11,2020.2.6,MacIntel,60,,,,,,,,,,,
,,,,,,,,,,,,,,a,1,0.769,space,0.399,0,31,31,152,1,0_targ_10_dist_green/trial3.png,,,0,10,greenverival,a,26,26,female,2021-02-19_15h28.13.954,exp11,2020.2.6,MacIntel,60,,,,,,,,,,,
,,,,,,,,,,,,,,p,1,0.702,space,0.49,0,32,32,36,1,3_dist_green/trial12.png,,,1,3,greenverival,p,26,26,female,2021-02-19_15h28.13.954,exp11,2020.2.6,MacIntel,60,,,,,,,,,,,
,,,,,,,,,,,,,,p,1,0.885,space,0.447,0,33,33,53,1,9_dist_green/trial4.png,,,1,9,greenverival,p,26,26,female,2021-02-19_15h28.13.954,exp11,2020.2.6,MacIntel,60,,,,,,,,,,,
,,,,,,,,,,,,,,a,1,0.702,space,0.52,0,34,34,161,1,0_targ_10_dist_green/trial12.png,,,0,10,greenverival,a,26,26,female,2021-02-19_15h28.13.954,exp11,2020.2.6,MacIntel,60,,,,,,,,,,,
,,,,,,,,,,,,,,p,1,0.685,space,0.473,0,35,35,42,1,3_dist_green/trial18.png,,,1,3,greenverival,p,26,26,female,2021-02-19_15h28.13.954,exp11,2020.2.6,MacIntel,60,,,,,,,,,,,
,,,,,,,,,,,,,,p,1,0.703,space,0.423,0,36,36,46,1,3_dist_green/trial22.png,,,1,3,greenverival,p,26,26,female,2021-02-19_15h28.13.954,exp11,2020.2.6,MacIntel,60,,,,,,,,,,,
,,,,,,,,,,,,,,p,1,0.536,space,0.656,0,37,37,4,1,0_dist_green/trial5.png,,,1,0,greenverival,p,26,26,female,2021-02-19_15h28.13.954,exp11,2020.2.6,MacIntel,60,,,,,,,,,,,
,,,,,,,,,,,,,,a,1,0.687,space,0.382,0,38,38,102,1,0_targ_1_dist_green/trial3.png,,,0,1,greenverival,a,26,26,female,2021-02-19_15h28.13.954,exp11,2020.2.6,MacIntel,60,,,,,,,,,,,
,,,,,,,,,,,,,,p,1,0.769,space,0.423,0,39,39,87,1,15_dist_green/trial13.png,,,1,15,greenverival,p,26,26,female,2021-02-19_15h28.13.954,exp11,2020.2.6,MacIntel,60,,,,,,,,,,,
,,,,,,,,,,,,,,a,1,0.65,space,0.44,0,40,40,142,1,0_targ_4_dist_green/trial18.png,,,0,4,greenverival,a,26,26,female,2021-02-19_15h28.13.954,exp11,2020.2.6,MacIntel,60,,,,,,,,,,,
,,,,,,,,,,,,,,a,1,0.951,space,0.657,0,41,41,133,1,0_targ_4_dist_green/trial9.png,,,0,4,greenverival,a,26,26,female,2021-02-19_15h28.13.954,exp11,2020.2.6,MacIntel,60,,,,,,,,,,,
,,,,,,,,,,,,,,p,1,0.52,space,0.407,0,42,42,32,1,3_dist_green/trial8.png,,,1,3,greenverival,p,26,26,female,2021-02-19_15h28.13.954,exp11,2020.2.6,MacIntel,60,,,,,,,,,,,
,,,,,,,,,,,,,,a,1,0.719,space,0.472,0,43,43,186,1,0_targ_16_dist_green/trial12.png,,,0,16,greenverival,a,26,26,female,2021-02-19_15h28.13.954,exp11,2020.2.6,MacIntel,60,,,,,,,,,,,
,,,,,,,,,,,,,,a,1,0.885,space,0.869,0,44,44,129,1,0_targ_4_dist_green/trial5.png,,,0,4,greenverival,a,26,26,female,2021-02-19_15h28.13.954,exp11,2020.2.6,MacIntel,60,,,,,,,,,,,
,,,,,,,,,,,,,,p,1,0.653,space,0.535,0,45,45,23,1,0_dist_green/trial24.png,,,1,0,greenverival,p,26,26,female,2021-02-19_15h28.13.954,exp11,2020.2.6,MacIntel,60,,,,,,,,,,,
,,,,,,,,,,,,,,a,1,0.902,space,0.423,0,46,46,119,1,0_targ_1_dist_green/trial20.png,,,0,1,greenverival,a,26,26,female,2021-02-19_15h28.13.954,exp11,2020.2.6,MacIntel,60,,,,,,,,,,,
,,,,,,,,,,,,,,p,1,0.854,space,0.369,0,47,47,78,1,15_dist_green/trial4.png,,,1,15,greenverival,p,26,26,female,2021-02-19_15h28.13.954,exp11,2020.2.6,MacIntel,60,,,,,,,,,,,
,,,,,,,,,,,,,,p,1,0.653,space,0.469,0,48,48,94,1,15_dist_green/trial20.png,,,1,15,greenverival,p,26,26,female,2021-02-19_15h28.13.954,exp11,2020.2.6,MacIntel,60,,,,,,,,,,,
,,,,,,,,,,,,,,p,1,0.536,space,0.473,0,49,49,41,1,3_dist_green/trial17.png,,,1,3,greenverival,p,26,26,female,2021-02-19_15h28.13.954,exp11,2020.2.6,MacIntel,60,,,,,,,,,,,
,,,,,,,,,,,,,,a,1,0.735,space,0.356,0,50,50,120,1,0_targ_1_dist_green/trial21.png,,,0,1,greenverival,a,26,26,female,2021-02-19_15h28.13.954,exp11,2020.2.6,MacIntel,60,,,,,,,,,,,
,,,,,,,,,,,,,,a,1,0.618,space,0.34,0,51,51,118,1,0_targ_1_dist_green/trial19.png,,,0,1,greenverival,a,26,26,female,2021-02-19_15h28.13.954,exp11,2020.2.6,MacIntel,60,,,,,,,,,,,
,,,,,,,,,,,,,,p,1,0.686,space,0.419,0,52,52,79,1,15_dist_green/trial5.png,,,1,15,greenverival,p,26,26,female,2021-02-19_15h28.13.954,exp11,2020.2.6,MacIntel,60,,,,,,,,,,,
,,,,,,,,,,,,,,p,1,0.67,space,0.624,0,53,53,43,1,3_dist_green/trial19.png,,,1,3,greenverival,p,26,26,female,2021-02-19_15h28.13.954,exp11,2020.2.6,MacIntel,60,,,,,,,,,,,
,,,,,,,,,,,,,,p,1,0.52,space,0.489,0,54,54,67,1,9_dist_green/trial18.png,,,1,9,greenverival,p,26,26,female,2021-02-19_15h28.13.954,exp11,2020.2.6,MacIntel,60,,,,,,,,,,,
,,,,,,,,,,,,,,p,1,0.52,space,0.44,0,55,55,6,1,0_dist_green/trial7.png,,,1,0,greenverival,p,26,26,female,2021-02-19_15h28.13.954,exp11,2020.2.6,MacIntel,60,,,,,,,,,,,
,,,,,,,,,,,,,,p,1,0.503,space,0.506,0,56,56,28,1,3_dist_green/trial4.png,,,1,3,greenverival,p,26,26,female,2021-02-19_15h28.13.954,exp11,2020.2.6,MacIntel,60,,,,,,,,,,,
,,,,,,,,,,,,,,a,1,0.92,space,0.457,0,57,57,192,1,0_targ_16_dist_green/trial18.png,,,0,16,greenverival,a,26,26,female,2021-02-19_15h28.13.954,exp11,2020.2.6,MacIntel,60,,,,,,,,,,,
,,,,,,,,,,,,,,a,1,0.769,space,0.373,0,58,58,140,1,0_targ_4_dist_green/trial6.png,,,0,4,greenverival,a,26,26,female,2021-02-19_15h28.13.954,exp11,2020.2.6,MacIntel,60,,,,,,,,,,,
,,,,,,,,,,,,,,a,1,0.786,space,0.32,0,59,59,185,1,0_targ_16_dist_green/trial11.png,,,0,16,greenverival,a,26,26,female,2021-02-19_15h28.13.954,exp11,2020.2.6,MacIntel,60,,,,,,,,,,,
,,,,,,,,,,,,,,p,1,0.586,space,0.307,0,60,60,52,1,9_dist_green/trial3.png,,,1,9,greenverival,p,26,26,female,2021-02-19_15h28.13.954,exp11,2020.2.6,MacIntel,60,,,,,,,,,,,
,,,,,,,,,,,,,,a,1,1.068,space,0.408,0,61,61,196,1,0_targ_16_dist_green/trial22.png,,,0,16,greenverival,a,26,26,female,2021-02-19_15h28.13.954,exp11,2020.2.6,MacIntel,60,,,,,,,,,,,
,,,,,,,,,,,,,,p,1,0.651,space,0.29,0,62,62,26,1,3_dist_green/trial2.png,,,1,3,greenverival,p,26,26,female,2021-02-19_15h28.13.954,exp11,2020.2.6,MacIntel,60,,,,,,,,,,,
,,,,,,,,,,,,,,p,1,0.619,space,0.339,0,63,63,95,1,15_dist_green/trial21.png,,,1,15,greenverival,p,26,26,female,2021-02-19_15h28.13.954,exp11,2020.2.6,MacIntel,60,,,,,,,,,,,
,,,,,,,,,,,,,,p,1,0.553,space,0.357,0,64,64,27,1,3_dist_green/trial3.png,,,1,3,greenverival,p,26,26,female,2021-02-19_15h28.13.954,exp11,2020.2.6,MacIntel,60,,,,,,,,,,,
,,,,,,,,,,,,,,a,1,0.703,space,0.34,0,65,65,190,1,0_targ_16_dist_green/trial16.png,,,0,16,greenverival,a,26,26,female,2021-02-19_15h28.13.954,exp11,2020.2.6,MacIntel,60,,,,,,,,,,,
,,,,,,,,,,,,,,p,1,0.769,space,0.29,0,66,66,55,1,9_dist_green/trial6.png,,,1,9,greenverival,p,26,26,female,2021-02-19_15h28.13.954,exp11,2020.2.6,MacIntel,60,,,,,,,,,,,
,,,,,,,,,,,,,,a,1,0.603,space,0.374,0,67,67,131,1,0_targ_4_dist_green/trial7.png,,,0,4,greenverival,a,26,26,female,2021-02-19_15h28.13.954,exp11,2020.2.6,MacIntel,60,,,,,,,,,,,
,,,,,,,,,,,,,,a,1,0.866,space,0.319,0,68,68,150,1,0_targ_10_dist_green/trial1.png,,,0,10,greenverival,a,26,26,female,2021-02-19_15h28.13.954,exp11,2020.2.6,MacIntel,60,,,,,,,,,,,
,,,,,,,,,,,,,,a,1,0.62,space,0.351,0,69,69,147,1,0_targ_4_dist_green/trial23.png,,,0,4,greenverival,a,26,26,female,2021-02-19_15h28.13.954,exp11,2020.2.6,MacIntel,60,,,,,,,,,,,
,,,,,,,,,,,,,,a,1,0.703,space,0.404,0,70,70,103,1,0_targ_1_dist_green/trial4.png,,,0,1,greenverival,a,26,26,female,2021-02-19_15h28.13.954,exp11,2020.2.6,MacIntel,60,,,,,,,,,,,
,,,,,,,,,,,,,,p,1,0.603,space,0.441,0,71,71,38,1,3_dist_green/trial14.png,,,1,3,greenverival,p,26,26,female,2021-02-19_15h28.13.954,exp11,2020.2.6,MacIntel,60,,,,,,,,,,,
,,,,,,,,,,,,,,p,1,0.729,space,0.373,0,72,72,97,1,15_dist_green/trial23.png,,,1,15,greenverival,p,26,26,female,2021-02-19_15h28.13.954,exp11,2020.2.6,MacIntel,60,,,,,,,,,,,
,,,,,,,,,,,,,,p,1,0.536,space,0.389,0,73,73,66,1,9_dist_green/trial17.png,,,1,9,greenverival,p,26,26,female,2021-02-19_15h28.13.954,exp11,2020.2.6,MacIntel,60,,,,,,,,,,,
,,,,,,,,,,,,,,p,1,0.969,space,0.54,0,74,74,80,1,15_dist_green/trial6.png,,,1,15,greenverival,p,26,26,female,2021-02-19_15h28.13.954,exp11,2020.2.6,MacIntel,60,,,,,,,,,,,
,,,,,,,,,,,,,,p,1,0.569,space,0.337,0,75,75,12,1,0_dist_green/trial13.png,,,1,0,greenverival,p,26,26,female,2021-02-19_15h28.13.954,exp11,2020.2.6,MacIntel,60,,,,,,,,,,,
,,,,,,,,,,,,,,a,1,0.77,space,0.374,0,76,76,143,1,0_targ_4_dist_green/trial19.png,,,0,4,greenverival,a,26,26,female,2021-02-19_15h28.13.954,exp11,2020.2.6,MacIntel,60,,,,,,,,,,,
,,,,,,,,,,,,,,p,1,0.702,space,0.486,0,77,77,85,1,15_dist_green/trial11.png,,,1,15,greenverival,p,26,26,female,2021-02-19_15h28.13.954,exp11,2020.2.6,MacIntel,60,,,,,,,,,,,
,,,,,,,,,,,,,,a,1,1.269,space,0.423,0,78,78,126,1,0_targ_4_dist_green/trial2.png,,,0,4,greenverival,a,26,26,female,2021-02-19_15h28.13.954,exp11,2020.2.6,MacIntel,60,,,,,,,,,,,
,,,,,,,,,,,,,,a,1,0.82,space,0.423,0,79,79,183,1,0_targ_16_dist_green/trial9.png,,,0,16,greenverival,a,26,26,female,2021-02-19_15h28.13.954,exp11,2020.2.6,MacIntel,60,,,,,,,,,,,
,,,,,,,,,,,,,,a,1,0.582,space,0.352,0,80,80,130,1,0_targ_4_dist_green/trial6.png,,,0,4,greenverival,a,26,26,female,2021-02-19_15h28.13.954,exp11,2020.2.6,MacIntel,60,,,,,,,,,,,
,,,,,,,,,,,,,,p,1,0.57,space,0.37,0,81,81,21,1,0_dist_green/trial22.png,,,1,0,greenverival,p,26,26,female,2021-02-19_15h28.13.954,exp11,2020.2.6,MacIntel,60,,,,,,,,,,,
,,,,,,,,,,,,,,a,1,0.752,space,0.356,0,82,82,112,1,0_targ_1_dist_green/trial13.png,,,0,1,greenverival,a,26,26,female,2021-02-19_15h28.13.954,exp11,2020.2.6,MacIntel,60,,,,,,,,,,,
,,,,,,,,,,,,,,a,1,0.67,space,1.019,0,83,83,164,1,0_targ_10_dist_green/trial15.png,,,0,10,greenverival,a,26,26,female,2021-02-19_15h28.13.954,exp11,2020.2.6,MacIntel,60,,,,,,,,,,,
,,,,,,,,,,,,,,p,1,0.537,space,0.419,0,84,84,17,1,0_dist_green/trial18.png,,,1,0,greenverival,p,26,26,female,2021-02-19_15h28.13.954,exp11,2020.2.6,MacIntel,60,,,,,,,,,,,
,,,,,,,,,,,,,,p,1,0.72,space,0.351,0,85,85,40,1,3_dist_green/trial16.png,,,1,3,greenverival,p,26,26,female,2021-02-19_15h28.13.954,exp11,2020.2.6,MacIntel,60,,,,,,,,,,,
,,,,,,,,,,,,,,p,1,0.536,space,0.352,0,86,86,92,1,15_dist_green/trial18.png,,,1,15,greenverival,p,26,26,female,2021-02-19_15h28.13.954,exp11,2020.2.6,MacIntel,60,,,,,,,,,,,
,,,,,,,,,,,,,,p,1,0.603,space,0.419,0,87,87,3,1,0_dist_green/trial4.png,,,1,0,greenverival,p,26,26,female,2021-02-19_15h28.13.954,exp11,2020.2.6,MacIntel,60,,,,,,,,,,,
,,,,,,,,,,,,,,a,1,0.67,space,0.286,0,88,88,135,1,0_targ_4_dist_green/trial11.png,,,0,4,greenverival,a,26,26,female,2021-02-19_15h28.13.954,exp11,2020.2.6,MacIntel,60,,,,,,,,,,,
,,,,,,,,,,,,,,p,1,0.57,space,0.287,0,89,89,25,1,3_dist_green/trial1.png,,,1,3,greenverival,p,26,26,female,2021-02-19_15h28.13.954,exp11,2020.2.6,MacIntel,60,,,,,,,,,,,
,,,,,,,,,,,,,,a,1,0.621,space,0.314,0,90,90,160,1,0_targ_10_dist_green/trial11.png,,,0,10,greenverival,a,26,26,female,2021-02-19_15h28.13.954,exp11,2020.2.6,MacIntel,60,,,,,,,,,,,
,,,,,,,,,,,,,,a,1,0.686,space,0.29,0,91,91,101,1,0_targ_1_dist_green/trial2.png,,,0,1,greenverival,a,26,26,female,2021-02-19_15h28.13.954,exp11,2020.2.6,MacIntel,60,,,,,,,,,,,
,,,,,,,,,,,,,,p,1,0.566,space,0.22,0,92,92,72,1,9_dist_green/trial23.png,,,1,9,greenverival,p,26,26,female,2021-02-19_15h28.13.954,exp11,2020.2.6,MacIntel,60,,,,,,,,,,,
,,,,,,,,,,,,,,p,1,0.585,space,0.24,0,93,93,86,1,15_dist_green/trial12.png,,,1,15,greenverival,p,26,26,female,2021-02-19_15h28.13.954,exp11,2020.2.6,MacIntel,60,,,,,,,,,,,
,,,,,,,,,,,,,,a,1,0.686,space,0.318,0,94,94,141,1,0_targ_4_dist_green/trial17.png,,,0,4,greenverival,a,26,26,female,2021-02-19_15h28.13.954,exp11,2020.2.6,MacIntel,60,,,,,,,,,,,
,,,,,,,,,,,,,,a,1,0.787,space,0.269,0,95,95,184,1,0_targ_16_dist_green/trial10.png,,,0,16,greenverival,a,26,26,female,2021-02-19_15h28.13.954,exp11,2020.2.6,MacIntel,60,,,,,,,,,,,
,,,,,,,,,,,,,,p,1,0.838,space,0.324,0,96,96,54,1,9_dist_green/trial5.png,,,1,9,greenverival,p,26,26,female,2021-02-19_15h28.13.954,exp11,2020.2.6,MacIntel,60,,,,,,,,,,,
,,,,,,,,,,,,,,p,1,0.57,space,0.319,0,97,97,15,1,0_dist_green/trial16.png,,,1,0,greenverival,p,26,26,female,2021-02-19_15h28.13.954,exp11,2020.2.6,MacIntel,60,,,,,,,,,,,
,,,,,,,,,,,,,,p,1,0.37,space,0.34,0,98,98,20,1,0_dist_green/trial21.png,,,1,0,greenverival,p,26,26,female,2021-02-19_15h28.13.954,exp11,2020.2.6,MacIntel,60,,,,,,,,,,,
,,,,,,,,,,,,,,p,1,0.77,space,0.307,0,99,99,73,1,9_dist_green/trial24.png,,,1,9,greenverival,p,26,26,female,2021-02-19_15h28.13.954,exp11,2020.2.6,MacIntel,60,,,,,,,,,,,
,,,,,,,,,,,,,,a,1,0.704,space,0.269,0,100,100,125,1,0_targ_4_dist_green/trial1.png,,,0,4,greenverival,a,26,26,female,2021-02-19_15h28.13.954,exp11,2020.2.6,MacIntel,60,,,,,,,,,,,
,,,,,,,,,,,,,,a,1,1.002,space,0.407,0,101,101,110,1,0_targ_1_dist_green/trial11.png,,,0,1,greenverival,a,26,26,female,2021-02-19_15h28.13.954,exp11,2020.2.6,MacIntel,60,,,,,,,,,,,
,,,,,,,,,,,,,,a,1,0.619,space,0.373,0,102,102,100,1,0_targ_1_dist_green/trial1.png,,,0,1,greenverival,a,26,26,female,2021-02-19_15h28.13.954,exp11,2020.2.6,MacIntel,60,,,,,,,,,,,
,,,,,,,,,,,,,,a,1,1.319,space,0.474,0,103,103,199,1,0_targ_16_dist_green/trial25.png,,,0,16,greenverival,a,26,26,female,2021-02-19_15h28.13.954,exp11,2020.2.6,MacIntel,60,,,,,,,,,,,
,,,,,,,,,,,,,,a,1,1.02,space,0.365,0,104,104,117,1,0_targ_1_dist_green/trial18.png,,,0,1,greenverival,a,26,26,female,2021-02-19_15h28.13.954,exp11,2020.2.6,MacIntel,60,,,,,,,,,,,
,,,,,,,,,,,,,,a,1,0.787,space,0.267,0,105,105,157,1,0_targ_10_dist_green/trial8.png,,,0,10,greenverival,a,26,26,female,2021-02-19_15h28.13.954,exp11,2020.2.6,MacIntel,60,,,,,,,,,,,
,,,,,,,,,,,,,,p,1,0.638,space,0.289,0,106,106,62,1,9_dist_green/trial13.png,,,1,9,greenverival,p,26,26,female,2021-02-19_15h28.13.954,exp11,2020.2.6,MacIntel,60,,,,,,,,,,,
,,,,,,,,,,,,,,a,1,0.77,space,0.706,0,107,107,182,1,0_targ_16_dist_green/trial8.png,,,0,16,greenverival,a,26,26,female,2021-02-19_15h28.13.954,exp11,2020.2.6,MacIntel,60,,,,,,,,,,,
,,,,,,,,,,,,,,a,1,0.785,space,0.641,0,108,108,151,1,0_targ_10_dist_green/trial2.png,,,0,10,greenverival,a,26,26,female,2021-02-19_15h28.13.954,exp11,2020.2.6,MacIntel,60,,,,,,,,,,,
,,,,,,,,,,,,,,a,1,0.569,space,0.502,0,109,109,166,1,0_targ_10_dist_green/trial17.png,,,0,10,greenverival,a,26,26,female,2021-02-19_15h28.13.954,exp11,2020.2.6,MacIntel,60,,,,,,,,,,,
,,,,,,,,,,,,,,a,1,0.553,space,0.502,0,110,110,148,1,0_targ_4_dist_green/trial24.png,,,0,4,greenverival,a,26,26,female,2021-02-19_15h28.13.954,exp11,2020.2.6,MacIntel,60,,,,,,,,,,,
,,,,,,,,,,,,,,a,1,0.487,space,0.574,0,111,111,162,1,0_targ_10_dist_green/trial13.png,,,0,10,greenverival,a,26,26,female,2021-02-19_15h28.13.954,exp11,2020.2.6,MacIntel,60,,,,,,,,,,,
,,,,,,,,,,,,,,p,1,0.603,space,0.452,0,112,112,65,1,9_dist_green/trial16.png,,,1,9,greenverival,p,26,26,female,2021-02-19_15h28.13.954,exp11,2020.2.6,MacIntel,60,,,,,,,,,,,
,,,,,,,,,,,,,,a,1,0.686,space,0.42,0,113,113,174,1,0_targ_10_dist_green/trial25.png,,,0,10,greenverival,a,26,26,female,2021-02-19_15h28.13.954,exp11,2020.2.6,MacIntel,60,,,,,,,,,,,
,,,,,,,,,,,,,,a,1,0.702,space,0.737,0,114,114,194,1,0_targ_16_dist_green/trial20.png,,,0,16,greenverival,a,26,26,female,2021-02-19_15h28.13.954,exp11,2020.2.6,MacIntel,60,,,,,,,,,,,
,,,,,,,,,,,,,,a,1,0.654,space,0.415,0,115,115,165,1,0_targ_10_dist_green/trial16.png,,,0,10,greenverival,a,26,26,female,2021-02-19_15h28.13.954,exp11,2020.2.6,MacIntel,60,,,,,,,,,,,
,,,,,,,,,,,,,,p,1,0.721,space,0.373,0,116,116,5,1,0_dist_green/trial6.png,,,1,0,greenverival,p,26,26,female,2021-02-19_15h28.13.954,exp11,2020.2.6,MacIntel,60,,,,,,,,,,,
,,,,,,,,,,,,,,p,1,0.436,space,0.381,0,117,117,13,1,0_dist_green/trial14.png,,,1,0,greenverival,p,26,26,female,2021-02-19_15h28.13.954,exp11,2020.2.6,MacIntel,60,,,,,,,,,,,
,,,,,,,,,,,,,,a,1,0.587,space,0.424,0,118,118,195,1,0_targ_16_dist_green/trial21.png,,,0,16,greenverival,a,26,26,female,2021-02-19_15h28.13.954,exp11,2020.2.6,MacIntel,60,,,,,,,,,,,
,,,,,,,,,,,,,,a,1,0.67,space,0.373,0,119,119,188,1,0_targ_16_dist_green/trial14.png,,,0,16,greenverival,a,26,26,female,2021-02-19_15h28.13.954,exp11,2020.2.6,MacIntel,60,,,,,,,,,,,
,,,,,,,,,,,,,,a,1,0.753,space,0.325,0,120,120,172,1,0_targ_10_dist_green/trial23.png,,,0,10,greenverival,a,26,26,female,2021-02-19_15h28.13.954,exp11,2020.2.6,MacIntel,60,,,,,,,,,,,
,,,,,,,,,,,,,,a,1,0.703,space,0.419,0,121,121,155,1,0_targ_10_dist_green/trial6.png,,,0,10,greenverival,a,26,26,female,2021-02-19_15h28.13.954,exp11,2020.2.6,MacIntel,60,,,,,,,,,,,
,,,,,,,,,,,,,,a,1,0.754,space,0.386,0,122,122,175,1,0_targ_16_dist_green/trial1.png,,,0,16,greenverival,a,26,26,female,2021-02-19_15h28.13.954,exp11,2020.2.6,MacIntel,60,,,,,,,,,,,
,,,,,,,,,,,,,,a,1,0.453,space,0.406,0,123,123,145,1,0_targ_4_dist_green/trial21.png,,,0,4,greenverival,a,26,26,female,2021-02-19_15h28.13.954,exp11,2020.2.6,MacIntel,60,,,,,,,,,,,
,,,,,,,,,,,,,,p,1,0.703,space,0.373,0,124,124,91,1,15_dist_green/trial17.png,,,1,15,greenverival,p,26,26,female,2021-02-19_15h28.13.954,exp11,2020.2.6,MacIntel,60,,,,,,,,,,,
,,,,,,,,,,,,,,a,1,0.604,space,0.419,0,125,125,134,1,0_targ_4_dist_green/trial10.png,,,0,4,greenverival,a,26,26,female,2021-02-19_15h28.13.954,exp11,2020.2.6,MacIntel,60,,,,,,,,,,,
,,,,,,,,,,,,,,a,0,0.52,space,1.203,0,126,126,63,1,9_dist_green/trial14.png,,,1,9,greenverival,p,26,26,female,2021-02-19_15h28.13.954,exp11,2020.2.6,MacIntel,60,,,,,,,,,,,
,,,,,,,,,,,,,,p,1,0.635,space,0.33,0,127,127,98,1,15_dist_green/trial24.png,,,1,15,greenverival,p,26,26,female,2021-02-19_15h28.13.954,exp11,2020.2.6,MacIntel,60,,,,,,,,,,,
,,,,,,,,,,,,,,p,1,0.521,space,0.44,0,128,128,0,1,0_dist_green/trial1.png,,,1,0,greenverival,p,26,26,female,2021-02-19_15h28.13.954,exp11,2020.2.6,MacIntel,60,,,,,,,,,,,
,,,,,,,,,,,,,,p,1,0.586,space,0.324,0,129,129,75,1,15_dist_green/trial1.png,,,1,15,greenverival,p,26,26,female,2021-02-19_15h28.13.954,exp11,2020.2.6,MacIntel,60,,,,,,,,,,,
,,,,,,,,,,,,,,a,1,0.786,space,0.301,0,130,130,167,1,0_targ_10_dist_green/trial18.png,,,0,10,greenverival,a,26,26,female,2021-02-19_15h28.13.954,exp11,2020.2.6,MacIntel,60,,,,,,,,,,,
,,,,,,,,,,,,,,p,1,0.536,space,0.324,0,131,131,14,1,0_dist_green/trial15.png,,,1,0,greenverival,p,26,26,female,2021-02-19_15h28.13.954,exp11,2020.2.6,MacIntel,60,,,,,,,,,,,
,,,,,,,,,,,,,,a,1,0.569,space,0.357,0,132,132,109,1,0_targ_1_dist_green/trial10.png,,,0,1,greenverival,a,26,26,female,2021-02-19_15h28.13.954,exp11,2020.2.6,MacIntel,60,,,,,,,,,,,
,,,,,,,,,,,,,,p,1,0.787,space,0.241,0,133,133,34,1,3_dist_green/trial10.png,,,1,3,greenverival,p,26,26,female,2021-02-19_15h28.13.954,exp11,2020.2.6,MacIntel,60,,,,,,,,,,,
,,,,,,,,,,,,,,a,1,0.751,space,0.254,0,134,134,180,1,0_targ_16_dist_green/trial6.png,,,0,16,greenverival,a,26,26,female,2021-02-19_15h28.13.954,exp11,2020.2.6,MacIntel,60,,,,,,,,,,,
,,,,,,,,,,,,,,p,1,0.619,space,0.225,0,135,135,31,1,3_dist_green/trial7.png,,,1,3,greenverival,p,26,26,female,2021-02-19_15h28.13.954,exp11,2020.2.6,MacIntel,60,,,,,,,,,,,
,,,,,,,,,,,,,,a,1,0.67,space,0.32,0,136,136,169,1,0_targ_10_dist_green/trial20.png,,,0,10,greenverival,a,26,26,female,2021-02-19_15h28.13.954,exp11,2020.2.6,MacIntel,60,,,,,,,,,,,
,,,,,,,,,,,,,,p,1,0.469,space,0.252,0,137,137,10,1,0_dist_green/trial11.png,,,1,0,greenverival,p,26,26,female,2021-02-19_15h28.13.954,exp11,2020.2.6,MacIntel,60,,,,,,,,,,,
,,,,,,,,,,,,,,a,1,0.686,space,0.241,0,138,138,191,1,0_targ_16_dist_green/trial17.png,,,0,16,greenverival,a,26,26,female,2021-02-19_15h28.13.954,exp11,2020.2.6,MacIntel,60,,,,,,,,,,,
,,,,,,,,,,,,,,p,1,0.552,space,0.219,0,139,139,71,1,9_dist_green/trial22.png,,,1,9,greenverival,p,26,26,female,2021-02-19_15h28.13.954,exp11,2020.2.6,MacIntel,60,,,,,,,,,,,
,,,,,,,,,,,,,,p,1,0.552,space,0.39,0,140,140,2,1,0_dist_green/trial3.png,,,1,0,greenverival,p,26,26,female,2021-02-19_15h28.13.954,exp11,2020.2.6,MacIntel,60,,,,,,,,,,,
,,,,,,,,,,,,,,p,1,0.769,space,0.623,0,141,141,77,1,15_dist_green/trial3.png,,,1,15,greenverival,p,26,26,female,2021-02-19_15h28.13.954,exp11,2020.2.6,MacIntel,60,,,,,,,,,,,
,,,,,,,,,,,,,,a,1,0.719,space,0.291,0,142,142,144,1,0_targ_4_dist_green/trial20.png,,,0,4,greenverival,a,26,26,female,2021-02-19_15h28.13.954,exp11,2020.2.6,MacIntel,60,,,,,,,,,,,
,,,,,,,,,,,,,,a,1,0.75,space,0.357,0,143,143,168,1,0_targ_10_dist_green/trial19.png,,,0,10,greenverival,a,26,26,female,2021-02-19_15h28.13.954,exp11,2020.2.6,MacIntel,60,,,,,,,,,,,
,,,,,,,,,,,,,,a,1,1.004,space,0.339,0,144,144,123,1,0_targ_1_dist_green/trial24.png,,,0,1,greenverival,a,26,26,female,2021-02-19_15h28.13.954,exp11,2020.2.6,MacIntel,60,,,,,,,,,,,
,,,,,,,,,,,,,,p,1,0.636,space,0.339,0,145,145,50,1,9_dist_green/trial1.png,,,1,9,greenverival,p,26,26,female,2021-02-19_15h28.13.954,exp11,2020.2.6,MacIntel,60,,,,,,,,,,,
,,,,,,,,,,,,,,p,1,0.586,space,0.39,0,146,146,9,1,0_dist_green/trial10.png,,,1,0,greenverival,p,26,26,female,2021-02-19_15h28.13.954,exp11,2020.2.6,MacIntel,60,,,,,,,,,,,
,,,,,,,,,,,,,,a,1,0.769,space,0.423,0,147,147,107,1,0_targ_1_dist_green/trial8.png,,,0,1,greenverival,a,26,26,female,2021-02-19_15h28.13.954,exp11,2020.2.6,MacIntel,60,,,,,,,,,,,
,,,,,,,,,,,,,,a,1,0.954,space,0.373,0,148,148,197,1,0_targ_16_dist_green/trial23.png,,,0,16,greenverival,a,26,26,female,2021-02-19_15h28.13.954,exp11,2020.2.6,MacIntel,60,,,,,,,,,,,
,,,,,,,,,,,,,,a,1,0.703,space,0.332,0,149,149,138,1,0_targ_4_dist_green/trial14.png,,,0,4,greenverival,a,26,26,female,2021-02-19_15h28.13.954,exp11,2020.2.6,MacIntel,60,,,,,,,,,,,
,,,,,,,,,,,,,,p,1,0.701,space,0.303,0,150,150,68,1,9_dist_green/trial19.png,,,1,9,greenverival,p,26,26,female,2021-02-19_15h28.13.954,exp11,2020.2.6,MacIntel,60,,,,,,,,,,,
,,,,,,,,,,,,,,p,1,0.57,space,0.451,0,151,151,82,1,15_dist_green/trial8.png,,,1,15,greenverival,p,26,26,female,2021-02-19_15h28.13.954,exp11,2020.2.6,MacIntel,60,,,,,,,,,,,
,,,,,,,,,,,,,,p,1,0.469,space,0.422,0,152,152,22,1,0_dist_green/trial23.png,,,1,0,greenverival,p,26,26,female,2021-02-19_15h28.13.954,exp11,2020.2.6,MacIntel,60,,,,,,,,,,,
,,,,,,,,,,,,,,p,1,0.671,space,0.519,0,153,153,19,1,0_dist_green/trial20.png,,,1,0,greenverival,p,26,26,female,2021-02-19_15h28.13.954,exp11,2020.2.6,MacIntel,60,,,,,,,,,,,
,,,,,,,,,,,,,,p,1,0.585,space,0.37,0,154,154,81,1,15_dist_green/trial7.png,,,1,15,greenverival,p,26,26,female,2021-02-19_15h28.13.954,exp11,2020.2.6,MacIntel,60,,,,,,,,,,,
,,,,,,,,,,,,,,a,1,0.603,space,0.406,0,155,155,127,1,0_targ_4_dist_green/trial3.png,,,0,4,greenverival,a,26,26,female,2021-02-19_15h28.13.954,exp11,2020.2.6,MacIntel,60,,,,,,,,,,,
,,,,,,,,,,,,,,a,1,0.753,space,0.34,0,156,156,158,1,0_targ_10_dist_green/trial9.png,,,0,10,greenverival,a,26,26,female,2021-02-19_15h28.13.954,exp11,2020.2.6,MacIntel,60,,,,,,,,,,,
,,,,,,,,,,,,,,p,1,0.636,space,0.34,0,157,157,18,1,0_dist_green/trial19.png,,,1,0,greenverival,p,26,26,female,2021-02-19_15h28.13.954,exp11,2020.2.6,MacIntel,60,,,,,,,,,,,
,,,,,,,,,,,,,,a,1,0.769,space,0.39,0,158,158,128,1,0_targ_4_dist_green/trial4.png,,,0,4,greenverival,a,26,26,female,2021-02-19_15h28.13.954,exp11,2020.2.6,MacIntel,60,,,,,,,,,,,
,,,,,,,,,,,,,,p,1,0.603,space,0.469,0,159,159,1,1,0_dist_green/trial2.png,,,1,0,greenverival,p,26,26,female,2021-02-19_15h28.13.954,exp11,2020.2.6,MacIntel,60,,,,,,,,,,,
,,,,,,,,,,,,,,a,1,0.703,space,0.324,0,160,160,149,1,0_targ_4_dist_green/trial25.png,,,0,4,greenverival,a,26,26,female,2021-02-19_15h28.13.954,exp11,2020.2.6,MacIntel,60,,,,,,,,,,,
,,,,,,,,,,,,,,a,1,0.753,space,0.273,0,161,161,137,1,0_targ_4_dist_green/trial13.png,,,0,4,greenverival,a,26,26,female,2021-02-19_15h28.13.954,exp11,2020.2.6,MacIntel,60,,,,,,,,,,,
,,,,,,,,,,,,,,p,1,0.667,space,0.273,0,162,162,24,1,0_dist_green/trial25.png,,,1,0,greenverival,p,26,26,female,2021-02-19_15h28.13.954,exp11,2020.2.6,MacIntel,60,,,,,,,,,,,
,,,,,,,,,,,,,,p,1,0.687,space,0.39,0,163,163,69,1,9_dist_green/trial20.png,,,1,9,greenverival,p,26,26,female,2021-02-19_15h28.13.954,exp11,2020.2.6,MacIntel,60,,,,,,,,,,,
,,,,,,,,,,,,,,p,1,0.72,space,0.323,0,164,164,59,1,9_dist_green/trial10.png,,,1,9,greenverival,p,26,26,female,2021-02-19_15h28.13.954,exp11,2020.2.6,MacIntel,60,,,,,,,,,,,
,,,,,,,,,,,,,,a,1,0.687,space,0.307,0,165,165,163,1,0_targ_10_dist_green/trial14.png,,,0,10,greenverival,a,26,26,female,2021-02-19_15h28.13.954,exp11,2020.2.6,MacIntel,60,,,,,,,,,,,
,,,,,,,,,,,,,,p,1,0.635,space,0.304,0,166,166,45,1,3_dist_green/trial21.png,,,1,3,greenverival,p,26,26,female,2021-02-19_15h28.13.954,exp11,2020.2.6,MacIntel,60,,,,,,,,,,,
,,,,,,,,,,,,,,a,1,0.736,space,0.423,0,167,167,106,1,0_targ_1_dist_green/trial7.png,,,0,1,greenverival,a,26,26,female,2021-02-19_15h28.13.954,exp11,2020.2.6,MacIntel,60,,,,,,,,,,,
,,,,,,,,,,,,,,p,1,0.586,space,0.319,0,168,168,33,1,3_dist_green/trial9.png,,,1,3,greenverival,p,26,26,female,2021-02-19_15h28.13.954,exp11,2020.2.6,MacIntel,60,,,,,,,,,,,
,,,,,,,,,,,,,,p,1,0.637,space,0.403,0,169,169,60,1,9_dist_green/trial11.png,,,1,9,greenverival,p,26,26,female,2021-02-19_15h28.13.954,exp11,2020.2.6,MacIntel,60,,,,,,,,,,,
,,,,,,,,,,,,,,a,1,0.687,space,0.456,0,170,170,116,1,0_targ_1_dist_green/trial17.png,,,0,1,greenverival,a,26,26,female,2021-02-19_15h28.13.954,exp11,2020.2.6,MacIntel,60,,,,,,,,,,,
,,,,,,,,,,,,,,p,1,0.87,space,0.54,0,171,171,51,1,9_dist_green/trial2.png,,,1,9,greenverival,p,26,26,female,2021-02-19_15h28.13.954,exp11,2020.2.6,MacIntel,60,,,,,,,,,,,
,,,,,,,,,,,,,,a,1,0.702,space,0.441,0,172,172,121,1,0_targ_1_dist_green/trial22.png,,,0,1,greenverival,a,26,26,female,2021-02-19_15h28.13.954,exp11,2020.2.6,MacIntel,60,,,,,,,,,,,
,,,,,,,,,,,,,,p,1,0.686,space,0.49,0,173,173,83,1,15_dist_green/trial9.png,,,1,15,greenverival,p,26,26,female,2021-02-19_15h28.13.954,exp11,2020.2.6,MacIntel,60,,,,,,,,,,,
,,,,,,,,,,,,,,p,1,0.569,space,0.44,0,174,174,48,1,3_dist_green/trial24.png,,,1,3,greenverival,p,26,26,female,2021-02-19_15h28.13.954,exp11,2020.2.6,MacIntel,60,,,,,,,,,,,
,,,,,,,,,,,,,,p,1,0.669,space,0.404,0,175,175,99,1,15_dist_green/trial25.png,,,1,15,greenverival,p,26,26,female,2021-02-19_15h28.13.954,exp11,2020.2.6,MacIntel,60,,,,,,,,,,,
,,,,,,,,,,,,,,a,1,0.671,space,1.723,0,176,176,122,1,0_targ_1_dist_green/trial23.png,,,0,1,greenverival,a,26,26,female,2021-02-19_15h28.13.954,exp11,2020.2.6,MacIntel,60,,,,,,,,,,,
,,,,,,,,,,,,,,a,1,0.737,space,0.357,0,177,177,113,1,0_targ_1_dist_green/trial14.png,,,0,1,greenverival,a,26,26,female,2021-02-19_15h28.13.954,exp11,2020.2.6,MacIntel,60,,,,,,,,,,,
,,,,,,,,,,,,,,a,1,0.756,space,0.384,0,178,178,105,1,0_targ_1_dist_green/trial6.png,,,0,1,greenverival,a,26,26,female,2021-02-19_15h28.13.954,exp11,2020.2.6,MacIntel,60,,,,,,,,,,,
,,,,,,,,,,,,,,p,1,0.637,space,0.353,0,179,179,29,1,3_dist_green/trial5.png,,,1,3,greenverival,p,26,26,female,2021-02-19_15h28.13.954,exp11,2020.2.6,MacIntel,60,,,,,,,,,,,
,,,,,,,,,,,,,,p,1,0.737,space,0.424,0,180,180,74,1,9_dist_green/trial25.png,,,1,9,greenverival,p,26,26,female,2021-02-19_15h28.13.954,exp11,2020.2.6,MacIntel,60,,,,,,,,,,,
,,,,,,,,,,,,,,p,1,0.97,space,0.29,0,181,181,90,1,15_dist_green/trial16.png,,,1,15,greenverival,p,26,26,female,2021-02-19_15h28.13.954,exp11,2020.2.6,MacIntel,60,,,,,,,,,,,
,,,,,,,,,,,,,,a,1,0.719,space,0.335,0,182,182,146,1,0_targ_4_dist_green/trial22.png,,,0,4,greenverival,a,26,26,female,2021-02-19_15h28.13.954,exp11,2020.2.6,MacIntel,60,,,,,,,,,,,
,,,,,,,,,,,,,,p,1,0.569,space,0.335,0,183,183,58,1,9_dist_green/trial9.png,,,1,9,greenverival,p,26,26,female,2021-02-19_15h28.13.954,exp11,2020.2.6,MacIntel,60,,,,,,,,,,,
,,,,,,,,,,,,,,a,1,0.802,space,0.336,0,184,184,193,1,0_targ_16_dist_green/trial19.png,,,0,16,greenverival,a,26,26,female,2021-02-19_15h28.13.954,exp11,2020.2.6,MacIntel,60,,,,,,,,,,,
,,,,,,,,,,,,,,p,1,0.653,space,0.352,0,185,185,56,1,9_dist_green/trial7.png,,,1,9,greenverival,p,26,26,female,2021-02-19_15h28.13.954,exp11,2020.2.6,MacIntel,60,,,,,,,,,,,
,,,,,,,,,,,,,,p,1,0.47,space,0.403,0,186,186,8,1,0_dist_green/trial9.png,,,1,0,greenverival,p,26,26,female,2021-02-19_15h28.13.954,exp11,2020.2.6,MacIntel,60,,,,,,,,,,,
,,,,,,,,,,,,,,a,1,0.737,space,0.402,0,187,187,173,1,0_targ_10_dist_green/trial24.png,,,0,10,greenverival,a,26,26,female,2021-02-19_15h28.13.954,exp11,2020.2.6,MacIntel,60,,,,,,,,,,,
,,,,,,,,,,,,,,a,1,0.787,space,0.323,0,188,188,111,1,0_targ_1_dist_green/trial12.png,,,0,1,greenverival,a,26,26,female,2021-02-19_15h28.13.954,exp11,2020.2.6,MacIntel,60,,,,,,,,,,,
,,,,,,,,,,,,,,p,1,0.552,space,0.418,0,189,189,44,1,3_dist_green/trial20.png,,,1,3,greenverival,p,26,26,female,2021-02-19_15h28.13.954,exp11,2020.2.6,MacIntel,60,,,,,,,,,,,
,,,,,,,,,,,,,,a,1,0.903,space,0.44,0,190,190,154,1,0_targ_10_dist_green/trial5.png,,,0,10,greenverival,a,26,26,female,2021-02-19_15h28.13.954,exp11,2020.2.6,MacIntel,60,,,,,,,,,,,
,,,,,,,,,,,,,,a,1,0.804,space,0.481,0,191,191,104,1,0_targ_1_dist_green/trial5.png,,,0,1,greenverival,a,26,26,female,2021-02-19_15h28.13.954,exp11,2020.2.6,MacIntel,60,,,,,,,,,,,
,,,,,,,,,,,,,,a,1,0.803,space,0.422,0,192,192,139,1,0_targ_4_dist_green/trial15.png,,,0,4,greenverival,a,26,26,female,2021-02-19_15h28.13.954,exp11,2020.2.6,MacIntel,60,,,,,,,,,,,
,,,,,,,,,,,,,,p,1,0.737,space,0.352,0,193,193,30,1,3_dist_green/trial6.png,,,1,3,greenverival,p,26,26,female,2021-02-19_15h28.13.954,exp11,2020.2.6,MacIntel,60,,,,,,,,,,,
,,,,,,,,,,,,,,a,1,2.302,space,0.485,0,194,194,171,1,0_targ_10_dist_green/trial22.png,,,0,10,greenverival,a,26,26,female,2021-02-19_15h28.13.954,exp11,2020.2.6,MacIntel,60,,,,,,,,,,,
,,,,,,,,,,,,,,a,1,0.72,space,0.39,0,195,195,181,1,0_targ_16_dist_green/trial7.png,,,0,16,greenverival,a,26,26,female,2021-02-19_15h28.13.954,exp11,2020.2.6,MacIntel,60,,,,,,,,,,,
,,,,,,,,,,,,,,a,1,0.852,space,0.306,0,196,196,114,1,0_targ_1_dist_green/trial15.png,,,0,1,greenverival,a,26,26,female,2021-02-19_15h28.13.954,exp11,2020.2.6,MacIntel,60,,,,,,,,,,,
,,,,,,,,,,,,,,a,1,0.853,space,0.29,0,197,197,189,1,0_targ_16_dist_green/trial15.png,,,0,16,greenverival,a,26,26,female,2021-02-19_15h28.13.954,exp11,2020.2.6,MacIntel,60,,,,,,,,,,,
,,,,,,,,,,,,,,p,1,0.619,space,0.406,0,198,198,88,1,15_dist_green/trial14.png,,,1,15,greenverival,p,26,26,female,2021-02-19_15h28.13.954,exp11,2020.2.6,MacIntel,60,,,,,,,,,,,
,,,,,,,,,,,,,,p,1,0.486,space,0.456,0,199,199,7,1,0_dist_green/trial8.png,,,1,0,greenverival,p,26,26,female,2021-02-19_15h28.13.954,exp11,2020.2.6,MacIntel,60,,,,,,,,,,,
,,,,,,,,,,,,,,,,,,,,,,,,,,,,,,,26,26,female,2021-02-19_15h28.13.954,exp11,2020.2.6,MacIntel,60,0,0,0,0,1,conGreen.xlsx,green vertical,Look for green vertical bar (target) and indicate if it is present or absent in the array. If green vertical target is present press 'p' and if absent press 'a'. Press SPACE to start.,,,
,,,,,,,,,,space,16.03,space,4.055,p,1,0.599,space,0.67,0,0,0,43,1,3_dist_red/trial19.png,,,1,3,redHorizontal,p,26,26,female,2021-02-19_15h28.13.954,exp11,2020.2.6,MacIntel,60,,,,,,,,,,,
,,,,,,,,,,,,,,a,1,0.719,space,0.403,0,1,1,162,1,0_targ_10_dist_red/trial13.png,,,0,10,redHorizontal,a,26,26,female,2021-02-19_15h28.13.954,exp11,2020.2.6,MacIntel,60,,,,,,,,,,,
,,,,,,,,,,,,,,a,1,1.003,space,0.356,0,2,2,168,1,0_targ_10_dist_red/trial19.png,,,0,10,redHorizontal,a,26,26,female,2021-02-19_15h28.13.954,exp11,2020.2.6,MacIntel,60,,,,,,,,,,,
,,,,,,,,,,,,,,p,1,0.587,space,0.357,0,3,3,16,1,0_dist_red/trial17.png,,,1,0,redHorizontal,p,26,26,female,2021-02-19_15h28.13.954,exp11,2020.2.6,MacIntel,60,,,,,,,,,,,
,,,,,,,,,,,,,,p,1,0.82,space,0.356,0,4,4,49,1,3_dist_red/trial25.png,,,1,3,redHorizontal,p,26,26,female,2021-02-19_15h28.13.954,exp11,2020.2.6,MacIntel,60,,,,,,,,,,,
,,,,,,,,,,,,,,p,1,0.969,space,0.374,0,5,5,44,1,3_dist_red/trial20.png,,,1,3,redHorizontal,p,26,26,female,2021-02-19_15h28.13.954,exp11,2020.2.6,MacIntel,60,,,,,,,,,,,
,,,,,,,,,,,,,,p,1,0.703,space,0.607,0,6,6,88,1,15_dist_red/trial14.png,,,1,15,redHorizontal,p,26,26,female,2021-02-19_15h28.13.954,exp11,2020.2.6,MacIntel,60,,,,,,,,,,,
,,,,,,,,,,,,,,p,1,1.036,space,0.436,0,7,7,79,1,15_dist_red/trial5.png,,,1,15,redHorizontal,p,26,26,female,2021-02-19_15h28.13.954,exp11,2020.2.6,MacIntel,60,,,,,,,,,,,
,,,,,,,,,,,,,,a,1,0.902,space,0.92,0,8,8,194,1,0_targ_16_dist_red/trial20.png,,,0,16,redHorizontal,a,26,26,female,2021-02-19_15h28.13.954,exp11,2020.2.6,MacIntel,60,,,,,,,,,,,
,,,,,,,,,,,,,,a,1,0.802,space,0.523,0,9,9,137,1,0_targ_4_dist_red/trial13.png,,,0,4,redHorizontal,a,26,26,female,2021-02-19_15h28.13.954,exp11,2020.2.6,MacIntel,60,,,,,,,,,,,
,,,,,,,,,,,,,,a,1,1.404,space,0.468,0,10,10,109,1,0_targ_1_dist_red/trial10.png,,,0,1,redHorizontal,a,26,26,female,2021-02-19_15h28.13.954,exp11,2020.2.6,MacIntel,60,,,,,,,,,,,
,,,,,,,,,,,,,,a,1,0.653,space,0.407,0,11,11,105,1,0_targ_1_dist_red/trial6.png,,,0,1,redHorizontal,a,26,26,female,2021-02-19_15h28.13.954,exp11,2020.2.6,MacIntel,60,,,,,,,,,,,
,,,,,,,,,,,,,,a,1,0.703,space,0.369,0,12,12,145,1,0_targ_4_dist_red/trial21.png,,,0,4,redHorizontal,a,26,26,female,2021-02-19_15h28.13.954,exp11,2020.2.6,MacIntel,60,,,,,,,,,,,
,,,,,,,,,,,,,,a,1,0.719,space,0.407,0,13,13,161,1,0_targ_10_dist_red/trial12.png,,,0,10,redHorizontal,a,26,26,female,2021-02-19_15h28.13.954,exp11,2020.2.6,MacIntel,60,,,,,,,,,,,
,,,,,,,,,,,,,,a,1,0.585,space,0.341,0,14,14,164,1,0_targ_10_dist_red/trial15.png,,,0,10,redHorizontal,a,26,26,female,2021-02-19_15h28.13.954,exp11,2020.2.6,MacIntel,60,,,,,,,,,,,
,,,,,,,,,,,,,,p,1,0.984,space,0.424,0,15,15,86,1,15_dist_red/trial12.png,,,1,15,redHorizontal,p,26,26,female,2021-02-19_15h28.13.954,exp11,2020.2.6,MacIntel,60,,,,,,,,,,,
,,,,,,,,,,,,,,p,1,0.82,space,0.69,0,16,16,92,1,15_dist_red/trial18.png,,,1,15,redHorizontal,p,26,26,female,2021-02-19_15h28.13.954,exp11,2020.2.6,MacIntel,60,,,,,,,,,,,
,,,,,,,,,,,,,,p,1,0.603,space,0.385,0,17,17,45,1,3_dist_red/trial21.png,,,1,3,redHorizontal,p,26,26,female,2021-02-19_15h28.13.954,exp11,2020.2.6,MacIntel,60,,,,,,,,,,,
,,,,,,,,,,,,,,a,1,1.07,space,0.506,0,18,18,176,1,0_targ_16_dist_red/trial2.png,,,0,16,redHorizontal,a,26,26,female,2021-02-19_15h28.13.954,exp11,2020.2.6,MacIntel,60,,,,,,,,,,,
,,,,,,,,,,,,,,p,1,1.103,space,0.386,0,19,19,76,1,15_dist_red/trial2.png,,,1,15,redHorizontal,p,26,26,female,2021-02-19_15h28.13.954,exp11,2020.2.6,MacIntel,60,,,,,,,,,,,
,,,,,,,,,,,,,,p,1,0.578,space,0.353,0,20,20,17,1,0_dist_red/trial18.png,,,1,0,redHorizontal,p,26,26,female,2021-02-19_15h28.13.954,exp11,2020.2.6,MacIntel,60,,,,,,,,,,,
,,,,,,,,,,,,,,p,1,0.536,space,0.452,0,21,21,67,1,9_dist_red/trial18.png,,,1,9,redHorizontal,p,26,26,female,2021-02-19_15h28.13.954,exp11,2020.2.6,MacIntel,60,,,,,,,,,,,
,,,,,,,,,,,,,,a,1,0.62,space,0.456,0,22,22,179,1,0_targ_16_dist_red/trial5.png,,,0,16,redHorizontal,a,26,26,female,2021-02-19_15h28.13.954,exp11,2020.2.6,MacIntel,60,,,,,,,,,,,
,,,,,,,,,,,,,,a,1,0.919,space,0.334,0,23,23,174,1,0_targ_10_dist_red/trial25.png,,,0,10,redHorizontal,a,26,26,female,2021-02-19_15h28.13.954,exp11,2020.2.6,MacIntel,60,,,,,,,,,,,
,,,,,,,,,,,,,,a,1,0.853,space,0.39,0,24,24,154,1,0_targ_10_dist_red/trial5.png,,,0,10,redHorizontal,a,26,26,female,2021-02-19_15h28.13.954,exp11,2020.2.6,MacIntel,60,,,,,,,,,,,
,,,,,,,,,,,,,,p,1,0.587,space,0.338,0,25,25,7,1,0_dist_red/trial8.png,,,1,0,redHorizontal,p,26,26,female,2021-02-19_15h28.13.954,exp11,2020.2.6,MacIntel,60,,,,,,,,,,,
,,,,,,,,,,,,,,a,1,0.653,space,0.42,0,26,26,134,1,0_targ_4_dist_red/trial10.png,,,0,4,redHorizontal,a,26,26,female,2021-02-19_15h28.13.954,exp11,2020.2.6,MacIntel,60,,,,,,,,,,,
,,,,,,,,,,,,,,a,1,0.719,space,0.372,0,27,27,126,1,0_targ_4_dist_red/trial2.png,,,0,4,redHorizontal,a,26,26,female,2021-02-19_15h28.13.954,exp11,2020.2.6,MacIntel,60,,,,,,,,,,,
,,,,,,,,,,,,,,p,1,0.77,space,0.339,0,28,28,90,1,15_dist_red/trial16.png,,,1,15,redHorizontal,p,26,26,female,2021-02-19_15h28.13.954,exp11,2020.2.6,MacIntel,60,,,,,,,,,,,
,,,,,,,,,,,,,,a,1,0.652,space,0.391,0,29,29,129,1,0_targ_4_dist_red/trial5.png,,,0,4,redHorizontal,a,26,26,female,2021-02-19_15h28.13.954,exp11,2020.2.6,MacIntel,60,,,,,,,,,,,
,,,,,,,,,,,,,,a,1,0.636,space,0.424,0,30,30,187,1,0_targ_16_dist_red/trial13.png,,,0,16,redHorizontal,a,26,26,female,2021-02-19_15h28.13.954,exp11,2020.2.6,MacIntel,60,,,,,,,,,,,
,,,,,,,,,,,,,,p,1,0.603,space,0.407,0,31,31,31,1,3_dist_red/trial7.png,,,1,3,redHorizontal,p,26,26,female,2021-02-19_15h28.13.954,exp11,2020.2.6,MacIntel,60,,,,,,,,,,,
,,,,,,,,,,,,,,a,1,0.803,space,0.553,0,32,32,118,1,0_targ_1_dist_red/trial19.png,,,0,1,redHorizontal,a,26,26,female,2021-02-19_15h28.13.954,exp11,2020.2.6,MacIntel,60,,,,,,,,,,,
,,,,,,,,,,,,,,a,1,0.869,space,0.369,0,33,33,133,1,0_targ_4_dist_red/trial9.png,,,0,4,redHorizontal,a,26,26,female,2021-02-19_15h28.13.954,exp11,2020.2.6,MacIntel,60,,,,,,,,,,,
,,,,,,,,,,,,,,p,1,0.552,space,0.369,0,34,34,21,1,0_dist_red/trial22.png,,,1,0,redHorizontal,p,26,26,female,2021-02-19_15h28.13.954,exp11,2020.2.6,MacIntel,60,,,,,,,,,,,
,,,,,,,,,,,,,,a,1,1.07,space,0.635,0,35,35,123,1,0_targ_1_dist_red/trial24.png,,,0,1,redHorizontal,a,26,26,female,2021-02-19_15h28.13.954,exp11,2020.2.6,MacIntel,60,,,,,,,,,,,
,,,,,,,,,,,,,,p,1,0.57,space,0.319,0,36,36,68,1,9_dist_red/trial19.png,,,1,9,redHorizontal,p,26,26,female,2021-02-19_15h28.13.954,exp11,2020.2.6,MacIntel,60,,,,,,,,,,,
,,,,,,,,,,,,,,p,1,0.737,space,0.388,0,37,37,74,1,9_dist_red/trial25.png,,,1,9,redHorizontal,p,26,26,female,2021-02-19_15h28.13.954,exp11,2020.2.6,MacIntel,60,,,,,,,,,,,
,,,,,,,,,,,,,,p,1,0.436,space,0.357,0,38,38,19,1,0_dist_red/trial20.png,,,1,0,redHorizontal,p,26,26,female,2021-02-19_15h28.13.954,exp11,2020.2.6,MacIntel,60,,,,,,,,,,,
,,,,,,,,,,,,,,p,0,0.404,space,0.157,0,39,39,117,1,0_targ_1_dist_red/trial18.png,,,0,1,redHorizontal,a,26,26,female,2021-02-19_15h28.13.954,exp11,2020.2.6,MacIntel,60,,,,,,,,,,,
,,,,,,,,,,,,,,a,1,0.868,space,0.71,0,40,40,171,1,0_targ_10_dist_red/trial22.png,,,0,10,redHorizontal,a,26,26,female,2021-02-19_15h28.13.954,exp11,2020.2.6,MacIntel,60,,,,,,,,,,,
,,,,,,,,,,,,,,p,1,0.969,space,0.271,0,41,41,9,1,0_dist_red/trial10.png,,,1,0,redHorizontal,p,26,26,female,2021-02-19_15h28.13.954,exp11,2020.2.6,MacIntel,60,,,,,,,,,,,
,,,,,,,,,,,,,,a,1,1.003,space,0.706,0,42,42,114,1,0_targ_1_dist_red/trial15.png,,,0,1,redHorizontal,a,26,26,female,2021-02-19_15h28.13.954,exp11,2020.2.6,MacIntel,60,,,,,,,,,,,
,,,,,,,,,,,,,,a,1,0.736,space,0.336,0,43,43,167,1,0_targ_10_dist_red/trial18.png,,,0,10,redHorizontal,a,26,26,female,2021-02-19_15h28.13.954,exp11,2020.2.6,MacIntel,60,,,,,,,,,,,
,,,,,,,,,,,,,,a,1,0.919,space,0.323,0,44,44,173,1,0_targ_10_dist_red/trial24.png,,,0,10,redHorizontal,a,26,26,female,2021-02-19_15h28.13.954,exp11,2020.2.6,MacIntel,60,,,,,,,,,,,
,,,,,,,,,,,,,,a,1,0.701,space,0.356,0,45,45,169,1,0_targ_10_dist_red/trial20.png,,,0,10,redHorizontal,a,26,26,female,2021-02-19_15h28.13.954,exp11,2020.2.6,MacIntel,60,,,,,,,,,,,
,,,,,,,,,,,,,,p,1,0.919,space,0.24,0,46,46,69,1,9_dist_red/trial20.png,,,1,9,redHorizontal,p,26,26,female,2021-02-19_15h28.13.954,exp11,2020.2.6,MacIntel,60,,,,,,,,,,,
,,,,,,,,,,,,,,a,1,0.72,space,0.207,0,47,47,136,1,0_targ_4_dist_red/trial12.png,,,0,4,redHorizontal,a,26,26,female,2021-02-19_15h28.13.954,exp11,2020.2.6,MacIntel,60,,,,,,,,,,,
,,,,,,,,,,,,,,a,1,0.82,space,0.223,0,48,48,190,1,0_targ_16_dist_red/trial16.png,,,0,16,redHorizontal,a,26,26,female,2021-02-19_15h28.13.954,exp11,2020.2.6,MacIntel,60,,,,,,,,,,,
,,,,,,,,,,,,,,a,1,0.636,space,0.19,0,49,49,199,1,0_targ_16_dist_red/trial25.png,,,0,16,redHorizontal,a,26,26,female,2021-02-19_15h28.13.954,exp11,2020.2.6,MacIntel,60,,,,,,,,,,,
,,,,,,,,,,,,,,a,1,0.737,space,0.452,0,50,50,132,1,0_targ_4_dist_red/trial8.png,,,0,4,redHorizontal,a,26,26,female,2021-02-19_15h28.13.954,exp11,2020.2.6,MacIntel,60,,,,,,,,,,,
,,,,,,,,,,,,,,a,1,0.67,space,0.39,0,51,51,135,1,0_targ_4_dist_red/trial11.png,,,0,4,redHorizontal,a,26,26,female,2021-02-19_15h28.13.954,exp11,2020.2.6,MacIntel,60,,,,,,,,,,,
,,,,,,,,,,,,,,p,1,0.453,space,0.323,0,52,52,18,1,0_dist_red/trial19.png,,,1,0,redHorizontal,p,26,26,female,2021-02-19_15h28.13.954,exp11,2020.2.6,MacIntel,60,,,,,,,,,,,
,,,,,,,,,,,,,,p,1,0.753,space,0.274,0,53,53,58,1,9_dist_red/trial9.png,,,1,9,redHorizontal,p,26,26,female,2021-02-19_15h28.13.954,exp11,2020.2.6,MacIntel,60,,,,,,,,,,,
,,,,,,,,,,,,,,a,1,0.72,space,0.224,0,54,54,182,1,0_targ_16_dist_red/trial8.png,,,0,16,redHorizontal,a,26,26,female,2021-02-19_15h28.13.954,exp11,2020.2.6,MacIntel,60,,,,,,,,,,,
,,,,,,,,,,,,,,p,1,1.103,space,0.218,0,55,55,50,1,9_dist_red/trial1.png,,,1,9,redHorizontal,p,26,26,female,2021-02-19_15h28.13.954,exp11,2020.2.6,MacIntel,60,,,,,,,,,,,
,,,,,,,,,,,,,,a,1,0.819,space,0.223,0,56,56,156,1,0_targ_10_dist_red/trial7.png,,,0,10,redHorizontal,a,26,26,female,2021-02-19_15h28.13.954,exp11,2020.2.6,MacIntel,60,,,,,,,,,,,
,,,,,,,,,,,,,,p,1,0.686,space,0.156,0,57,57,97,1,15_dist_red/trial23.png,,,1,15,redHorizontal,p,26,26,female,2021-02-19_15h28.13.954,exp11,2020.2.6,MacIntel,60,,,,,,,,,,,
,,,,,,,,,,,,,,p,1,0.919,space,0.235,0,58,58,81,1,15_dist_red/trial7.png,,,1,15,redHorizontal,p,26,26,female,2021-02-19_15h28.13.954,exp11,2020.2.6,MacIntel,60,,,,,,,,,,,
,,,,,,,,,,,,,,p,1,0.903,space,0.157,0,59,59,41,1,3_dist_red/trial17.png,,,1,3,redHorizontal,p,26,26,female,2021-02-19_15h28.13.954,exp11,2020.2.6,MacIntel,60,,,,,,,,,,,
,,,,,,,,,,,,,,a,1,0.887,space,0.251,0,60,60,165,1,0_targ_10_dist_red/trial16.png,,,0,10,redHorizontal,a,26,26,female,2021-02-19_15h28.13.954,exp11,2020.2.6,MacIntel,60,,,,,,,,,,,
,,,,,,,,,,,,,,p,1,0.654,space,0.186,0,61,61,15,1,0_dist_red/trial16.png,,,1,0,redHorizontal,p,26,26,female,2021-02-19_15h28.13.954,exp11,2020.2.6,MacIntel,60,,,,,,,,,,,
,,,,,,,,,,,,,,p,1,0.653,space,0.186,0,62,62,61,1,9_dist_red/trial12.png,,,1,9,redHorizontal,p,26,26,female,2021-02-19_15h28.13.954,exp11,2020.2.6,MacIntel,60,,,,,,,,,,,
,,,,,,,,,,,,,,a,1,0.767,space,0.189,0,63,63,115,1,0_targ_1_dist_red/trial6.png,,,0,1,redHorizontal,a,26,26,female,2021-02-19_15h28.13.954,exp11,2020.2.6,MacIntel,60,,,,,,,,,,,
,,,,,,,,,,,,,,a,1,1.152,space,0.337,0,64,64,196,1,0_targ_16_dist_red/trial22.png,,,0,16,redHorizontal,a,26,26,female,2021-02-19_15h28.13.954,exp11,2020.2.6,MacIntel,60,,,,,,,,,,,
,,,,,,,,,,,,,,a,1,0.85,space,0.29,0,65,65,185,1,0_targ_16_dist_red/trial11.png,,,0,16,redHorizontal,a,26,26,female,2021-02-19_15h28.13.954,exp11,2020.2.6,MacIntel,60,,,,,,,,,,,
,,,,,,,,,,,,,,p,1,0.735,space,0.19,0,66,66,38,1,3_dist_red/trial14.png,,,1,3,redHorizontal,p,26,26,female,2021-02-19_15h28.13.954,exp11,2020.2.6,MacIntel,60,,,,,,,,,,,
,,,,,,,,,,,,,,p,1,0.602,space,0.19,0,67,67,56,1,9_dist_red/trial7.png,,,1,9,redHorizontal,p,26,26,female,2021-02-19_15h28.13.954,exp11,2020.2.6,MacIntel,60,,,,,,,,,,,
,,,,,,,,,,,,,,a,1,0.97,space,0.408,0,68,68,170,1,0_targ_10_dist_red/trial21.png,,,0,10,redHorizontal,a,26,26,female,2021-02-19_15h28.13.954,exp11,2020.2.6,MacIntel,60,,,,,,,,,,,
,,,,,,,,,,,,,,p,1,0.686,space,0.307,0,69,69,59,1,9_dist_red/trial10.png,,,1,9,redHorizontal,p,26,26,female,2021-02-19_15h28.13.954,exp11,2020.2.6,MacIntel,60,,,,,,,,,,,
,,,,,,,,,,,,,,p,1,0.62,space,0.223,0,70,70,46,1,3_dist_red/trial22.png,,,1,3,redHorizontal,p,26,26,female,2021-02-19_15h28.13.954,exp11,2020.2.6,MacIntel,60,,,,,,,,,,,
,,,,,,,,,,,,,,p,1,0.57,space,0.224,0,71,71,48,1,3_dist_red/trial24.png,,,1,3,redHorizontal,p,26,26,female,2021-02-19_15h28.13.954,exp11,2020.2.6,MacIntel,60,,,,,,,,,,,
,,,,,,,,,,,,,,p,1,0.586,space,0.186,0,72,72,52,1,9_dist_red/trial3.png,,,1,9,redHorizontal,p,26,26,female,2021-02-19_15h28.13.954,exp11,2020.2.6,MacIntel,60,,,,,,,,,,,
,,,,,,,,,,,,,,p,1,0.67,space,0.207,0,73,73,36,1,3_dist_red/trial12.png,,,1,3,redHorizontal,p,26,26,female,2021-02-19_15h28.13.954,exp11,2020.2.6,MacIntel,60,,,,,,,,,,,
,,,,,,,,,,,,,,a,1,0.804,space,0.307,0,74,74,140,1,0_targ_4_dist_red/trial6.png,,,0,4,redHorizontal,a,26,26,female,2021-02-19_15h28.13.954,exp11,2020.2.6,MacIntel,60,,,,,,,,,,,
,,,,,,,,,,,,,,a,1,0.736,space,0.286,0,75,75,142,1,0_targ_4_dist_red/trial18.png,,,0,4,redHorizontal,a,26,26,female,2021-02-19_15h28.13.954,exp11,2020.2.6,MacIntel,60,,,,,,,,,,,
,,,,,,,,,,,,,,p,1,0.686,space,0.24,0,76,76,87,1,15_dist_red/trial13.png,,,1,15,redHorizontal,p,26,26,female,2021-02-19_15h28.13.954,exp11,2020.2.6,MacIntel,60,,,,,,,,,,,
,,,,,,,,,,,,,,a,1,0.736,space,0.34,0,77,77,163,1,0_targ_10_dist_red/trial14.png,,,0,10,redHorizontal,a,26,26,female,2021-02-19_15h28.13.954,exp11,2020.2.6,MacIntel,60,,,,,,,,,,,
,,,,,,,,,,,,,,p,1,0.802,space,0.257,0,78,78,54,1,9_dist_red/trial5.png,,,1,9,redHorizontal,p,26,26,female,2021-02-19_15h28.13.954,exp11,2020.2.6,MacIntel,60,,,,,,,,,,,
,,,,,,,,,,,,,,a,1,1.07,space,0.621,0,79,79,178,1,0_targ_16_dist_red/trial4.png,,,0,16,redHorizontal,a,26,26,female,2021-02-19_15h28.13.954,exp11,2020.2.6,MacIntel,60,,,,,,,,,,,
,,,,,,,,,,,,,,a,1,0.62,space,0.274,0,80,80,143,1,0_targ_4_dist_red/trial19.png,,,0,4,redHorizontal,a,26,26,female,2021-02-19_15h28.13.954,exp11,2020.2.6,MacIntel,60,,,,,,,,,,,
,,,,,,,,,,,,,,p,1,0.603,space,0.256,0,81,81,28,1,3_dist_red/trial4.png,,,1,3,redHorizontal,p,26,26,female,2021-02-19_15h28.13.954,exp11,2020.2.6,MacIntel,60,,,,,,,,,,,
,,,,,,,,,,,,,,a,1,0.704,space,0.273,0,82,82,159,1,0_targ_10_dist_red/trial10.png,,,0,10,redHorizontal,a,26,26,female,2021-02-19_15h28.13.954,exp11,2020.2.6,MacIntel,60,,,,,,,,,,,
,,,,,,,,,,,,,,a,1,0.986,space,1.24,0,83,83,189,1,0_targ_16_dist_red/trial15.png,,,0,16,redHorizontal,a,26,26,female,2021-02-19_15h28.13.954,exp11,2020.2.6,MacIntel,60,,,,,,,,,,,
,,,,,,,,,,,,,,a,1,0.936,space,0.439,0,84,84,113,1,0_targ_1_dist_red/trial14.png,,,0,1,redHorizontal,a,26,26,female,2021-02-19_15h28.13.954,exp11,2020.2.6,MacIntel,60,,,,,,,,,,,
,,,,,,,,,,,,,,a,1,0.586,space,0.352,0,85,85,102,1,0_targ_1_dist_red/trial3.png,,,0,1,redHorizontal,a,26,26,female,2021-02-19_15h28.13.954,exp11,2020.2.6,MacIntel,60,,,,,,,,,,,
,,,,,,,,,,,,,,a,1,1.072,space,0.273,0,86,86,180,1,0_targ_16_dist_red/trial6.png,,,0,16,redHorizontal,a,26,26,female,2021-02-19_15h28.13.954,exp11,2020.2.6,MacIntel,60,,,,,,,,,,,
,,,,,,,,,,,,,,a,1,0.933,space,0.33,0,87,87,130,1,0_targ_4_dist_red/trial6.png,,,0,4,redHorizontal,a,26,26,female,2021-02-19_15h28.13.954,exp11,2020.2.6,MacIntel,60,,,,,,,,,,,
,,,,,,,,,,,,,,a,1,0.754,space,0.275,0,88,88,110,1,0_targ_1_dist_red/trial11.png,,,0,1,redHorizontal,a,26,26,female,2021-02-19_15h28.13.954,exp11,2020.2.6,MacIntel,60,,,,,,,,,,,
,,,,,,,,,,,,,,p,1,0.585,space,0.207,0,89,89,33,1,3_dist_red/trial9.png,,,1,3,redHorizontal,p,26,26,female,2021-02-19_15h28.13.954,exp11,2020.2.6,MacIntel,60,,,,,,,,,,,
,,,,,,,,,,,,,,a,1,0.802,space,0.224,0,90,90,155,1,0_targ_10_dist_red/trial6.png,,,0,10,redHorizontal,a,26,26,female,2021-02-19_15h28.13.954,exp11,2020.2.6,MacIntel,60,,,,,,,,,,,
,,,,,,,,,,,,,,a,0,0.703,space,0.772,0,91,91,8,1,0_dist_red/trial9.png,,,1,0,redHorizontal,p,26,26,female,2021-02-19_15h28.13.954,exp11,2020.2.6,MacIntel,60,,,,,,,,,,,
,,,,,,,,,,,,,,p,1,0.569,space,0.196,0,92,92,42,1,3_dist_red/trial18.png,,,1,3,redHorizontal,p,26,26,female,2021-02-19_15h28.13.954,exp11,2020.2.6,MacIntel,60,,,,,,,,,,,
,,,,,,,,,,,,,,a,1,0.786,space,0.224,0,93,93,184,1,0_targ_16_dist_red/trial10.png,,,0,16,redHorizontal,a,26,26,female,2021-02-19_15h28.13.954,exp11,2020.2.6,MacIntel,60,,,,,,,,,,,
,,,,,,,,,,,,,,a,1,0.753,space,0.24,0,94,94,104,1,0_targ_1_dist_red/trial5.png,,,0,1,redHorizontal,a,26,26,female,2021-02-19_15h28.13.954,exp11,2020.2.6,MacIntel,60,,,,,,,,,,,
,,,,,,,,,,,,,,a,1,0.771,space,0.253,0,95,95,119,1,0_targ_1_dist_red/trial20.png,,,0,1,redHorizontal,a,26,26,female,2021-02-19_15h28.13.954,exp11,2020.2.6,MacIntel,60,,,,,,,,,,,
,,,,,,,,,,,,,,p,1,0.684,space,0.19,0,96,96,10,1,0_dist_red/trial11.png,,,1,0,redHorizontal,p,26,26,female,2021-02-19_15h28.13.954,exp11,2020.2.6,MacIntel,60,,,,,,,,,,,
,,,,,,,,,,,,,,a,0,0.604,space,0.007,0,97,97,34,1,3_dist_red/trial10.png,,,1,3,redHorizontal,p,26,26,female,2021-02-19_15h28.13.954,exp11,2020.2.6,MacIntel,60,,,,,,,,,,,
,,,,,,,,,,,,,,a,1,0.92,space,0.215,0,98,98,193,1,0_targ_16_dist_red/trial19.png,,,0,16,redHorizontal,a,26,26,female,2021-02-19_15h28.13.954,exp11,2020.2.6,MacIntel,60,,,,,,,,,,,
,,,,,,,,,,,,,,p,1,0.737,space,0.174,0,99,99,85,1,15_dist_red/trial11.png,,,1,15,redHorizontal,p,26,26,female,2021-02-19_15h28.13.954,exp11,2020.2.6,MacIntel,60,,,,,,,,,,,
,,,,,,,,,,,,,,p,1,0.72,space,0.139,0,100,100,39,1,3_dist_red/trial15.png,,,1,3,redHorizontal,p,26,26,female,2021-02-19_15h28.13.954,exp11,2020.2.6,MacIntel,60,,,,,,,,,,,
,,,,,,,,,,,,,,p,1,0.984,space,0.158,0,101,101,72,1,9_dist_red/trial23.png,,,1,9,redHorizontal,p,26,26,female,2021-02-19_15h28.13.954,exp11,2020.2.6,MacIntel,60,,,,,,,,,,,
,,,,,,,,,,,,,,a,1,0.902,space,0.205,0,102,102,192,1,0_targ_16_dist_red/trial18.png,,,0,16,redHorizontal,a,26,26,female,2021-02-19_15h28.13.954,exp11,2020.2.6,MacIntel,60,,,,,,,,,,,
,,,,,,,,,,,,,,a,1,0.703,space,0.241,0,103,103,151,1,0_targ_10_dist_red/trial2.png,,,0,10,redHorizontal,a,26,26,female,2021-02-19_15h28.13.954,exp11,2020.2.6,MacIntel,60,,,,,,,,,,,
,,,,,,,,,,,,,,a,1,0.735,space,0.221,0,104,104,188,1,0_targ_16_dist_red/trial14.png,,,0,16,redHorizontal,a,26,26,female,2021-02-19_15h28.13.954,exp11,2020.2.6,MacIntel,60,,,,,,,,,,,
,,,,,,,,,,,,,,p,1,0.954,space,0.204,0,105,105,77,1,15_dist_red/trial3.png,,,1,15,redHorizontal,p,26,26,female,2021-02-19_15h28.13.954,exp11,2020.2.6,MacIntel,60,,,,,,,,,,,
,,,,,,,,,,,,,,a,1,0.819,space,0.275,0,106,106,166,1,0_targ_10_dist_red/trial17.png,,,0,10,redHorizontal,a,26,26,female,2021-02-19_15h28.13.954,exp11,2020.2.6,MacIntel,60,,,,,,,,,,,
,,,,,,,,,,,,,,a,1,0.685,space,0.369,0,107,107,103,1,0_targ_1_dist_red/trial4.png,,,0,1,redHorizontal,a,26,26,female,2021-02-19_15h28.13.954,exp11,2020.2.6,MacIntel,60,,,,,,,,,,,
,,,,,,,,,,,,,,a,1,0.552,space,0.356,0,108,108,160,1,0_targ_10_dist_red/trial11.png,,,0,10,redHorizontal,a,26,26,female,2021-02-19_15h28.13.954,exp11,2020.2.6,MacIntel,60,,,,,,,,,,,
,,,,,,,,,,,,,,p,1,0.67,space,0.308,0,109,109,26,1,3_dist_red/trial2.png,,,1,3,redHorizontal,p,26,26,female,2021-02-19_15h28.13.954,exp11,2020.2.6,MacIntel,60,,,,,,,,,,,
,,,,,,,,,,,,,,p,1,0.685,space,0.273,0,110,110,53,1,9_dist_red/trial4.png,,,1,9,redHorizontal,p,26,26,female,2021-02-19_15h28.13.954,exp11,2020.2.6,MacIntel,60,,,,,,,,,,,
,,,,,,,,,,,,,,p,1,0.752,space,0.171,0,111,111,32,1,3_dist_red/trial8.png,,,1,3,redHorizontal,p,26,26,female,2021-02-19_15h28.13.954,exp11,2020.2.6,MacIntel,60,,,,,,,,,,,
,,,,,,,,,,,,,,a,1,1.634,space,0.341,0,112,112,122,1,0_targ_1_dist_red/trial23.png,,,0,1,redHorizontal,a,26,26,female,2021-02-19_15h28.13.954,exp11,2020.2.6,MacIntel,60,,,,,,,,,,,
,,,,,,,,,,,,,,p,1,0.633,space,0.24,0,113,113,64,1,9_dist_red/trial15.png,,,1,9,redHorizontal,p,26,26,female,2021-02-19_15h28.13.954,exp11,2020.2.6,MacIntel,60,,,,,,,,,,,
,,,,,,,,,,,,,,a,1,0.835,space,0.251,0,114,114,147,1,0_targ_4_dist_red/trial23.png,,,0,4,redHorizontal,a,26,26,female,2021-02-19_15h28.13.954,exp11,2020.2.6,MacIntel,60,,,,,,,,,,,
,,,,,,,,,,,,,,p,1,0.603,space,0.24,0,115,115,89,1,15_dist_red/trial15.png,,,1,15,redHorizontal,p,26,26,female,2021-02-19_15h28.13.954,exp11,2020.2.6,MacIntel,60,,,,,,,,,,,
,,,,,,,,,,,,,,a,1,0.767,space,0.237,0,116,116,146,1,0_targ_4_dist_red/trial22.png,,,0,4,redHorizontal,a,26,26,female,2021-02-19_15h28.13.954,exp11,2020.2.6,MacIntel,60,,,,,,,,,,,
,,,,,,,,,,,,,,a,1,0.603,space,0.257,0,117,117,100,1,0_targ_1_dist_red/trial1.png,,,0,1,redHorizontal,a,26,26,female,2021-02-19_15h28.13.954,exp11,2020.2.6,MacIntel,60,,,,,,,,,,,
,,,,,,,,,,,,,,p,1,0.586,space,0.223,0,118,118,12,1,0_dist_red/trial13.png,,,1,0,redHorizontal,p,26,26,female,2021-02-19_15h28.13.954,exp11,2020.2.6,MacIntel,60,,,,,,,,,,,
,,,,,,,,,,,,,,p,1,0.619,space,0.189,0,119,119,3,1,0_dist_red/trial4.png,,,1,0,redHorizontal,p,26,26,female,2021-02-19_15h28.13.954,exp11,2020.2.6,MacIntel,60,,,,,,,,,,,
,,,,,,,,,,,,,,p,1,0.536,space,0.141,0,120,120,24,1,0_dist_red/trial25.png,,,1,0,redHorizontal,p,26,26,female,2021-02-19_15h28.13.954,exp11,2020.2.6,MacIntel,60,,,,,,,,,,,
,,,,,,,,,,,,,,p,1,0.682,space,0.123,0,121,121,62,1,9_dist_red/trial13.png,,,1,9,redHorizontal,p,26,26,female,2021-02-19_15h28.13.954,exp11,2020.2.6,MacIntel,60,,,,,,,,,,,
,,,,,,,,,,,,,,a,1,0.786,space,0.206,0,122,122,157,1,0_targ_10_dist_red/trial8.png,,,0,10,redHorizontal,a,26,26,female,2021-02-19_15h28.13.954,exp11,2020.2.6,MacIntel,60,,,,,,,,,,,
,,,,,,,,,,,,,,p,1,0.752,space,0.14,0,123,123,66,1,9_dist_red/trial17.png,,,1,9,redHorizontal,p,26,26,female,2021-02-19_15h28.13.954,exp11,2020.2.6,MacIntel,60,,,,,,,,,,,
,,,,,,,,,,,,,,a,1,0.77,space,0.19,0,124,124,111,1,0_targ_1_dist_red/trial12.png,,,0,1,redHorizontal,a,26,26,female,2021-02-19_15h28.13.954,exp11,2020.2.6,MacIntel,60,,,,,,,,,,,
,,,,,,,,,,,,,,p,1,0.654,space,0.14,0,125,125,93,1,15_dist_red/trial19.png,,,1,15,redHorizontal,p,26,26,female,2021-02-19_15h28.13.954,exp11,2020.2.6,MacIntel,60,,,,,,,,,,,
,,,,,,,,,,,,,,a,1,0.77,space,0.173,0,126,126,172,1,0_targ_10_dist_red/trial23.png,,,0,10,redHorizontal,a,26,26,female,2021-02-19_15h28.13.954,exp11,2020.2.6,MacIntel,60,,,,,,,,,,,
,,,,,,,,,,,,,,a,1,0.752,space,0.174,0,127,127,106,1,0_targ_1_dist_red/trial7.png,,,0,1,redHorizontal,a,26,26,female,2021-02-19_15h28.13.954,exp11,2020.2.6,MacIntel,60,,,,,,,,,,,
,,,,,,,,,,,,,,a,1,0.67,space,0.207,0,128,128,148,1,0_targ_4_dist_red/trial24.png,,,0,4,redHorizontal,a,26,26,female,2021-02-19_15h28.13.954,exp11,2020.2.6,MacIntel,60,,,,,,,,,,,
,,,,,,,,,,,,,,p,1,0.586,space,0.219,0,129,129,20,1,0_dist_red/trial21.png,,,1,0,redHorizontal,p,26,26,female,2021-02-19_15h28.13.954,exp11,2020.2.6,MacIntel,60,,,,,,,,,,,
,,,,,,,,,,,,,,a,1,0.702,space,0.24,0,130,130,107,1,0_targ_1_dist_red/trial8.png,,,0,1,redHorizontal,a,26,26,female,2021-02-19_15h28.13.954,exp11,2020.2.6,MacIntel,60,,,,,,,,,,,
,,,,,,,,,,,,,,p,1,0.537,space,0.186,0,131,131,23,1,0_dist_red/trial24.png,,,1,0,redHorizontal,p,26,26,female,2021-02-19_15h28.13.954,exp11,2020.2.6,MacIntel,60,,,,,,,,,,,
,,,,,,,,,,,,,,a,1,0.57,space,0.203,0,132,132,152,1,0_targ_10_dist_red/trial3.png,,,0,10,redHorizontal,a,26,26,female,2021-02-19_15h28.13.954,exp11,2020.2.6,MacIntel,60,,,,,,,,,,,
,,,,,,,,,,,,,,a,1,0.719,space,0.223,0,133,133,112,1,0_targ_1_dist_red/trial13.png,,,0,1,redHorizontal,a,26,26,female,2021-02-19_15h28.13.954,exp11,2020.2.6,MacIntel,60,,,,,,,,,,,
,,,,,,,,,,,,,,p,1,1.12,space,0.156,0,134,134,80,1,15_dist_red/trial6.png,,,1,15,redHorizontal,p,26,26,female,2021-02-19_15h28.13.954,exp11,2020.2.6,MacIntel,60,,,,,,,,,,,
,,,,,,,,,,,,,,p,1,0.77,space,0.158,0,135,135,73,1,9_dist_red/trial24.png,,,1,9,redHorizontal,p,26,26,female,2021-02-19_15h28.13.954,exp11,2020.2.6,MacIntel,60,,,,,,,,,,,
,,,,,,,,,,,,,,p,1,0.52,space,0.186,0,136,136,4,1,0_dist_red/trial5.png,,,1,0,redHorizontal,p,26,26,female,2021-02-19_15h28.13.954,exp11,2020.2.6,MacIntel,60,,,,,,,,,,,
,,,,,,,,,,,,,,p,1,1.053,space,0.124,0,137,137,95,1,15_dist_red/trial21.png,,,1,15,redHorizontal,p,26,26,female,2021-02-19_15h28.13.954,exp11,2020.2.6,MacIntel,60,,,,,,,,,,,
,,,,,,,,,,,,,,p,1,0.602,space,0.107,0,138,138,57,1,9_dist_red/trial8.png,,,1,9,redHorizontal,p,26,26,female,2021-02-19_15h28.13.954,exp11,2020.2.6,MacIntel,60,,,,,,,,,,,
,,,,,,,,,,,,,,p,1,0.752,space,0.073,0,139,139,65,1,9_dist_red/trial16.png,,,1,9,redHorizontal,p,26,26,female,2021-02-19_15h28.13.954,exp11,2020.2.6,MacIntel,60,,,,,,,,,,,
,,,,,,,,,,,,,,a,1,1.003,space,0.14,0,140,140,141,1,0_targ_4_dist_red/trial17.png,,,0,4,redHorizontal,a,26,26,female,2021-02-19_15h28.13.954,exp11,2020.2.6,MacIntel,60,,,,,,,,,,,
,,,,,,,,,,,,,,p,1,0.669,space,0.169,0,141,141,30,1,3_dist_red/trial6.png,,,1,3,redHorizontal,p,26,26,female,2021-02-19_15h28.13.954,exp11,2020.2.6,MacIntel,60,,,,,,,,,,,
,,,,,,,,,,,,,,p,1,0.653,space,0.101,0,142,142,1,1,0_dist_red/trial2.png,,,1,0,redHorizontal,p,26,26,female,2021-02-19_15h28.13.954,exp11,2020.2.6,MacIntel,60,,,,,,,,,,,
,,,,,,,,,,,,,,a,1,0.887,space,0.156,0,143,143,138,1,0_targ_4_dist_red/trial14.png,,,0,4,redHorizontal,a,26,26,female,2021-02-19_15h28.13.954,exp11,2020.2.6,MacIntel,60,,,,,,,,,,,
,,,,,,,,,,,,,,a,1,0.703,space,0.136,0,144,144,150,1,0_targ_10_dist_red/trial1.png,,,0,10,redHorizontal,a,26,26,female,2021-02-19_15h28.13.954,exp11,2020.2.6,MacIntel,60,,,,,,,,,,,
,,,,,,,,,,,,,,a,1,0.62,space,0.157,0,145,145,101,1,0_targ_1_dist_red/trial2.png,,,0,1,redHorizontal,a,26,26,female,2021-02-19_15h28.13.954,exp11,2020.2.6,MacIntel,60,,,,,,,,,,,
,,,,,,,,,,,,,,a,1,0.987,space,0.173,0,146,146,186,1,0_targ_16_dist_red/trial12.png,,,0,16,redHorizontal,a,26,26,female,2021-02-19_15h28.13.954,exp11,2020.2.6,MacIntel,60,,,,,,,,,,,
,,,,,,,,,,,,,,p,1,0.652,space,0.123,0,147,147,78,1,15_dist_red/trial4.png,,,1,15,redHorizontal,p,26,26,female,2021-02-19_15h28.13.954,exp11,2020.2.6,MacIntel,60,,,,,,,,,,,
,,,,,,,,,,,,,,p,1,0.586,space,0.223,0,148,148,6,1,0_dist_red/trial7.png,,,1,0,redHorizontal,p,26,26,female,2021-02-19_15h28.13.954,exp11,2020.2.6,MacIntel,60,,,,,,,,,,,
,,,,,,,,,,,,,,p,1,0.719,space,0.085,0,149,149,40,1,3_dist_red/trial16.png,,,1,3,redHorizontal,p,26,26,female,2021-02-19_15h28.13.954,exp11,2020.2.6,MacIntel,60,,,,,,,,,,,
,,,,,,,,,,,,,,a,1,0.769,space,0.108,0,150,150,108,1,0_targ_1_dist_red/trial9.png,,,0,1,redHorizontal,a,26,26,female,2021-02-19_15h28.13.954,exp11,2020.2.6,MacIntel,60,,,,,,,,,,,
,,,,,,,,,,,,,,a,1,1.768,space,0.374,0,151,151,120,1,0_targ_1_dist_red/trial21.png,,,0,1,redHorizontal,a,26,26,female,2021-02-19_15h28.13.954,exp11,2020.2.6,MacIntel,60,,,,,,,,,,,
,,,,,,,,,,,,,,a,1,0.72,space,0.269,0,152,152,131,1,0_targ_4_dist_red/trial7.png,,,0,4,redHorizontal,a,26,26,female,2021-02-19_15h28.13.954,exp11,2020.2.6,MacIntel,60,,,,,,,,,,,
,,,,,,,,,,,,,,p,1,0.853,space,0.235,0,153,153,99,1,15_dist_red/trial25.png,,,1,15,redHorizontal,p,26,26,female,2021-02-19_15h28.13.954,exp11,2020.2.6,MacIntel,60,,,,,,,,,,,
,,,,,,,,,,,,,,p,1,0.637,space,0.169,0,154,154,63,1,9_dist_red/trial14.png,,,1,9,redHorizontal,p,26,26,female,2021-02-19_15h28.13.954,exp11,2020.2.6,MacIntel,60,,,,,,,,,,,
,,,,,,,,,,,,,,p,1,0.587,space,0.119,0,155,155,98,1,15_dist_red/trial24.png,,,1,15,redHorizontal,p,26,26,female,2021-02-19_15h28.13.954,exp11,2020.2.6,MacIntel,60,,,,,,,,,,,
,,,,,,,,,,,,,,a,1,0.752,space,0.169,0,156,156,177,1,0_targ_16_dist_red/trial3.png,,,0,16,redHorizontal,a,26,26,female,2021-02-19_15h28.13.954,exp11,2020.2.6,MacIntel,60,,,,,,,,,,,
,,,,,,,,,,,,,,a,1,0.787,space,0.202,0,157,157,175,1,0_targ_16_dist_red/trial1.png,,,0,16,redHorizontal,a,26,26,female,2021-02-19_15h28.13.954,exp11,2020.2.6,MacIntel,60,,,,,,,,,,,
,,,,,,,,,,,,,,p,1,0.601,space,0.157,0,158,158,83,1,15_dist_red/trial9.png,,,1,15,redHorizontal,p,26,26,female,2021-02-19_15h28.13.954,exp11,2020.2.6,MacIntel,60,,,,,,,,,,,
,,,,,,,,,,,,,,a,1,1.103,space,0.236,0,159,159,191,1,0_targ_16_dist_red/trial17.png,,,0,16,redHorizontal,a,26,26,female,2021-02-19_15h28.13.954,exp11,2020.2.6,MacIntel,60,,,,,,,,,,,
,,,,,,,,,,,,,,p,1,0.636,space,0.224,0,160,160,13,1,0_dist_red/trial14.png,,,1,0,redHorizontal,p,26,26,female,2021-02-19_15h28.13.954,exp11,2020.2.6,MacIntel,60,,,,,,,,,,,
,,,,,,,,,,,,,,a,1,0.72,space,0.253,0,161,161,197,1,0_targ_16_dist_red/trial23.png,,,0,16,redHorizontal,a,26,26,female,2021-02-19_15h28.13.954,exp11,2020.2.6,MacIntel,60,,,,,,,,,,,
,,,,,,,,,,,,,,a,1,0.769,space,0.17,0,162,162,121,1,0_targ_1_dist_red/trial22.png,,,0,1,redHorizontal,a,26,26,female,2021-02-19_15h28.13.954,exp11,2020.2.6,MacIntel,60,,,,,,,,,,,
,,,,,,,,,,,,,,p,1,0.571,space,0.219,0,163,163,60,1,9_dist_red/trial11.png,,,1,9,redHorizontal,p,26,26,female,2021-02-19_15h28.13.954,exp11,2020.2.6,MacIntel,60,,,,,,,,,,,
,,,,,,,,,,,,,,p,1,0.668,space,0.174,0,164,164,51,1,9_dist_red/trial2.png,,,1,9,redHorizontal,p,26,26,female,2021-02-19_15h28.13.954,exp11,2020.2.6,MacIntel,60,,,,,,,,,,,
,,,,,,,,,,,,,,a,1,0.754,space,0.24,0,165,165,149,1,0_targ_4_dist_red/trial25.png,,,0,4,redHorizontal,a,26,26,female,2021-02-19_15h28.13.954,exp11,2020.2.6,MacIntel,60,,,,,,,,,,,
,,,,,,,,,,,,,,a,1,0.936,space,0.208,0,166,166,198,1,0_targ_16_dist_red/trial24.png,,,0,16,redHorizontal,a,26,26,female,2021-02-19_15h28.13.954,exp11,2020.2.6,MacIntel,60,,,,,,,,,,,
,,,,,,,,,,,,,,a,1,0.602,space,0.198,0,167,167,158,1,0_targ_10_dist_red/trial9.png,,,0,10,redHorizontal,a,26,26,female,2021-02-19_15h28.13.954,exp11,2020.2.6,MacIntel,60,,,,,,,,,,,
,,,,,,,,,,,,,,p,1,0.82,space,0.173,0,168,168,55,1,9_dist_red/trial6.png,,,1,9,redHorizontal,p,26,26,female,2021-02-19_15h28.13.954,exp11,2020.2.6,MacIntel,60,,,,,,,,,,,
,,,,,,,,,,,,,,p,1,0.587,space,0.156,0,169,169,5,1,0_dist_red/trial6.png,,,1,0,redHorizontal,p,26,26,female,2021-02-19_15h28.13.954,exp11,2020.2.6,MacIntel,60,,,,,,,,,,,
,,,,,,,,,,,,,,p,1,0.686,space,0.124,0,170,170,14,1,0_dist_red/trial15.png,,,1,0,redHorizontal,p,26,26,female,2021-02-19_15h28.13.954,exp11,2020.2.6,MacIntel,60,,,,,,,,,,,
,,,,,,,,,,,,,,a,1,0.653,space,0.123,0,171,171,125,1,0_targ_4_dist_red/trial1.png,,,0,4,redHorizontal,a,26,26,female,2021-02-19_15h28.13.954,exp11,2020.2.6,MacIntel,60,,,,,,,,,,,
,,,,,,,,,,,,,,p,1,0.853,space,0.118,0,172,172,84,1,15_dist_red/trial10.png,,,1,15,redHorizontal,p,26,26,female,2021-02-19_15h28.13.954,exp11,2020.2.6,MacIntel,60,,,,,,,,,,,
,,,,,,,,,,,,,,a,1,0.635,space,0.101,0,173,173,127,1,0_targ_4_dist_red/trial3.png,,,0,4,redHorizontal,a,26,26,female,2021-02-19_15h28.13.954,exp11,2020.2.6,MacIntel,60,,,,,,,,,,,
,,,,,,,,,,,,,,p,1,0.571,space,0.169,0,174,174,37,1,3_dist_red/trial13.png,,,1,3,redHorizontal,p,26,26,female,2021-02-19_15h28.13.954,exp11,2020.2.6,MacIntel,60,,,,,,,,,,,
,,,,,,,,,,,,,,p,1,0.686,space,0.124,0,175,175,22,1,0_dist_red/trial23.png,,,1,0,redHorizontal,p,26,26,female,2021-02-19_15h28.13.954,exp11,2020.2.6,MacIntel,60,,,,,,,,,,,
,,,,,,,,,,,,,,a,1,0.719,space,0.473,0,176,176,116,1,0_targ_1_dist_red/trial17.png,,,0,1,redHorizontal,a,26,26,female,2021-02-19_15h28.13.954,exp11,2020.2.6,MacIntel,60,,,,,,,,,,,
,,,,,,,,,,,,,,p,1,0.703,space,0.186,0,177,177,70,1,9_dist_red/trial21.png,,,1,9,redHorizontal,p,26,26,female,2021-02-19_15h28.13.954,exp11,2020.2.6,MacIntel,60,,,,,,,,,,,
,,,,,,,,,,,,,,a,1,0.887,space,0.156,0,178,178,153,1,0_targ_10_dist_red/trial4.png,,,0,10,redHorizontal,a,26,26,female,2021-02-19_15h28.13.954,exp11,2020.2.6,MacIntel,60,,,,,,,,,,,
,,,,,,,,,,,,,,p,1,0.637,space,0.152,0,179,179,25,1,3_dist_red/trial1.png,,,1,3,redHorizontal,p,26,26,female,2021-02-19_15h28.13.954,exp11,2020.2.6,MacIntel,60,,,,,,,,,,,
,,,,,,,,,,,,,,p,1,1.951,space,0.053,0,180,180,47,1,3_dist_red/trial23.png,,,1,3,redHorizontal,p,26,26,female,2021-02-19_15h28.13.954,exp11,2020.2.6,MacIntel,60,,,,,,,,,,,
,,,,,,,,,,,,,,p,1,0.636,space,0.073,0,181,181,2,1,0_dist_red/trial3.png,,,1,0,redHorizontal,p,26,26,female,2021-02-19_15h28.13.954,exp11,2020.2.6,MacIntel,60,,,,,,,,,,,
,,,,,,,,,,,,,,a,1,0.854,space,1.235,0,182,182,181,1,0_targ_16_dist_red/trial7.png,,,0,16,redHorizontal,a,26,26,female,2021-02-19_15h28.13.954,exp11,2020.2.6,MacIntel,60,,,,,,,,,,,
,,,,,,,,,,,,,,p,1,0.768,space,0.291,0,183,183,71,1,9_dist_red/trial22.png,,,1,9,redHorizontal,p,26,26,female,2021-02-19_15h28.13.954,exp11,2020.2.6,MacIntel,60,,,,,,,,,,,
,,,,,,,,,,,,,,a,1,0.552,space,0.432,0,184,184,144,1,0_targ_4_dist_red/trial20.png,,,0,4,redHorizontal,a,26,26,female,2021-02-19_15h28.13.954,exp11,2020.2.6,MacIntel,60,,,,,,,,,,,
,,,,,,,,,,,,,,p,1,1.053,space,0.205,0,185,185,96,1,15_dist_red/trial22.png,,,1,15,redHorizontal,p,26,26,female,2021-02-19_15h28.13.954,exp11,2020.2.6,MacIntel,60,,,,,,,,,,,
,,,,,,,,,,,,,,a,0,0.587,space,0.706,0,186,186,27,1,3_dist_red/trial3.png,,,1,3,redHorizontal,p,26,26,female,2021-02-19_15h28.13.954,exp11,2020.2.6,MacIntel,60,,,,,,,,,,,
,,,,,,,,,,,,,,p,1,1.404,space,0.197,0,187,187,11,1,0_dist_red/trial12.png,,,1,0,redHorizontal,p,26,26,female,2021-02-19_15h28.13.954,exp11,2020.2.6,MacIntel,60,,,,,,,,,,,
,,,,,,,,,,,,,,a,1,0.951,space,0.206,0,188,188,124,1,0_targ_1_dist_red/trial25.png,,,0,1,redHorizontal,a,26,26,female,2021-02-19_15h28.13.954,exp11,2020.2.6,MacIntel,60,,,,,,,,,,,
,,,,,,,,,,,,,,p,1,0.886,space,0.139,0,189,189,75,1,15_dist_red/trial1.png,,,1,15,redHorizontal,p,26,26,female,2021-02-19_15h28.13.954,exp11,2020.2.6,MacIntel,60,,,,,,,,,,,
,,,,,,,,,,,,,,p,1,0.753,space,0.158,0,190,190,35,1,3_dist_red/trial11.png,,,1,3,redHorizontal,p,26,26,female,2021-02-19_15h28.13.954,exp11,2020.2.6,MacIntel,60,,,,,,,,,,,
,,,,,,,,,,,,,,p,1,0.67,space,0.152,0,191,191,82,1,15_dist_red/trial8.png,,,1,15,redHorizontal,p,26,26,female,2021-02-19_15h28.13.954,exp11,2020.2.6,MacIntel,60,,,,,,,,,,,
,,,,,,,,,,,,,,p,1,0.653,space,0.19,0,192,192,91,1,15_dist_red/trial17.png,,,1,15,redHorizontal,p,26,26,female,2021-02-19_15h28.13.954,exp11,2020.2.6,MacIntel,60,,,,,,,,,,,
,,,,,,,,,,,,,,a,1,0.769,space,0.269,0,193,193,183,1,0_targ_16_dist_red/trial9.png,,,0,16,redHorizontal,a,26,26,female,2021-02-19_15h28.13.954,exp11,2020.2.6,MacIntel,60,,,,,,,,,,,
,,,,,,,,,,,,,,p,1,0.836,space,0.253,0,194,194,29,1,3_dist_red/trial5.png,,,1,3,redHorizontal,p,26,26,female,2021-02-19_15h28.13.954,exp11,2020.2.6,MacIntel,60,,,,,,,,,,,
,,,,,,,,,,,,,,a,1,1.403,space,0.823,0,195,195,128,1,0_targ_4_dist_red/trial4.png,,,0,4,redHorizontal,a,26,26,female,2021-02-19_15h28.13.954,exp11,2020.2.6,MacIntel,60,,,,,,,,,,,
,,,,,,,,,,,,,,p,1,1.069,space,0.292,0,196,196,0,1,0_dist_red/trial1.png,,,1,0,redHorizontal,p,26,26,female,2021-02-19_15h28.13.954,exp11,2020.2.6,MacIntel,60,,,,,,,,,,,
,,,,,,,,,,,,,,a,1,0.67,space,0.402,0,197,197,139,1,0_targ_4_dist_red/trial15.png,,,0,4,redHorizontal,a,26,26,female,2021-02-19_15h28.13.954,exp11,2020.2.6,MacIntel,60,,,,,,,,,,,
,,,,,,,,,,,,,,p,1,0.62,space,0.439,0,198,198,94,1,15_dist_red/trial20.png,,,1,15,redHorizontal,p,26,26,female,2021-02-19_15h28.13.954,exp11,2020.2.6,MacIntel,60,,,,,,,,,,,
,,,,,,,,,,,,,,a,1,1.17,space,0.62,0,199,199,195,1,0_targ_16_dist_red/trial21.png,,,0,16,redHorizontal,a,26,26,female,2021-02-19_15h28.13.954,exp11,2020.2.6,MacIntel,60,,,,,,,,,,,
,,,,,,,,,,,,,,,,,,,,,,,,,,,,,,,26,26,female,2021-02-19_15h28.13.954,exp11,2020.2.6,MacIntel,60,0,1,1,1,1,conRed.xlsx,red horizontal,Look for red horizontal bar (target) and indicate if it is present or absent in the array. If red horizontal target is present press 'p' and if absent press 'a'. Press SPACE to start.,,,
