key_resp_6.keys,key_resp_6.rt,key_resp_7.keys,key_resp_7.rt,key_resp_8.keys,key_resp_8.rt,key_resp_10.keys,key_resp_10.rt,key_resp_9.keys,key_resp_9.rt,key_resp_3.keys,key_resp_3.rt,key_resp_5.keys,key_resp_5.rt,key_resp.keys,key_resp.corr,key_resp.rt,key_resp_4.keys,key_resp_4.rt,trials.thisRepN,trials.thisTrialN,trials.thisN,trials.thisIndex,trials.ran,ImageFile,tarPos,tarSize,targPres,numDist,targetName,correctAns,participant,age,sex,date,expName,psychopyVersion,OS,frameRate,fbclid,trials_2.thisRepN,trials_2.thisTrialN,trials_2.thisN,trials_2.thisIndex,trials_2.ran,condsFile,targName,instructionText,colTarget,sizeTarg,posit
space,3.260375,space,12.970355,space,4.007295,space,6.334825,space,2.983695,space,6.806935,space,6.79599,p,1,0.965045,space,2.60713,0,0,0,25,1,3_dist_green/trial1.png,,,1,3,greenverival,p,27,30,,2021-02-24_09h47.09.766,exp11,2020.2.6,Win32,60,IwAR1JSyvdpIcOguLQdSaBvh_tHMwMwg8djfGEDSmCfSurgZOM_Ahdduy9SpM,,,,,,,,,,,
,,,,,,,,,,,,,,p,0,0.484065,space,1.15308,0,1,1,192,1,0_targ_16_dist_green/trial18.png,,,0,16,greenverival,a,27,30,,2021-02-24_09h47.09.766,exp11,2020.2.6,Win32,60,IwAR1JSyvdpIcOguLQdSaBvh_tHMwMwg8djfGEDSmCfSurgZOM_Ahdduy9SpM,,,,,,,,,,,
,,,,,,,,,,,,,,p,0,1.145855,space,2.690735,0,2,2,111,1,0_targ_1_dist_green/trial12.png,,,0,1,greenverival,a,27,30,,2021-02-24_09h47.09.766,exp11,2020.2.6,Win32,60,IwAR1JSyvdpIcOguLQdSaBvh_tHMwMwg8djfGEDSmCfSurgZOM_Ahdduy9SpM,,,,,,,,,,,
,,,,,,,,,,,,,,p,0,2.974955,space,0.111695,0,3,3,164,1,0_targ_10_dist_green/trial15.png,,,0,10,greenverival,a,27,30,,2021-02-24_09h47.09.766,exp11,2020.2.6,Win32,60,IwAR1JSyvdpIcOguLQdSaBvh_tHMwMwg8djfGEDSmCfSurgZOM_Ahdduy9SpM,,,,,,,,,,,
,,,,,,,,,,,,,,p,1,1.62857,space,2.5203,0,4,4,4,1,0_dist_green/trial5.png,,,1,0,greenverival,p,27,30,,2021-02-24_09h47.09.766,exp11,2020.2.6,Win32,60,IwAR1JSyvdpIcOguLQdSaBvh_tHMwMwg8djfGEDSmCfSurgZOM_Ahdduy9SpM,,,,,,,,,,,
,,,,,,,,,,,,,,p,1,2.47005,space,3.0812,0,5,5,35,1,3_dist_green/trial11.png,,,1,3,greenverival,p,27,30,,2021-02-24_09h47.09.766,exp11,2020.2.6,Win32,60,IwAR1JSyvdpIcOguLQdSaBvh_tHMwMwg8djfGEDSmCfSurgZOM_Ahdduy9SpM,,,,,,,,,,,
,,,,,,,,,,,,,,a,1,1.52634,space,0.92018,0,6,6,142,1,0_targ_4_dist_green/trial18.png,,,0,4,greenverival,a,27,30,,2021-02-24_09h47.09.766,exp11,2020.2.6,Win32,60,IwAR1JSyvdpIcOguLQdSaBvh_tHMwMwg8djfGEDSmCfSurgZOM_Ahdduy9SpM,,,,,,,,,,,
,,,,,,,,,,,,,,p,1,1.03332,space,0.658675,0,7,7,21,1,0_dist_green/trial22.png,,,1,0,greenverival,p,27,30,,2021-02-24_09h47.09.766,exp11,2020.2.6,Win32,60,IwAR1JSyvdpIcOguLQdSaBvh_tHMwMwg8djfGEDSmCfSurgZOM_Ahdduy9SpM,,,,,,,,,,,
,,,,,,,,,,,,,,a,1,1.05642,space,0.655935,0,8,8,141,1,0_targ_4_dist_green/trial17.png,,,0,4,greenverival,a,27,30,,2021-02-24_09h47.09.766,exp11,2020.2.6,Win32,60,IwAR1JSyvdpIcOguLQdSaBvh_tHMwMwg8djfGEDSmCfSurgZOM_Ahdduy9SpM,,,,,,,,,,,
,,,,,,,,,,,,,,p,1,1.210115,space,0.566885,0,9,9,60,1,9_dist_green/trial11.png,,,1,9,greenverival,p,27,30,,2021-02-24_09h47.09.766,exp11,2020.2.6,Win32,60,IwAR1JSyvdpIcOguLQdSaBvh_tHMwMwg8djfGEDSmCfSurgZOM_Ahdduy9SpM,,,,,,,,,,,
,,,,,,,,,,,,,,p,1,1.280625,space,0.41935,0,10,10,23,1,0_dist_green/trial24.png,,,1,0,greenverival,p,27,30,,2021-02-24_09h47.09.766,exp11,2020.2.6,Win32,60,IwAR1JSyvdpIcOguLQdSaBvh_tHMwMwg8djfGEDSmCfSurgZOM_Ahdduy9SpM,,,,,,,,,,,
,,,,,,,,,,,,,,a,1,1.35769,space,0.905365,0,11,11,153,1,0_targ_10_dist_green/trial4.png,,,0,10,greenverival,a,27,30,,2021-02-24_09h47.09.766,exp11,2020.2.6,Win32,60,IwAR1JSyvdpIcOguLQdSaBvh_tHMwMwg8djfGEDSmCfSurgZOM_Ahdduy9SpM,,,,,,,,,,,
,,,,,,,,,,,,,,p,1,1.162235,space,0.675115,0,12,12,43,1,3_dist_green/trial19.png,,,1,3,greenverival,p,27,30,,2021-02-24_09h47.09.766,exp11,2020.2.6,Win32,60,IwAR1JSyvdpIcOguLQdSaBvh_tHMwMwg8djfGEDSmCfSurgZOM_Ahdduy9SpM,,,,,,,,,,,
,,,,,,,,,,,,,,p,0,1.19569,space,0.81869,0,13,13,131,1,0_targ_4_dist_green/trial7.png,,,0,4,greenverival,a,27,30,,2021-02-24_09h47.09.766,exp11,2020.2.6,Win32,60,IwAR1JSyvdpIcOguLQdSaBvh_tHMwMwg8djfGEDSmCfSurgZOM_Ahdduy9SpM,,,,,,,,,,,
,,,,,,,,,,,,,,p,1,3.77477,space,0.78798,0,14,14,52,1,9_dist_green/trial3.png,,,1,9,greenverival,p,27,30,,2021-02-24_09h47.09.766,exp11,2020.2.6,Win32,60,IwAR1JSyvdpIcOguLQdSaBvh_tHMwMwg8djfGEDSmCfSurgZOM_Ahdduy9SpM,,,,,,,,,,,
,,,,,,,,,,,,,,p,1,1.32862,space,0.61947,0,15,15,41,1,3_dist_green/trial17.png,,,1,3,greenverival,p,27,30,,2021-02-24_09h47.09.766,exp11,2020.2.6,Win32,60,IwAR1JSyvdpIcOguLQdSaBvh_tHMwMwg8djfGEDSmCfSurgZOM_Ahdduy9SpM,,,,,,,,,,,
,,,,,,,,,,,,,,p,1,1.007475,space,0.616635,0,16,16,34,1,3_dist_green/trial10.png,,,1,3,greenverival,p,27,30,,2021-02-24_09h47.09.766,exp11,2020.2.6,Win32,60,IwAR1JSyvdpIcOguLQdSaBvh_tHMwMwg8djfGEDSmCfSurgZOM_Ahdduy9SpM,,,,,,,,,,,
,,,,,,,,,,,,,,a,1,1.03669,space,0.65037,0,17,17,112,1,0_targ_1_dist_green/trial13.png,,,0,1,greenverival,a,27,30,,2021-02-24_09h47.09.766,exp11,2020.2.6,Win32,60,IwAR1JSyvdpIcOguLQdSaBvh_tHMwMwg8djfGEDSmCfSurgZOM_Ahdduy9SpM,,,,,,,,,,,
,,,,,,,,,,,,,,p,1,1.167375,space,0.70666,0,18,18,96,1,15_dist_green/trial22.png,,,1,15,greenverival,p,27,30,,2021-02-24_09h47.09.766,exp11,2020.2.6,Win32,60,IwAR1JSyvdpIcOguLQdSaBvh_tHMwMwg8djfGEDSmCfSurgZOM_Ahdduy9SpM,,,,,,,,,,,
,,,,,,,,,,,,,,p,1,1.76949,space,0.51831,0,19,19,81,1,15_dist_green/trial7.png,,,1,15,greenverival,p,27,30,,2021-02-24_09h47.09.766,exp11,2020.2.6,Win32,60,IwAR1JSyvdpIcOguLQdSaBvh_tHMwMwg8djfGEDSmCfSurgZOM_Ahdduy9SpM,,,,,,,,,,,
,,,,,,,,,,,,,,a,1,1.42699,space,0.742055,0,20,20,178,1,0_targ_16_dist_green/trial4.png,,,0,16,greenverival,a,27,30,,2021-02-24_09h47.09.766,exp11,2020.2.6,Win32,60,IwAR1JSyvdpIcOguLQdSaBvh_tHMwMwg8djfGEDSmCfSurgZOM_Ahdduy9SpM,,,,,,,,,,,
,,,,,,,,,,,,,,a,1,0.93732,space,0.94922,0,21,21,109,1,0_targ_1_dist_green/trial10.png,,,0,1,greenverival,a,27,30,,2021-02-24_09h47.09.766,exp11,2020.2.6,Win32,60,IwAR1JSyvdpIcOguLQdSaBvh_tHMwMwg8djfGEDSmCfSurgZOM_Ahdduy9SpM,,,,,,,,,,,
,,,,,,,,,,,,,,a,1,1.04277,space,0.73917,0,22,22,134,1,0_targ_4_dist_green/trial10.png,,,0,4,greenverival,a,27,30,,2021-02-24_09h47.09.766,exp11,2020.2.6,Win32,60,IwAR1JSyvdpIcOguLQdSaBvh_tHMwMwg8djfGEDSmCfSurgZOM_Ahdduy9SpM,,,,,,,,,,,
,,,,,,,,,,,,,,p,1,1.26049,space,0.651475,0,23,23,82,1,15_dist_green/trial8.png,,,1,15,greenverival,p,27,30,,2021-02-24_09h47.09.766,exp11,2020.2.6,Win32,60,IwAR1JSyvdpIcOguLQdSaBvh_tHMwMwg8djfGEDSmCfSurgZOM_Ahdduy9SpM,,,,,,,,,,,
,,,,,,,,,,,,,,a,1,0.983635,space,0.67501,0,24,24,114,1,0_targ_1_dist_green/trial15.png,,,0,1,greenverival,a,27,30,,2021-02-24_09h47.09.766,exp11,2020.2.6,Win32,60,IwAR1JSyvdpIcOguLQdSaBvh_tHMwMwg8djfGEDSmCfSurgZOM_Ahdduy9SpM,,,,,,,,,,,
,,,,,,,,,,,,,,a,1,0.962575,space,0.76804,0,25,25,143,1,0_targ_4_dist_green/trial19.png,,,0,4,greenverival,a,27,30,,2021-02-24_09h47.09.766,exp11,2020.2.6,Win32,60,IwAR1JSyvdpIcOguLQdSaBvh_tHMwMwg8djfGEDSmCfSurgZOM_Ahdduy9SpM,,,,,,,,,,,
,,,,,,,,,,,,,,a,1,1.3713,space,0.836855,0,26,26,197,1,0_targ_16_dist_green/trial23.png,,,0,16,greenverival,a,27,30,,2021-02-24_09h47.09.766,exp11,2020.2.6,Win32,60,IwAR1JSyvdpIcOguLQdSaBvh_tHMwMwg8djfGEDSmCfSurgZOM_Ahdduy9SpM,,,,,,,,,,,
,,,,,,,,,,,,,,p,1,1.016755,space,0.71536,0,27,27,91,1,15_dist_green/trial17.png,,,1,15,greenverival,p,27,30,,2021-02-24_09h47.09.766,exp11,2020.2.6,Win32,60,IwAR1JSyvdpIcOguLQdSaBvh_tHMwMwg8djfGEDSmCfSurgZOM_Ahdduy9SpM,,,,,,,,,,,
,,,,,,,,,,,,,,p,1,0.740535,space,0.50727,0,28,28,22,1,0_dist_green/trial23.png,,,1,0,greenverival,p,27,30,,2021-02-24_09h47.09.766,exp11,2020.2.6,Win32,60,IwAR1JSyvdpIcOguLQdSaBvh_tHMwMwg8djfGEDSmCfSurgZOM_Ahdduy9SpM,,,,,,,,,,,
,,,,,,,,,,,,,,a,1,0.795465,space,0.61133,0,29,29,166,1,0_targ_10_dist_green/trial17.png,,,0,10,greenverival,a,27,30,,2021-02-24_09h47.09.766,exp11,2020.2.6,Win32,60,IwAR1JSyvdpIcOguLQdSaBvh_tHMwMwg8djfGEDSmCfSurgZOM_Ahdduy9SpM,,,,,,,,,,,
,,,,,,,,,,,,,,p,1,1.726105,space,0.435275,0,30,30,92,1,15_dist_green/trial18.png,,,1,15,greenverival,p,27,30,,2021-02-24_09h47.09.766,exp11,2020.2.6,Win32,60,IwAR1JSyvdpIcOguLQdSaBvh_tHMwMwg8djfGEDSmCfSurgZOM_Ahdduy9SpM,,,,,,,,,,,
,,,,,,,,,,,,,,p,0,2.95064,space,1.626805,0,31,31,144,1,0_targ_4_dist_green/trial20.png,,,0,4,greenverival,a,27,30,,2021-02-24_09h47.09.766,exp11,2020.2.6,Win32,60,IwAR1JSyvdpIcOguLQdSaBvh_tHMwMwg8djfGEDSmCfSurgZOM_Ahdduy9SpM,,,,,,,,,,,
,,,,,,,,,,,,,,a,1,4.22821,space,0.503795,0,32,32,154,1,0_targ_10_dist_green/trial5.png,,,0,10,greenverival,a,27,30,,2021-02-24_09h47.09.766,exp11,2020.2.6,Win32,60,IwAR1JSyvdpIcOguLQdSaBvh_tHMwMwg8djfGEDSmCfSurgZOM_Ahdduy9SpM,,,,,,,,,,,
,,,,,,,,,,,,,,a,1,1.704745,space,0.449665,0,33,33,185,1,0_targ_16_dist_green/trial11.png,,,0,16,greenverival,a,27,30,,2021-02-24_09h47.09.766,exp11,2020.2.6,Win32,60,IwAR1JSyvdpIcOguLQdSaBvh_tHMwMwg8djfGEDSmCfSurgZOM_Ahdduy9SpM,,,,,,,,,,,
,,,,,,,,,,,,,,p,1,1.767065,space,0.46436,0,34,34,98,1,15_dist_green/trial24.png,,,1,15,greenverival,p,27,30,,2021-02-24_09h47.09.766,exp11,2020.2.6,Win32,60,IwAR1JSyvdpIcOguLQdSaBvh_tHMwMwg8djfGEDSmCfSurgZOM_Ahdduy9SpM,,,,,,,,,,,
,,,,,,,,,,,,,,p,1,0.81116,space,0.05112,0,35,35,66,1,9_dist_green/trial17.png,,,1,9,greenverival,p,27,30,,2021-02-24_09h47.09.766,exp11,2020.2.6,Win32,60,IwAR1JSyvdpIcOguLQdSaBvh_tHMwMwg8djfGEDSmCfSurgZOM_Ahdduy9SpM,,,,,,,,,,,
,,,,,,,,,,,,,,a,1,0.86606,space,0.52066,0,36,36,117,1,0_targ_1_dist_green/trial18.png,,,0,1,greenverival,a,27,30,,2021-02-24_09h47.09.766,exp11,2020.2.6,Win32,60,IwAR1JSyvdpIcOguLQdSaBvh_tHMwMwg8djfGEDSmCfSurgZOM_Ahdduy9SpM,,,,,,,,,,,
,,,,,,,,,,,,,,a,1,1.480885,space,0.52292,0,37,37,148,1,0_targ_4_dist_green/trial24.png,,,0,4,greenverival,a,27,30,,2021-02-24_09h47.09.766,exp11,2020.2.6,Win32,60,IwAR1JSyvdpIcOguLQdSaBvh_tHMwMwg8djfGEDSmCfSurgZOM_Ahdduy9SpM,,,,,,,,,,,
,,,,,,,,,,,,,,a,1,1.10654,space,0.32834,0,38,38,189,1,0_targ_16_dist_green/trial15.png,,,0,16,greenverival,a,27,30,,2021-02-24_09h47.09.766,exp11,2020.2.6,Win32,60,IwAR1JSyvdpIcOguLQdSaBvh_tHMwMwg8djfGEDSmCfSurgZOM_Ahdduy9SpM,,,,,,,,,,,
,,,,,,,,,,,,,,p,1,0.743325,space,0.389945,0,39,39,2,1,0_dist_green/trial3.png,,,1,0,greenverival,p,27,30,,2021-02-24_09h47.09.766,exp11,2020.2.6,Win32,60,IwAR1JSyvdpIcOguLQdSaBvh_tHMwMwg8djfGEDSmCfSurgZOM_Ahdduy9SpM,,,,,,,,,,,
,,,,,,,,,,,,,,p,1,0.935125,space,0.921085,0,40,40,99,1,15_dist_green/trial25.png,,,1,15,greenverival,p,27,30,,2021-02-24_09h47.09.766,exp11,2020.2.6,Win32,60,IwAR1JSyvdpIcOguLQdSaBvh_tHMwMwg8djfGEDSmCfSurgZOM_Ahdduy9SpM,,,,,,,,,,,
,,,,,,,,,,,,,,a,1,0.6256,space,0.48106,0,41,41,102,1,0_targ_1_dist_green/trial3.png,,,0,1,greenverival,a,27,30,,2021-02-24_09h47.09.766,exp11,2020.2.6,Win32,60,IwAR1JSyvdpIcOguLQdSaBvh_tHMwMwg8djfGEDSmCfSurgZOM_Ahdduy9SpM,,,,,,,,,,,
,,,,,,,,,,,,,,a,1,0.794895,space,0.405085,0,42,42,137,1,0_targ_4_dist_green/trial13.png,,,0,4,greenverival,a,27,30,,2021-02-24_09h47.09.766,exp11,2020.2.6,Win32,60,IwAR1JSyvdpIcOguLQdSaBvh_tHMwMwg8djfGEDSmCfSurgZOM_Ahdduy9SpM,,,,,,,,,,,
,,,,,,,,,,,,,,a,1,0.51913,space,0.45523,0,43,43,108,1,0_targ_1_dist_green/trial9.png,,,0,1,greenverival,a,27,30,,2021-02-24_09h47.09.766,exp11,2020.2.6,Win32,60,IwAR1JSyvdpIcOguLQdSaBvh_tHMwMwg8djfGEDSmCfSurgZOM_Ahdduy9SpM,,,,,,,,,,,
,,,,,,,,,,,,,,a,1,1.11113,space,0.40074,0,44,44,184,1,0_targ_16_dist_green/trial10.png,,,0,16,greenverival,a,27,30,,2021-02-24_09h47.09.766,exp11,2020.2.6,Win32,60,IwAR1JSyvdpIcOguLQdSaBvh_tHMwMwg8djfGEDSmCfSurgZOM_Ahdduy9SpM,,,,,,,,,,,
,,,,,,,,,,,,,,p,1,0.898555,space,0.36811,0,45,45,73,1,9_dist_green/trial24.png,,,1,9,greenverival,p,27,30,,2021-02-24_09h47.09.766,exp11,2020.2.6,Win32,60,IwAR1JSyvdpIcOguLQdSaBvh_tHMwMwg8djfGEDSmCfSurgZOM_Ahdduy9SpM,,,,,,,,,,,
,,,,,,,,,,,,,,a,1,0.80356,space,0.538415,0,46,46,159,1,0_targ_10_dist_green/trial10.png,,,0,10,greenverival,a,27,30,,2021-02-24_09h47.09.766,exp11,2020.2.6,Win32,60,IwAR1JSyvdpIcOguLQdSaBvh_tHMwMwg8djfGEDSmCfSurgZOM_Ahdduy9SpM,,,,,,,,,,,
,,,,,,,,,,,,,,a,1,1.45913,space,0.36267,0,47,47,179,1,0_targ_16_dist_green/trial5.png,,,0,16,greenverival,a,27,30,,2021-02-24_09h47.09.766,exp11,2020.2.6,Win32,60,IwAR1JSyvdpIcOguLQdSaBvh_tHMwMwg8djfGEDSmCfSurgZOM_Ahdduy9SpM,,,,,,,,,,,
,,,,,,,,,,,,,,p,1,0.89778,space,0.45315,0,48,48,56,1,9_dist_green/trial7.png,,,1,9,greenverival,p,27,30,,2021-02-24_09h47.09.766,exp11,2020.2.6,Win32,60,IwAR1JSyvdpIcOguLQdSaBvh_tHMwMwg8djfGEDSmCfSurgZOM_Ahdduy9SpM,,,,,,,,,,,
,,,,,,,,,,,,,,p,1,0.700565,space,0.456065,0,49,49,29,1,3_dist_green/trial5.png,,,1,3,greenverival,p,27,30,,2021-02-24_09h47.09.766,exp11,2020.2.6,Win32,60,IwAR1JSyvdpIcOguLQdSaBvh_tHMwMwg8djfGEDSmCfSurgZOM_Ahdduy9SpM,,,,,,,,,,,
,,,,,,,,,,,,,,p,1,0.58328,space,0.4143,0,50,50,7,1,0_dist_green/trial8.png,,,1,0,greenverival,p,27,30,,2021-02-24_09h47.09.766,exp11,2020.2.6,Win32,60,IwAR1JSyvdpIcOguLQdSaBvh_tHMwMwg8djfGEDSmCfSurgZOM_Ahdduy9SpM,,,,,,,,,,,
,,,,,,,,,,,,,,a,1,0.774525,space,0.382485,0,51,51,120,1,0_targ_1_dist_green/trial21.png,,,0,1,greenverival,a,27,30,,2021-02-24_09h47.09.766,exp11,2020.2.6,Win32,60,IwAR1JSyvdpIcOguLQdSaBvh_tHMwMwg8djfGEDSmCfSurgZOM_Ahdduy9SpM,,,,,,,,,,,
,,,,,,,,,,,,,,p,1,0.836195,space,0.435855,0,52,52,50,1,9_dist_green/trial1.png,,,1,9,greenverival,p,27,30,,2021-02-24_09h47.09.766,exp11,2020.2.6,Win32,60,IwAR1JSyvdpIcOguLQdSaBvh_tHMwMwg8djfGEDSmCfSurgZOM_Ahdduy9SpM,,,,,,,,,,,
,,,,,,,,,,,,,,p,1,0.963095,space,0.43649,0,53,53,75,1,15_dist_green/trial1.png,,,1,15,greenverival,p,27,30,,2021-02-24_09h47.09.766,exp11,2020.2.6,Win32,60,IwAR1JSyvdpIcOguLQdSaBvh_tHMwMwg8djfGEDSmCfSurgZOM_Ahdduy9SpM,,,,,,,,,,,
,,,,,,,,,,,,,,p,1,0.990665,space,0.41247,0,54,54,5,1,0_dist_green/trial6.png,,,1,0,greenverival,p,27,30,,2021-02-24_09h47.09.766,exp11,2020.2.6,Win32,60,IwAR1JSyvdpIcOguLQdSaBvh_tHMwMwg8djfGEDSmCfSurgZOM_Ahdduy9SpM,,,,,,,,,,,
,,,,,,,,,,,,,,a,1,0.721155,space,0.365695,0,55,55,169,1,0_targ_10_dist_green/trial20.png,,,0,10,greenverival,a,27,30,,2021-02-24_09h47.09.766,exp11,2020.2.6,Win32,60,IwAR1JSyvdpIcOguLQdSaBvh_tHMwMwg8djfGEDSmCfSurgZOM_Ahdduy9SpM,,,,,,,,,,,
,,,,,,,,,,,,,,a,1,0.73835,space,0.403835,0,56,56,161,1,0_targ_10_dist_green/trial12.png,,,0,10,greenverival,a,27,30,,2021-02-24_09h47.09.766,exp11,2020.2.6,Win32,60,IwAR1JSyvdpIcOguLQdSaBvh_tHMwMwg8djfGEDSmCfSurgZOM_Ahdduy9SpM,,,,,,,,,,,
,,,,,,,,,,,,,,a,1,0.965615,space,0.38235,0,57,57,123,1,0_targ_1_dist_green/trial24.png,,,0,1,greenverival,a,27,30,,2021-02-24_09h47.09.766,exp11,2020.2.6,Win32,60,IwAR1JSyvdpIcOguLQdSaBvh_tHMwMwg8djfGEDSmCfSurgZOM_Ahdduy9SpM,,,,,,,,,,,
,,,,,,,,,,,,,,p,1,0.677925,space,0.44972,0,58,58,30,1,3_dist_green/trial6.png,,,1,3,greenverival,p,27,30,,2021-02-24_09h47.09.766,exp11,2020.2.6,Win32,60,IwAR1JSyvdpIcOguLQdSaBvh_tHMwMwg8djfGEDSmCfSurgZOM_Ahdduy9SpM,,,,,,,,,,,
,,,,,,,,,,,,,,a,1,0.92713,space,0.401655,0,59,59,107,1,0_targ_1_dist_green/trial8.png,,,0,1,greenverival,a,27,30,,2021-02-24_09h47.09.766,exp11,2020.2.6,Win32,60,IwAR1JSyvdpIcOguLQdSaBvh_tHMwMwg8djfGEDSmCfSurgZOM_Ahdduy9SpM,,,,,,,,,,,
,,,,,,,,,,,,,,p,1,0.864645,space,0.420845,0,60,60,62,1,9_dist_green/trial13.png,,,1,9,greenverival,p,27,30,,2021-02-24_09h47.09.766,exp11,2020.2.6,Win32,60,IwAR1JSyvdpIcOguLQdSaBvh_tHMwMwg8djfGEDSmCfSurgZOM_Ahdduy9SpM,,,,,,,,,,,
,,,,,,,,,,,,,,a,1,0.94375,space,0.4313,0,61,61,180,1,0_targ_16_dist_green/trial6.png,,,0,16,greenverival,a,27,30,,2021-02-24_09h47.09.766,exp11,2020.2.6,Win32,60,IwAR1JSyvdpIcOguLQdSaBvh_tHMwMwg8djfGEDSmCfSurgZOM_Ahdduy9SpM,,,,,,,,,,,
,,,,,,,,,,,,,,p,1,1.45633,space,0.359745,0,62,62,45,1,3_dist_green/trial21.png,,,1,3,greenverival,p,27,30,,2021-02-24_09h47.09.766,exp11,2020.2.6,Win32,60,IwAR1JSyvdpIcOguLQdSaBvh_tHMwMwg8djfGEDSmCfSurgZOM_Ahdduy9SpM,,,,,,,,,,,
,,,,,,,,,,,,,,a,1,0.71721,space,0.402815,0,63,63,119,1,0_targ_1_dist_green/trial20.png,,,0,1,greenverival,a,27,30,,2021-02-24_09h47.09.766,exp11,2020.2.6,Win32,60,IwAR1JSyvdpIcOguLQdSaBvh_tHMwMwg8djfGEDSmCfSurgZOM_Ahdduy9SpM,,,,,,,,,,,
,,,,,,,,,,,,,,p,1,1.22075,space,0.068965,0,64,64,24,1,0_dist_green/trial25.png,,,1,0,greenverival,p,27,30,,2021-02-24_09h47.09.766,exp11,2020.2.6,Win32,60,IwAR1JSyvdpIcOguLQdSaBvh_tHMwMwg8djfGEDSmCfSurgZOM_Ahdduy9SpM,,,,,,,,,,,
,,,,,,,,,,,,,,p,1,1.205875,space,0.368315,0,65,65,70,1,9_dist_green/trial21.png,,,1,9,greenverival,p,27,30,,2021-02-24_09h47.09.766,exp11,2020.2.6,Win32,60,IwAR1JSyvdpIcOguLQdSaBvh_tHMwMwg8djfGEDSmCfSurgZOM_Ahdduy9SpM,,,,,,,,,,,
,,,,,,,,,,,,,,a,1,0.596685,space,0.37307,0,66,66,140,1,0_targ_4_dist_green/trial6.png,,,0,4,greenverival,a,27,30,,2021-02-24_09h47.09.766,exp11,2020.2.6,Win32,60,IwAR1JSyvdpIcOguLQdSaBvh_tHMwMwg8djfGEDSmCfSurgZOM_Ahdduy9SpM,,,,,,,,,,,
,,,,,,,,,,,,,,a,1,0.568235,space,0.38788,0,67,67,132,1,0_targ_4_dist_green/trial8.png,,,0,4,greenverival,a,27,30,,2021-02-24_09h47.09.766,exp11,2020.2.6,Win32,60,IwAR1JSyvdpIcOguLQdSaBvh_tHMwMwg8djfGEDSmCfSurgZOM_Ahdduy9SpM,,,,,,,,,,,
,,,,,,,,,,,,,,p,1,0.604885,space,0.388845,0,68,68,12,1,0_dist_green/trial13.png,,,1,0,greenverival,p,27,30,,2021-02-24_09h47.09.766,exp11,2020.2.6,Win32,60,IwAR1JSyvdpIcOguLQdSaBvh_tHMwMwg8djfGEDSmCfSurgZOM_Ahdduy9SpM,,,,,,,,,,,
,,,,,,,,,,,,,,p,1,1.34645,space,0.335255,0,69,69,19,1,0_dist_green/trial20.png,,,1,0,greenverival,p,27,30,,2021-02-24_09h47.09.766,exp11,2020.2.6,Win32,60,IwAR1JSyvdpIcOguLQdSaBvh_tHMwMwg8djfGEDSmCfSurgZOM_Ahdduy9SpM,,,,,,,,,,,
,,,,,,,,,,,,,,p,1,0.95523,space,0.382455,0,70,70,68,1,9_dist_green/trial19.png,,,1,9,greenverival,p,27,30,,2021-02-24_09h47.09.766,exp11,2020.2.6,Win32,60,IwAR1JSyvdpIcOguLQdSaBvh_tHMwMwg8djfGEDSmCfSurgZOM_Ahdduy9SpM,,,,,,,,,,,
,,,,,,,,,,,,,,p,1,0.81061,space,0.393245,0,71,71,76,1,15_dist_green/trial2.png,,,1,15,greenverival,p,27,30,,2021-02-24_09h47.09.766,exp11,2020.2.6,Win32,60,IwAR1JSyvdpIcOguLQdSaBvh_tHMwMwg8djfGEDSmCfSurgZOM_Ahdduy9SpM,,,,,,,,,,,
,,,,,,,,,,,,,,p,1,0.973905,space,0.403735,0,72,72,77,1,15_dist_green/trial3.png,,,1,15,greenverival,p,27,30,,2021-02-24_09h47.09.766,exp11,2020.2.6,Win32,60,IwAR1JSyvdpIcOguLQdSaBvh_tHMwMwg8djfGEDSmCfSurgZOM_Ahdduy9SpM,,,,,,,,,,,
,,,,,,,,,,,,,,a,1,0.89177,space,0.534625,0,73,73,150,1,0_targ_10_dist_green/trial1.png,,,0,10,greenverival,a,27,30,,2021-02-24_09h47.09.766,exp11,2020.2.6,Win32,60,IwAR1JSyvdpIcOguLQdSaBvh_tHMwMwg8djfGEDSmCfSurgZOM_Ahdduy9SpM,,,,,,,,,,,
,,,,,,,,,,,,,,a,1,0.87624,space,0.36991,0,74,74,171,1,0_targ_10_dist_green/trial22.png,,,0,10,greenverival,a,27,30,,2021-02-24_09h47.09.766,exp11,2020.2.6,Win32,60,IwAR1JSyvdpIcOguLQdSaBvh_tHMwMwg8djfGEDSmCfSurgZOM_Ahdduy9SpM,,,,,,,,,,,
,,,,,,,,,,,,,,p,1,0.69765,space,0.39491,0,75,75,39,1,3_dist_green/trial15.png,,,1,3,greenverival,p,27,30,,2021-02-24_09h47.09.766,exp11,2020.2.6,Win32,60,IwAR1JSyvdpIcOguLQdSaBvh_tHMwMwg8djfGEDSmCfSurgZOM_Ahdduy9SpM,,,,,,,,,,,
,,,,,,,,,,,,,,p,1,0.67425,space,0.40479,0,76,76,14,1,0_dist_green/trial15.png,,,1,0,greenverival,p,27,30,,2021-02-24_09h47.09.766,exp11,2020.2.6,Win32,60,IwAR1JSyvdpIcOguLQdSaBvh_tHMwMwg8djfGEDSmCfSurgZOM_Ahdduy9SpM,,,,,,,,,,,
,,,,,,,,,,,,,,a,1,0.705055,space,0.387495,0,77,77,104,1,0_targ_1_dist_green/trial5.png,,,0,1,greenverival,a,27,30,,2021-02-24_09h47.09.766,exp11,2020.2.6,Win32,60,IwAR1JSyvdpIcOguLQdSaBvh_tHMwMwg8djfGEDSmCfSurgZOM_Ahdduy9SpM,,,,,,,,,,,
,,,,,,,,,,,,,,a,1,0.601795,space,0.37194,0,78,78,139,1,0_targ_4_dist_green/trial15.png,,,0,4,greenverival,a,27,30,,2021-02-24_09h47.09.766,exp11,2020.2.6,Win32,60,IwAR1JSyvdpIcOguLQdSaBvh_tHMwMwg8djfGEDSmCfSurgZOM_Ahdduy9SpM,,,,,,,,,,,
,,,,,,,,,,,,,,a,1,1.30026,space,0.31735,0,79,79,152,1,0_targ_10_dist_green/trial3.png,,,0,10,greenverival,a,27,30,,2021-02-24_09h47.09.766,exp11,2020.2.6,Win32,60,IwAR1JSyvdpIcOguLQdSaBvh_tHMwMwg8djfGEDSmCfSurgZOM_Ahdduy9SpM,,,,,,,,,,,
,,,,,,,,,,,,,,p,1,0.64738,space,0.35162,0,80,80,42,1,3_dist_green/trial18.png,,,1,3,greenverival,p,27,30,,2021-02-24_09h47.09.766,exp11,2020.2.6,Win32,60,IwAR1JSyvdpIcOguLQdSaBvh_tHMwMwg8djfGEDSmCfSurgZOM_Ahdduy9SpM,,,,,,,,,,,
,,,,,,,,,,,,,,p,1,0.65434,space,0.369985,0,81,81,64,1,9_dist_green/trial15.png,,,1,9,greenverival,p,27,30,,2021-02-24_09h47.09.766,exp11,2020.2.6,Win32,60,IwAR1JSyvdpIcOguLQdSaBvh_tHMwMwg8djfGEDSmCfSurgZOM_Ahdduy9SpM,,,,,,,,,,,
,,,,,,,,,,,,,,a,1,0.643455,space,0.351785,0,82,82,103,1,0_targ_1_dist_green/trial4.png,,,0,1,greenverival,a,27,30,,2021-02-24_09h47.09.766,exp11,2020.2.6,Win32,60,IwAR1JSyvdpIcOguLQdSaBvh_tHMwMwg8djfGEDSmCfSurgZOM_Ahdduy9SpM,,,,,,,,,,,
,,,,,,,,,,,,,,a,1,1.24418,space,0.305395,0,83,83,182,1,0_targ_16_dist_green/trial8.png,,,0,16,greenverival,a,27,30,,2021-02-24_09h47.09.766,exp11,2020.2.6,Win32,60,IwAR1JSyvdpIcOguLQdSaBvh_tHMwMwg8djfGEDSmCfSurgZOM_Ahdduy9SpM,,,,,,,,,,,
,,,,,,,,,,,,,,a,1,0.652145,space,0.330505,0,84,84,199,1,0_targ_16_dist_green/trial25.png,,,0,16,greenverival,a,27,30,,2021-02-24_09h47.09.766,exp11,2020.2.6,Win32,60,IwAR1JSyvdpIcOguLQdSaBvh_tHMwMwg8djfGEDSmCfSurgZOM_Ahdduy9SpM,,,,,,,,,,,
,,,,,,,,,,,,,,a,1,0.702835,space,0.37196,0,85,85,196,1,0_targ_16_dist_green/trial22.png,,,0,16,greenverival,a,27,30,,2021-02-24_09h47.09.766,exp11,2020.2.6,Win32,60,IwAR1JSyvdpIcOguLQdSaBvh_tHMwMwg8djfGEDSmCfSurgZOM_Ahdduy9SpM,,,,,,,,,,,
,,,,,,,,,,,,,,a,1,0.688765,space,0.372675,0,86,86,130,1,0_targ_4_dist_green/trial6.png,,,0,4,greenverival,a,27,30,,2021-02-24_09h47.09.766,exp11,2020.2.6,Win32,60,IwAR1JSyvdpIcOguLQdSaBvh_tHMwMwg8djfGEDSmCfSurgZOM_Ahdduy9SpM,,,,,,,,,,,
,,,,,,,,,,,,,,p,1,0.62222,space,0.33909,0,87,87,26,1,3_dist_green/trial2.png,,,1,3,greenverival,p,27,30,,2021-02-24_09h47.09.766,exp11,2020.2.6,Win32,60,IwAR1JSyvdpIcOguLQdSaBvh_tHMwMwg8djfGEDSmCfSurgZOM_Ahdduy9SpM,,,,,,,,,,,
,,,,,,,,,,,,,,a,1,0.769235,space,0.350565,0,88,88,190,1,0_targ_16_dist_green/trial16.png,,,0,16,greenverival,a,27,30,,2021-02-24_09h47.09.766,exp11,2020.2.6,Win32,60,IwAR1JSyvdpIcOguLQdSaBvh_tHMwMwg8djfGEDSmCfSurgZOM_Ahdduy9SpM,,,,,,,,,,,
,,,,,,,,,,,,,,a,1,0.70339,space,0.36612,0,89,89,177,1,0_targ_16_dist_green/trial3.png,,,0,16,greenverival,a,27,30,,2021-02-24_09h47.09.766,exp11,2020.2.6,Win32,60,IwAR1JSyvdpIcOguLQdSaBvh_tHMwMwg8djfGEDSmCfSurgZOM_Ahdduy9SpM,,,,,,,,,,,
,,,,,,,,,,,,,,p,1,0.56969,space,0.408235,0,90,90,31,1,3_dist_green/trial7.png,,,1,3,greenverival,p,27,30,,2021-02-24_09h47.09.766,exp11,2020.2.6,Win32,60,IwAR1JSyvdpIcOguLQdSaBvh_tHMwMwg8djfGEDSmCfSurgZOM_Ahdduy9SpM,,,,,,,,,,,
,,,,,,,,,,,,,,p,1,0.63937,space,0.35926,0,91,91,36,1,3_dist_green/trial12.png,,,1,3,greenverival,p,27,30,,2021-02-24_09h47.09.766,exp11,2020.2.6,Win32,60,IwAR1JSyvdpIcOguLQdSaBvh_tHMwMwg8djfGEDSmCfSurgZOM_Ahdduy9SpM,,,,,,,,,,,
,,,,,,,,,,,,,,p,1,0.489345,space,0.454535,0,92,92,10,1,0_dist_green/trial11.png,,,1,0,greenverival,p,27,30,,2021-02-24_09h47.09.766,exp11,2020.2.6,Win32,60,IwAR1JSyvdpIcOguLQdSaBvh_tHMwMwg8djfGEDSmCfSurgZOM_Ahdduy9SpM,,,,,,,,,,,
,,,,,,,,,,,,,,p,1,0.761825,space,0.369305,0,93,93,93,1,15_dist_green/trial19.png,,,1,15,greenverival,p,27,30,,2021-02-24_09h47.09.766,exp11,2020.2.6,Win32,60,IwAR1JSyvdpIcOguLQdSaBvh_tHMwMwg8djfGEDSmCfSurgZOM_Ahdduy9SpM,,,,,,,,,,,
,,,,,,,,,,,,,,p,1,0.65836,space,0.405515,0,94,94,89,1,15_dist_green/trial15.png,,,1,15,greenverival,p,27,30,,2021-02-24_09h47.09.766,exp11,2020.2.6,Win32,60,IwAR1JSyvdpIcOguLQdSaBvh_tHMwMwg8djfGEDSmCfSurgZOM_Ahdduy9SpM,,,,,,,,,,,
,,,,,,,,,,,,,,p,1,0.54297,space,0.4251,0,95,95,9,1,0_dist_green/trial10.png,,,1,0,greenverival,p,27,30,,2021-02-24_09h47.09.766,exp11,2020.2.6,Win32,60,IwAR1JSyvdpIcOguLQdSaBvh_tHMwMwg8djfGEDSmCfSurgZOM_Ahdduy9SpM,,,,,,,,,,,
,,,,,,,,,,,,,,p,1,0.8383,space,0.33601,0,96,96,51,1,9_dist_green/trial2.png,,,1,9,greenverival,p,27,30,,2021-02-24_09h47.09.766,exp11,2020.2.6,Win32,60,IwAR1JSyvdpIcOguLQdSaBvh_tHMwMwg8djfGEDSmCfSurgZOM_Ahdduy9SpM,,,,,,,,,,,
,,,,,,,,,,,,,,p,1,0.69566,space,0.40174,0,97,97,90,1,15_dist_green/trial16.png,,,1,15,greenverival,p,27,30,,2021-02-24_09h47.09.766,exp11,2020.2.6,Win32,60,IwAR1JSyvdpIcOguLQdSaBvh_tHMwMwg8djfGEDSmCfSurgZOM_Ahdduy9SpM,,,,,,,,,,,
,,,,,,,,,,,,,,p,1,0.50836,space,0.44854,0,98,98,33,1,3_dist_green/trial9.png,,,1,3,greenverival,p,27,30,,2021-02-24_09h47.09.766,exp11,2020.2.6,Win32,60,IwAR1JSyvdpIcOguLQdSaBvh_tHMwMwg8djfGEDSmCfSurgZOM_Ahdduy9SpM,,,,,,,,,,,
,,,,,,,,,,,,,,a,1,0.69728,space,0.418165,0,99,99,135,1,0_targ_4_dist_green/trial11.png,,,0,4,greenverival,a,27,30,,2021-02-24_09h47.09.766,exp11,2020.2.6,Win32,60,IwAR1JSyvdpIcOguLQdSaBvh_tHMwMwg8djfGEDSmCfSurgZOM_Ahdduy9SpM,,,,,,,,,,,
,,,,,,,,,,,,,,p,1,0.75225,space,0.399995,0,100,100,32,1,3_dist_green/trial8.png,,,1,3,greenverival,p,27,30,,2021-02-24_09h47.09.766,exp11,2020.2.6,Win32,60,IwAR1JSyvdpIcOguLQdSaBvh_tHMwMwg8djfGEDSmCfSurgZOM_Ahdduy9SpM,,,,,,,,,,,
,,,,,,,,,,,,,,a,1,2.267735,space,0.44856,0,101,101,170,1,0_targ_10_dist_green/trial21.png,,,0,10,greenverival,a,27,30,,2021-02-24_09h47.09.766,exp11,2020.2.6,Win32,60,IwAR1JSyvdpIcOguLQdSaBvh_tHMwMwg8djfGEDSmCfSurgZOM_Ahdduy9SpM,,,,,,,,,,,
,,,,,,,,,,,,,,p,1,0.785835,space,0.391815,0,102,102,15,1,0_dist_green/trial16.png,,,1,0,greenverival,p,27,30,,2021-02-24_09h47.09.766,exp11,2020.2.6,Win32,60,IwAR1JSyvdpIcOguLQdSaBvh_tHMwMwg8djfGEDSmCfSurgZOM_Ahdduy9SpM,,,,,,,,,,,
,,,,,,,,,,,,,,a,1,0.719025,space,0.354785,0,103,103,162,1,0_targ_10_dist_green/trial13.png,,,0,10,greenverival,a,27,30,,2021-02-24_09h47.09.766,exp11,2020.2.6,Win32,60,IwAR1JSyvdpIcOguLQdSaBvh_tHMwMwg8djfGEDSmCfSurgZOM_Ahdduy9SpM,,,,,,,,,,,
,,,,,,,,,,,,,,p,1,0.77649,space,0.393485,0,104,104,48,1,3_dist_green/trial24.png,,,1,3,greenverival,p,27,30,,2021-02-24_09h47.09.766,exp11,2020.2.6,Win32,60,IwAR1JSyvdpIcOguLQdSaBvh_tHMwMwg8djfGEDSmCfSurgZOM_Ahdduy9SpM,,,,,,,,,,,
,,,,,,,,,,,,,,p,1,0.574715,space,0.454725,0,105,105,6,1,0_dist_green/trial7.png,,,1,0,greenverival,p,27,30,,2021-02-24_09h47.09.766,exp11,2020.2.6,Win32,60,IwAR1JSyvdpIcOguLQdSaBvh_tHMwMwg8djfGEDSmCfSurgZOM_Ahdduy9SpM,,,,,,,,,,,
,,,,,,,,,,,,,,a,1,0.589905,space,0.417765,0,106,106,127,1,0_targ_4_dist_green/trial3.png,,,0,4,greenverival,a,27,30,,2021-02-24_09h47.09.766,exp11,2020.2.6,Win32,60,IwAR1JSyvdpIcOguLQdSaBvh_tHMwMwg8djfGEDSmCfSurgZOM_Ahdduy9SpM,,,,,,,,,,,
,,,,,,,,,,,,,,p,1,0.657155,space,0.375045,0,107,107,28,1,3_dist_green/trial4.png,,,1,3,greenverival,p,27,30,,2021-02-24_09h47.09.766,exp11,2020.2.6,Win32,60,IwAR1JSyvdpIcOguLQdSaBvh_tHMwMwg8djfGEDSmCfSurgZOM_Ahdduy9SpM,,,,,,,,,,,
,,,,,,,,,,,,,,a,1,0.62169,space,0.39188,0,108,108,129,1,0_targ_4_dist_green/trial5.png,,,0,4,greenverival,a,27,30,,2021-02-24_09h47.09.766,exp11,2020.2.6,Win32,60,IwAR1JSyvdpIcOguLQdSaBvh_tHMwMwg8djfGEDSmCfSurgZOM_Ahdduy9SpM,,,,,,,,,,,
,,,,,,,,,,,,,,a,1,1.39338,space,0.37196,0,109,109,194,1,0_targ_16_dist_green/trial20.png,,,0,16,greenverival,a,27,30,,2021-02-24_09h47.09.766,exp11,2020.2.6,Win32,60,IwAR1JSyvdpIcOguLQdSaBvh_tHMwMwg8djfGEDSmCfSurgZOM_Ahdduy9SpM,,,,,,,,,,,
,,,,,,,,,,,,,,a,1,0.90167,space,0.340075,0,110,110,191,1,0_targ_16_dist_green/trial17.png,,,0,16,greenverival,a,27,30,,2021-02-24_09h47.09.766,exp11,2020.2.6,Win32,60,IwAR1JSyvdpIcOguLQdSaBvh_tHMwMwg8djfGEDSmCfSurgZOM_Ahdduy9SpM,,,,,,,,,,,
,,,,,,,,,,,,,,p,1,0.784165,space,0.307875,0,111,111,83,1,15_dist_green/trial9.png,,,1,15,greenverival,p,27,30,,2021-02-24_09h47.09.766,exp11,2020.2.6,Win32,60,IwAR1JSyvdpIcOguLQdSaBvh_tHMwMwg8djfGEDSmCfSurgZOM_Ahdduy9SpM,,,,,,,,,,,
,,,,,,,,,,,,,,p,1,0.71931,space,0.30513,0,112,112,40,1,3_dist_green/trial16.png,,,1,3,greenverival,p,27,30,,2021-02-24_09h47.09.766,exp11,2020.2.6,Win32,60,IwAR1JSyvdpIcOguLQdSaBvh_tHMwMwg8djfGEDSmCfSurgZOM_Ahdduy9SpM,,,,,,,,,,,
,,,,,,,,,,,,,,a,1,0.654845,space,0.308015,0,113,113,122,1,0_targ_1_dist_green/trial23.png,,,0,1,greenverival,a,27,30,,2021-02-24_09h47.09.766,exp11,2020.2.6,Win32,60,IwAR1JSyvdpIcOguLQdSaBvh_tHMwMwg8djfGEDSmCfSurgZOM_Ahdduy9SpM,,,,,,,,,,,
,,,,,,,,,,,,,,p,1,0.918705,space,0.30929,0,114,114,71,1,9_dist_green/trial22.png,,,1,9,greenverival,p,27,30,,2021-02-24_09h47.09.766,exp11,2020.2.6,Win32,60,IwAR1JSyvdpIcOguLQdSaBvh_tHMwMwg8djfGEDSmCfSurgZOM_Ahdduy9SpM,,,,,,,,,,,
,,,,,,,,,,,,,,p,1,2.170995,space,0.33349,0,115,115,44,1,3_dist_green/trial20.png,,,1,3,greenverival,p,27,30,,2021-02-24_09h47.09.766,exp11,2020.2.6,Win32,60,IwAR1JSyvdpIcOguLQdSaBvh_tHMwMwg8djfGEDSmCfSurgZOM_Ahdduy9SpM,,,,,,,,,,,
,,,,,,,,,,,,,,p,1,0.587085,space,0.40959,0,116,116,17,1,0_dist_green/trial18.png,,,1,0,greenverival,p,27,30,,2021-02-24_09h47.09.766,exp11,2020.2.6,Win32,60,IwAR1JSyvdpIcOguLQdSaBvh_tHMwMwg8djfGEDSmCfSurgZOM_Ahdduy9SpM,,,,,,,,,,,
,,,,,,,,,,,,,,p,0,0.594725,space,0.21207,0,117,117,138,1,0_targ_4_dist_green/trial14.png,,,0,4,greenverival,a,27,30,,2021-02-24_09h47.09.766,exp11,2020.2.6,Win32,60,IwAR1JSyvdpIcOguLQdSaBvh_tHMwMwg8djfGEDSmCfSurgZOM_Ahdduy9SpM,,,,,,,,,,,
,,,,,,,,,,,,,,a,1,2.59959,space,0.439135,0,118,118,136,1,0_targ_4_dist_green/trial12.png,,,0,4,greenverival,a,27,30,,2021-02-24_09h47.09.766,exp11,2020.2.6,Win32,60,IwAR1JSyvdpIcOguLQdSaBvh_tHMwMwg8djfGEDSmCfSurgZOM_Ahdduy9SpM,,,,,,,,,,,
,,,,,,,,,,,,,,a,1,0.913075,space,0.314905,0,119,119,128,1,0_targ_4_dist_green/trial4.png,,,0,4,greenverival,a,27,30,,2021-02-24_09h47.09.766,exp11,2020.2.6,Win32,60,IwAR1JSyvdpIcOguLQdSaBvh_tHMwMwg8djfGEDSmCfSurgZOM_Ahdduy9SpM,,,,,,,,,,,
,,,,,,,,,,,,,,p,1,0.98521,space,0.28342,0,120,120,69,1,9_dist_green/trial20.png,,,1,9,greenverival,p,27,30,,2021-02-24_09h47.09.766,exp11,2020.2.6,Win32,60,IwAR1JSyvdpIcOguLQdSaBvh_tHMwMwg8djfGEDSmCfSurgZOM_Ahdduy9SpM,,,,,,,,,,,
,,,,,,,,,,,,,,p,1,0.5345,space,0.271085,0,121,121,3,1,0_dist_green/trial4.png,,,1,0,greenverival,p,27,30,,2021-02-24_09h47.09.766,exp11,2020.2.6,Win32,60,IwAR1JSyvdpIcOguLQdSaBvh_tHMwMwg8djfGEDSmCfSurgZOM_Ahdduy9SpM,,,,,,,,,,,
,,,,,,,,,,,,,,a,1,0.75292,space,0.27001,0,122,122,110,1,0_targ_1_dist_green/trial11.png,,,0,1,greenverival,a,27,30,,2021-02-24_09h47.09.766,exp11,2020.2.6,Win32,60,IwAR1JSyvdpIcOguLQdSaBvh_tHMwMwg8djfGEDSmCfSurgZOM_Ahdduy9SpM,,,,,,,,,,,
,,,,,,,,,,,,,,a,1,3.07426,space,0.318765,0,123,123,168,1,0_targ_10_dist_green/trial19.png,,,0,10,greenverival,a,27,30,,2021-02-24_09h47.09.766,exp11,2020.2.6,Win32,60,IwAR1JSyvdpIcOguLQdSaBvh_tHMwMwg8djfGEDSmCfSurgZOM_Ahdduy9SpM,,,,,,,,,,,
,,,,,,,,,,,,,,p,1,0.67949,space,0.317915,0,124,124,38,1,3_dist_green/trial14.png,,,1,3,greenverival,p,27,30,,2021-02-24_09h47.09.766,exp11,2020.2.6,Win32,60,IwAR1JSyvdpIcOguLQdSaBvh_tHMwMwg8djfGEDSmCfSurgZOM_Ahdduy9SpM,,,,,,,,,,,
,,,,,,,,,,,,,,p,1,1.17505,space,0.287825,0,125,125,37,1,3_dist_green/trial13.png,,,1,3,greenverival,p,27,30,,2021-02-24_09h47.09.766,exp11,2020.2.6,Win32,60,IwAR1JSyvdpIcOguLQdSaBvh_tHMwMwg8djfGEDSmCfSurgZOM_Ahdduy9SpM,,,,,,,,,,,
,,,,,,,,,,,,,,p,1,0.996675,space,0.24566,0,126,126,54,1,9_dist_green/trial5.png,,,1,9,greenverival,p,27,30,,2021-02-24_09h47.09.766,exp11,2020.2.6,Win32,60,IwAR1JSyvdpIcOguLQdSaBvh_tHMwMwg8djfGEDSmCfSurgZOM_Ahdduy9SpM,,,,,,,,,,,
,,,,,,,,,,,,,,a,1,0.717585,space,0.339595,0,127,127,105,1,0_targ_1_dist_green/trial6.png,,,0,1,greenverival,a,27,30,,2021-02-24_09h47.09.766,exp11,2020.2.6,Win32,60,IwAR1JSyvdpIcOguLQdSaBvh_tHMwMwg8djfGEDSmCfSurgZOM_Ahdduy9SpM,,,,,,,,,,,
,,,,,,,,,,,,,,p,1,1.89348,space,0.35478,0,128,128,65,1,9_dist_green/trial16.png,,,1,9,greenverival,p,27,30,,2021-02-24_09h47.09.766,exp11,2020.2.6,Win32,60,IwAR1JSyvdpIcOguLQdSaBvh_tHMwMwg8djfGEDSmCfSurgZOM_Ahdduy9SpM,,,,,,,,,,,
,,,,,,,,,,,,,,a,1,1.67769,space,0.29103,0,129,129,174,1,0_targ_10_dist_green/trial25.png,,,0,10,greenverival,a,27,30,,2021-02-24_09h47.09.766,exp11,2020.2.6,Win32,60,IwAR1JSyvdpIcOguLQdSaBvh_tHMwMwg8djfGEDSmCfSurgZOM_Ahdduy9SpM,,,,,,,,,,,
,,,,,,,,,,,,,,a,1,3.495185,space,0.20884,0,130,130,165,1,0_targ_10_dist_green/trial16.png,,,0,10,greenverival,a,27,30,,2021-02-24_09h47.09.766,exp11,2020.2.6,Win32,60,IwAR1JSyvdpIcOguLQdSaBvh_tHMwMwg8djfGEDSmCfSurgZOM_Ahdduy9SpM,,,,,,,,,,,
,,,,,,,,,,,,,,a,1,0.55357,space,0.281575,0,131,131,146,1,0_targ_4_dist_green/trial22.png,,,0,4,greenverival,a,27,30,,2021-02-24_09h47.09.766,exp11,2020.2.6,Win32,60,IwAR1JSyvdpIcOguLQdSaBvh_tHMwMwg8djfGEDSmCfSurgZOM_Ahdduy9SpM,,,,,,,,,,,
,,,,,,,,,,,,,,p,1,0.74875,space,0.316995,0,132,132,78,1,15_dist_green/trial4.png,,,1,15,greenverival,p,27,30,,2021-02-24_09h47.09.766,exp11,2020.2.6,Win32,60,IwAR1JSyvdpIcOguLQdSaBvh_tHMwMwg8djfGEDSmCfSurgZOM_Ahdduy9SpM,,,,,,,,,,,
,,,,,,,,,,,,,,a,1,1.04332,space,0.297735,0,133,133,151,1,0_targ_10_dist_green/trial2.png,,,0,10,greenverival,a,27,30,,2021-02-24_09h47.09.766,exp11,2020.2.6,Win32,60,IwAR1JSyvdpIcOguLQdSaBvh_tHMwMwg8djfGEDSmCfSurgZOM_Ahdduy9SpM,,,,,,,,,,,
,,,,,,,,,,,,,,a,1,1.10539,space,0.31643,0,134,134,155,1,0_targ_10_dist_green/trial6.png,,,0,10,greenverival,a,27,30,,2021-02-24_09h47.09.766,exp11,2020.2.6,Win32,60,IwAR1JSyvdpIcOguLQdSaBvh_tHMwMwg8djfGEDSmCfSurgZOM_Ahdduy9SpM,,,,,,,,,,,
,,,,,,,,,,,,,,a,1,0.82121,space,0.30117,0,135,135,186,1,0_targ_16_dist_green/trial12.png,,,0,16,greenverival,a,27,30,,2021-02-24_09h47.09.766,exp11,2020.2.6,Win32,60,IwAR1JSyvdpIcOguLQdSaBvh_tHMwMwg8djfGEDSmCfSurgZOM_Ahdduy9SpM,,,,,,,,,,,
,,,,,,,,,,,,,,p,1,0.45046,space,0.337835,0,136,136,8,1,0_dist_green/trial9.png,,,1,0,greenverival,p,27,30,,2021-02-24_09h47.09.766,exp11,2020.2.6,Win32,60,IwAR1JSyvdpIcOguLQdSaBvh_tHMwMwg8djfGEDSmCfSurgZOM_Ahdduy9SpM,,,,,,,,,,,
,,,,,,,,,,,,,,a,1,0.87469,space,0.30125,0,137,137,193,1,0_targ_16_dist_green/trial19.png,,,0,16,greenverival,a,27,30,,2021-02-24_09h47.09.766,exp11,2020.2.6,Win32,60,IwAR1JSyvdpIcOguLQdSaBvh_tHMwMwg8djfGEDSmCfSurgZOM_Ahdduy9SpM,,,,,,,,,,,
,,,,,,,,,,,,,,p,1,0.644265,space,0.37061,0,138,138,63,1,9_dist_green/trial14.png,,,1,9,greenverival,p,27,30,,2021-02-24_09h47.09.766,exp11,2020.2.6,Win32,60,IwAR1JSyvdpIcOguLQdSaBvh_tHMwMwg8djfGEDSmCfSurgZOM_Ahdduy9SpM,,,,,,,,,,,
,,,,,,,,,,,,,,a,1,0.789285,space,0.3876,0,139,139,113,1,0_targ_1_dist_green/trial14.png,,,0,1,greenverival,a,27,30,,2021-02-24_09h47.09.766,exp11,2020.2.6,Win32,60,IwAR1JSyvdpIcOguLQdSaBvh_tHMwMwg8djfGEDSmCfSurgZOM_Ahdduy9SpM,,,,,,,,,,,
,,,,,,,,,,,,,,a,1,1.13955,space,0.271465,0,140,140,126,1,0_targ_4_dist_green/trial2.png,,,0,4,greenverival,a,27,30,,2021-02-24_09h47.09.766,exp11,2020.2.6,Win32,60,IwAR1JSyvdpIcOguLQdSaBvh_tHMwMwg8djfGEDSmCfSurgZOM_Ahdduy9SpM,,,,,,,,,,,
,,,,,,,,,,,,,,p,1,0.789395,space,0.318205,0,141,141,59,1,9_dist_green/trial10.png,,,1,9,greenverival,p,27,30,,2021-02-24_09h47.09.766,exp11,2020.2.6,Win32,60,IwAR1JSyvdpIcOguLQdSaBvh_tHMwMwg8djfGEDSmCfSurgZOM_Ahdduy9SpM,,,,,,,,,,,
,,,,,,,,,,,,,,p,1,0.83934,space,0.36757,0,142,142,80,1,15_dist_green/trial6.png,,,1,15,greenverival,p,27,30,,2021-02-24_09h47.09.766,exp11,2020.2.6,Win32,60,IwAR1JSyvdpIcOguLQdSaBvh_tHMwMwg8djfGEDSmCfSurgZOM_Ahdduy9SpM,,,,,,,,,,,
,,,,,,,,,,,,,,p,1,0.539275,space,0.35439,0,143,143,18,1,0_dist_green/trial19.png,,,1,0,greenverival,p,27,30,,2021-02-24_09h47.09.766,exp11,2020.2.6,Win32,60,IwAR1JSyvdpIcOguLQdSaBvh_tHMwMwg8djfGEDSmCfSurgZOM_Ahdduy9SpM,,,,,,,,,,,
,,,,,,,,,,,,,,a,1,0.61502,space,0.33291,0,144,144,160,1,0_targ_10_dist_green/trial11.png,,,0,10,greenverival,a,27,30,,2021-02-24_09h47.09.766,exp11,2020.2.6,Win32,60,IwAR1JSyvdpIcOguLQdSaBvh_tHMwMwg8djfGEDSmCfSurgZOM_Ahdduy9SpM,,,,,,,,,,,
,,,,,,,,,,,,,,a,1,0.77152,space,0.300745,0,145,145,198,1,0_targ_16_dist_green/trial24.png,,,0,16,greenverival,a,27,30,,2021-02-24_09h47.09.766,exp11,2020.2.6,Win32,60,IwAR1JSyvdpIcOguLQdSaBvh_tHMwMwg8djfGEDSmCfSurgZOM_Ahdduy9SpM,,,,,,,,,,,
,,,,,,,,,,,,,,a,1,0.51371,space,0.3541,0,146,146,115,1,0_targ_1_dist_green/trial6.png,,,0,1,greenverival,a,27,30,,2021-02-24_09h47.09.766,exp11,2020.2.6,Win32,60,IwAR1JSyvdpIcOguLQdSaBvh_tHMwMwg8djfGEDSmCfSurgZOM_Ahdduy9SpM,,,,,,,,,,,
,,,,,,,,,,,,,,p,1,0.55539,space,0.38276,0,147,147,85,1,15_dist_green/trial11.png,,,1,15,greenverival,p,27,30,,2021-02-24_09h47.09.766,exp11,2020.2.6,Win32,60,IwAR1JSyvdpIcOguLQdSaBvh_tHMwMwg8djfGEDSmCfSurgZOM_Ahdduy9SpM,,,,,,,,,,,
,,,,,,,,,,,,,,p,1,0.949665,space,0.29306,0,148,148,55,1,9_dist_green/trial6.png,,,1,9,greenverival,p,27,30,,2021-02-24_09h47.09.766,exp11,2020.2.6,Win32,60,IwAR1JSyvdpIcOguLQdSaBvh_tHMwMwg8djfGEDSmCfSurgZOM_Ahdduy9SpM,,,,,,,,,,,
,,,,,,,,,,,,,,p,1,0.52461,space,0.28762,0,149,149,0,1,0_dist_green/trial1.png,,,1,0,greenverival,p,27,30,,2021-02-24_09h47.09.766,exp11,2020.2.6,Win32,60,IwAR1JSyvdpIcOguLQdSaBvh_tHMwMwg8djfGEDSmCfSurgZOM_Ahdduy9SpM,,,,,,,,,,,
,,,,,,,,,,,,,,p,1,0.667365,space,0.325395,0,150,150,94,1,15_dist_green/trial20.png,,,1,15,greenverival,p,27,30,,2021-02-24_09h47.09.766,exp11,2020.2.6,Win32,60,IwAR1JSyvdpIcOguLQdSaBvh_tHMwMwg8djfGEDSmCfSurgZOM_Ahdduy9SpM,,,,,,,,,,,
,,,,,,,,,,,,,,a,1,0.743395,space,0.302335,0,151,151,187,1,0_targ_16_dist_green/trial13.png,,,0,16,greenverival,a,27,30,,2021-02-24_09h47.09.766,exp11,2020.2.6,Win32,60,IwAR1JSyvdpIcOguLQdSaBvh_tHMwMwg8djfGEDSmCfSurgZOM_Ahdduy9SpM,,,,,,,,,,,
,,,,,,,,,,,,,,a,1,1.045235,space,0.246015,0,152,152,149,1,0_targ_4_dist_green/trial25.png,,,0,4,greenverival,a,27,30,,2021-02-24_09h47.09.766,exp11,2020.2.6,Win32,60,IwAR1JSyvdpIcOguLQdSaBvh_tHMwMwg8djfGEDSmCfSurgZOM_Ahdduy9SpM,,,,,,,,,,,
,,,,,,,,,,,,,,a,1,1.327525,space,0.373875,0,153,153,158,1,0_targ_10_dist_green/trial9.png,,,0,10,greenverival,a,27,30,,2021-02-24_09h47.09.766,exp11,2020.2.6,Win32,60,IwAR1JSyvdpIcOguLQdSaBvh_tHMwMwg8djfGEDSmCfSurgZOM_Ahdduy9SpM,,,,,,,,,,,
,,,,,,,,,,,,,,a,1,0.574135,space,0.389595,0,154,154,101,1,0_targ_1_dist_green/trial2.png,,,0,1,greenverival,a,27,30,,2021-02-24_09h47.09.766,exp11,2020.2.6,Win32,60,IwAR1JSyvdpIcOguLQdSaBvh_tHMwMwg8djfGEDSmCfSurgZOM_Ahdduy9SpM,,,,,,,,,,,
,,,,,,,,,,,,,,a,1,0.506525,space,0.36859,0,155,155,124,1,0_targ_1_dist_green/trial25.png,,,0,1,greenverival,a,27,30,,2021-02-24_09h47.09.766,exp11,2020.2.6,Win32,60,IwAR1JSyvdpIcOguLQdSaBvh_tHMwMwg8djfGEDSmCfSurgZOM_Ahdduy9SpM,,,,,,,,,,,
,,,,,,,,,,,,,,a,1,0.62527,space,0.470295,0,156,156,176,1,0_targ_16_dist_green/trial2.png,,,0,16,greenverival,a,27,30,,2021-02-24_09h47.09.766,exp11,2020.2.6,Win32,60,IwAR1JSyvdpIcOguLQdSaBvh_tHMwMwg8djfGEDSmCfSurgZOM_Ahdduy9SpM,,,,,,,,,,,
,,,,,,,,,,,,,,p,1,0.703675,space,0.358955,0,157,157,84,1,15_dist_green/trial10.png,,,1,15,greenverival,p,27,30,,2021-02-24_09h47.09.766,exp11,2020.2.6,Win32,60,IwAR1JSyvdpIcOguLQdSaBvh_tHMwMwg8djfGEDSmCfSurgZOM_Ahdduy9SpM,,,,,,,,,,,
,,,,,,,,,,,,,,p,1,0.66984,space,0.354345,0,158,158,57,1,9_dist_green/trial8.png,,,1,9,greenverival,p,27,30,,2021-02-24_09h47.09.766,exp11,2020.2.6,Win32,60,IwAR1JSyvdpIcOguLQdSaBvh_tHMwMwg8djfGEDSmCfSurgZOM_Ahdduy9SpM,,,,,,,,,,,
,,,,,,,,,,,,,,p,1,0.42851,space,0.468615,0,159,159,13,1,0_dist_green/trial14.png,,,1,0,greenverival,p,27,30,,2021-02-24_09h47.09.766,exp11,2020.2.6,Win32,60,IwAR1JSyvdpIcOguLQdSaBvh_tHMwMwg8djfGEDSmCfSurgZOM_Ahdduy9SpM,,,,,,,,,,,
,,,,,,,,,,,,,,p,1,0.551495,space,0.40531,0,160,160,47,1,3_dist_green/trial23.png,,,1,3,greenverival,p,27,30,,2021-02-24_09h47.09.766,exp11,2020.2.6,Win32,60,IwAR1JSyvdpIcOguLQdSaBvh_tHMwMwg8djfGEDSmCfSurgZOM_Ahdduy9SpM,,,,,,,,,,,
,,,,,,,,,,,,,,a,1,0.890765,space,0.29146,0,161,161,157,1,0_targ_10_dist_green/trial8.png,,,0,10,greenverival,a,27,30,,2021-02-24_09h47.09.766,exp11,2020.2.6,Win32,60,IwAR1JSyvdpIcOguLQdSaBvh_tHMwMwg8djfGEDSmCfSurgZOM_Ahdduy9SpM,,,,,,,,,,,
,,,,,,,,,,,,,,a,1,1.09097,space,0.25188,0,162,162,156,1,0_targ_10_dist_green/trial7.png,,,0,10,greenverival,a,27,30,,2021-02-24_09h47.09.766,exp11,2020.2.6,Win32,60,IwAR1JSyvdpIcOguLQdSaBvh_tHMwMwg8djfGEDSmCfSurgZOM_Ahdduy9SpM,,,,,,,,,,,
,,,,,,,,,,,,,,p,1,0.876505,space,0.25238,0,163,163,27,1,3_dist_green/trial3.png,,,1,3,greenverival,p,27,30,,2021-02-24_09h47.09.766,exp11,2020.2.6,Win32,60,IwAR1JSyvdpIcOguLQdSaBvh_tHMwMwg8djfGEDSmCfSurgZOM_Ahdduy9SpM,,,,,,,,,,,
,,,,,,,,,,,,,,p,1,0.95965,space,0.711725,0,164,164,95,1,15_dist_green/trial21.png,,,1,15,greenverival,p,27,30,,2021-02-24_09h47.09.766,exp11,2020.2.6,Win32,60,IwAR1JSyvdpIcOguLQdSaBvh_tHMwMwg8djfGEDSmCfSurgZOM_Ahdduy9SpM,,,,,,,,,,,
,,,,,,,,,,,,,,p,1,0.790505,space,1.87224,0,165,165,53,1,9_dist_green/trial4.png,,,1,9,greenverival,p,27,30,,2021-02-24_09h47.09.766,exp11,2020.2.6,Win32,60,IwAR1JSyvdpIcOguLQdSaBvh_tHMwMwg8djfGEDSmCfSurgZOM_Ahdduy9SpM,,,,,,,,,,,
,,,,,,,,,,,,,,p,1,0.59377,space,0.50649,0,166,166,20,1,0_dist_green/trial21.png,,,1,0,greenverival,p,27,30,,2021-02-24_09h47.09.766,exp11,2020.2.6,Win32,60,IwAR1JSyvdpIcOguLQdSaBvh_tHMwMwg8djfGEDSmCfSurgZOM_Ahdduy9SpM,,,,,,,,,,,
,,,,,,,,,,,,,,a,1,0.569335,space,0.351785,0,167,167,106,1,0_targ_1_dist_green/trial7.png,,,0,1,greenverival,a,27,30,,2021-02-24_09h47.09.766,exp11,2020.2.6,Win32,60,IwAR1JSyvdpIcOguLQdSaBvh_tHMwMwg8djfGEDSmCfSurgZOM_Ahdduy9SpM,,,,,,,,,,,
,,,,,,,,,,,,,,a,1,0.63427,space,0.252945,0,168,168,133,1,0_targ_4_dist_green/trial9.png,,,0,4,greenverival,a,27,30,,2021-02-24_09h47.09.766,exp11,2020.2.6,Win32,60,IwAR1JSyvdpIcOguLQdSaBvh_tHMwMwg8djfGEDSmCfSurgZOM_Ahdduy9SpM,,,,,,,,,,,
,,,,,,,,,,,,,,a,1,1.091075,space,0.333885,0,169,169,116,1,0_targ_1_dist_green/trial17.png,,,0,1,greenverival,a,27,30,,2021-02-24_09h47.09.766,exp11,2020.2.6,Win32,60,IwAR1JSyvdpIcOguLQdSaBvh_tHMwMwg8djfGEDSmCfSurgZOM_Ahdduy9SpM,,,,,,,,,,,
,,,,,,,,,,,,,,p,1,0.70769,space,0.352535,0,170,170,88,1,15_dist_green/trial14.png,,,1,15,greenverival,p,27,30,,2021-02-24_09h47.09.766,exp11,2020.2.6,Win32,60,IwAR1JSyvdpIcOguLQdSaBvh_tHMwMwg8djfGEDSmCfSurgZOM_Ahdduy9SpM,,,,,,,,,,,
,,,,,,,,,,,,,,p,1,0.551265,space,0.437525,0,171,171,1,1,0_dist_green/trial2.png,,,1,0,greenverival,p,27,30,,2021-02-24_09h47.09.766,exp11,2020.2.6,Win32,60,IwAR1JSyvdpIcOguLQdSaBvh_tHMwMwg8djfGEDSmCfSurgZOM_Ahdduy9SpM,,,,,,,,,,,
,,,,,,,,,,,,,,p,1,1.140215,space,0.367115,0,172,172,49,1,3_dist_green/trial25.png,,,1,3,greenverival,p,27,30,,2021-02-24_09h47.09.766,exp11,2020.2.6,Win32,60,IwAR1JSyvdpIcOguLQdSaBvh_tHMwMwg8djfGEDSmCfSurgZOM_Ahdduy9SpM,,,,,,,,,,,
,,,,,,,,,,,,,,a,1,0.73796,space,0.36939,0,173,173,125,1,0_targ_4_dist_green/trial1.png,,,0,4,greenverival,a,27,30,,2021-02-24_09h47.09.766,exp11,2020.2.6,Win32,60,IwAR1JSyvdpIcOguLQdSaBvh_tHMwMwg8djfGEDSmCfSurgZOM_Ahdduy9SpM,,,,,,,,,,,
,,,,,,,,,,,,,,a,1,0.636025,space,0.44548,0,174,174,172,1,0_targ_10_dist_green/trial23.png,,,0,10,greenverival,a,27,30,,2021-02-24_09h47.09.766,exp11,2020.2.6,Win32,60,IwAR1JSyvdpIcOguLQdSaBvh_tHMwMwg8djfGEDSmCfSurgZOM_Ahdduy9SpM,,,,,,,,,,,
,,,,,,,,,,,,,,p,1,0.724745,space,0.369,0,175,175,67,1,9_dist_green/trial18.png,,,1,9,greenverival,p,27,30,,2021-02-24_09h47.09.766,exp11,2020.2.6,Win32,60,IwAR1JSyvdpIcOguLQdSaBvh_tHMwMwg8djfGEDSmCfSurgZOM_Ahdduy9SpM,,,,,,,,,,,
,,,,,,,,,,,,,,p,1,0.550865,space,0.352925,0,176,176,11,1,0_dist_green/trial12.png,,,1,0,greenverival,p,27,30,,2021-02-24_09h47.09.766,exp11,2020.2.6,Win32,60,IwAR1JSyvdpIcOguLQdSaBvh_tHMwMwg8djfGEDSmCfSurgZOM_Ahdduy9SpM,,,,,,,,,,,
,,,,,,,,,,,,,,a,1,0.943755,space,0.221315,0,177,177,167,1,0_targ_10_dist_green/trial18.png,,,0,10,greenverival,a,27,30,,2021-02-24_09h47.09.766,exp11,2020.2.6,Win32,60,IwAR1JSyvdpIcOguLQdSaBvh_tHMwMwg8djfGEDSmCfSurgZOM_Ahdduy9SpM,,,,,,,,,,,
,,,,,,,,,,,,,,p,1,1.26606,space,0.385895,0,178,178,79,1,15_dist_green/trial5.png,,,1,15,greenverival,p,27,30,,2021-02-24_09h47.09.766,exp11,2020.2.6,Win32,60,IwAR1JSyvdpIcOguLQdSaBvh_tHMwMwg8djfGEDSmCfSurgZOM_Ahdduy9SpM,,,,,,,,,,,
,,,,,,,,,,,,,,a,1,1.862835,space,0.363795,0,179,179,145,1,0_targ_4_dist_green/trial21.png,,,0,4,greenverival,a,27,30,,2021-02-24_09h47.09.766,exp11,2020.2.6,Win32,60,IwAR1JSyvdpIcOguLQdSaBvh_tHMwMwg8djfGEDSmCfSurgZOM_Ahdduy9SpM,,,,,,,,,,,
,,,,,,,,,,,,,,p,1,0.870095,space,0.32051,0,180,180,72,1,9_dist_green/trial23.png,,,1,9,greenverival,p,27,30,,2021-02-24_09h47.09.766,exp11,2020.2.6,Win32,60,IwAR1JSyvdpIcOguLQdSaBvh_tHMwMwg8djfGEDSmCfSurgZOM_Ahdduy9SpM,,,,,,,,,,,
,,,,,,,,,,,,,,a,1,0.988355,space,0.2915,0,181,181,188,1,0_targ_16_dist_green/trial14.png,,,0,16,greenverival,a,27,30,,2021-02-24_09h47.09.766,exp11,2020.2.6,Win32,60,IwAR1JSyvdpIcOguLQdSaBvh_tHMwMwg8djfGEDSmCfSurgZOM_Ahdduy9SpM,,,,,,,,,,,
,,,,,,,,,,,,,,a,1,0.908775,space,0.30494,0,182,182,175,1,0_targ_16_dist_green/trial1.png,,,0,16,greenverival,a,27,30,,2021-02-24_09h47.09.766,exp11,2020.2.6,Win32,60,IwAR1JSyvdpIcOguLQdSaBvh_tHMwMwg8djfGEDSmCfSurgZOM_Ahdduy9SpM,,,,,,,,,,,
,,,,,,,,,,,,,,a,1,0.963525,space,0.1514,0,183,183,121,1,0_targ_1_dist_green/trial22.png,,,0,1,greenverival,a,27,30,,2021-02-24_09h47.09.766,exp11,2020.2.6,Win32,60,IwAR1JSyvdpIcOguLQdSaBvh_tHMwMwg8djfGEDSmCfSurgZOM_Ahdduy9SpM,,,,,,,,,,,
,,,,,,,,,,,,,,p,1,0.624255,space,0.25035,0,184,184,16,1,0_dist_green/trial17.png,,,1,0,greenverival,p,27,30,,2021-02-24_09h47.09.766,exp11,2020.2.6,Win32,60,IwAR1JSyvdpIcOguLQdSaBvh_tHMwMwg8djfGEDSmCfSurgZOM_Ahdduy9SpM,,,,,,,,,,,
,,,,,,,,,,,,,,a,1,0.85156,space,0.16365,0,185,185,183,1,0_targ_16_dist_green/trial9.png,,,0,16,greenverival,a,27,30,,2021-02-24_09h47.09.766,exp11,2020.2.6,Win32,60,IwAR1JSyvdpIcOguLQdSaBvh_tHMwMwg8djfGEDSmCfSurgZOM_Ahdduy9SpM,,,,,,,,,,,
,,,,,,,,,,,,,,p,1,0.767755,space,0.169475,0,186,186,86,1,15_dist_green/trial12.png,,,1,15,greenverival,p,27,30,,2021-02-24_09h47.09.766,exp11,2020.2.6,Win32,60,IwAR1JSyvdpIcOguLQdSaBvh_tHMwMwg8djfGEDSmCfSurgZOM_Ahdduy9SpM,,,,,,,,,,,
,,,,,,,,,,,,,,p,1,0.705545,space,0.106845,0,187,187,46,1,3_dist_green/trial22.png,,,1,3,greenverival,p,27,30,,2021-02-24_09h47.09.766,exp11,2020.2.6,Win32,60,IwAR1JSyvdpIcOguLQdSaBvh_tHMwMwg8djfGEDSmCfSurgZOM_Ahdduy9SpM,,,,,,,,,,,
,,,,,,,,,,,,,,a,1,0.63237,space,0.188725,0,188,188,163,1,0_targ_10_dist_green/trial14.png,,,0,10,greenverival,a,27,30,,2021-02-24_09h47.09.766,exp11,2020.2.6,Win32,60,IwAR1JSyvdpIcOguLQdSaBvh_tHMwMwg8djfGEDSmCfSurgZOM_Ahdduy9SpM,,,,,,,,,,,
,,,,,,,,,,,,,,a,1,0.736015,space,0.178625,0,189,189,195,1,0_targ_16_dist_green/trial21.png,,,0,16,greenverival,a,27,30,,2021-02-24_09h47.09.766,exp11,2020.2.6,Win32,60,IwAR1JSyvdpIcOguLQdSaBvh_tHMwMwg8djfGEDSmCfSurgZOM_Ahdduy9SpM,,,,,,,,,,,
,,,,,,,,,,,,,,a,1,0.64589,space,0.16368,0,190,190,118,1,0_targ_1_dist_green/trial19.png,,,0,1,greenverival,a,27,30,,2021-02-24_09h47.09.766,exp11,2020.2.6,Win32,60,IwAR1JSyvdpIcOguLQdSaBvh_tHMwMwg8djfGEDSmCfSurgZOM_Ahdduy9SpM,,,,,,,,,,,
,,,,,,,,,,,,,,p,1,0.56025,space,0.176445,0,191,191,74,1,9_dist_green/trial25.png,,,1,9,greenverival,p,27,30,,2021-02-24_09h47.09.766,exp11,2020.2.6,Win32,60,IwAR1JSyvdpIcOguLQdSaBvh_tHMwMwg8djfGEDSmCfSurgZOM_Ahdduy9SpM,,,,,,,,,,,
,,,,,,,,,,,,,,a,1,0.67043,space,0.20889,0,192,192,147,1,0_targ_4_dist_green/trial23.png,,,0,4,greenverival,a,27,30,,2021-02-24_09h47.09.766,exp11,2020.2.6,Win32,60,IwAR1JSyvdpIcOguLQdSaBvh_tHMwMwg8djfGEDSmCfSurgZOM_Ahdduy9SpM,,,,,,,,,,,
,,,,,,,,,,,,,,a,1,0.638605,space,0.1852,0,193,193,173,1,0_targ_10_dist_green/trial24.png,,,0,10,greenverival,a,27,30,,2021-02-24_09h47.09.766,exp11,2020.2.6,Win32,60,IwAR1JSyvdpIcOguLQdSaBvh_tHMwMwg8djfGEDSmCfSurgZOM_Ahdduy9SpM,,,,,,,,,,,
,,,,,,,,,,,,,,a,1,0.496635,space,0.211125,0,194,194,100,1,0_targ_1_dist_green/trial1.png,,,0,1,greenverival,a,27,30,,2021-02-24_09h47.09.766,exp11,2020.2.6,Win32,60,IwAR1JSyvdpIcOguLQdSaBvh_tHMwMwg8djfGEDSmCfSurgZOM_Ahdduy9SpM,,,,,,,,,,,
,,,,,,,,,,,,,,p,1,0.543525,space,0.17694,0,195,195,58,1,9_dist_green/trial9.png,,,1,9,greenverival,p,27,30,,2021-02-24_09h47.09.766,exp11,2020.2.6,Win32,60,IwAR1JSyvdpIcOguLQdSaBvh_tHMwMwg8djfGEDSmCfSurgZOM_Ahdduy9SpM,,,,,,,,,,,
,,,,,,,,,,,,,,a,1,0.63048,space,0.20374,0,196,196,181,1,0_targ_16_dist_green/trial7.png,,,0,16,greenverival,a,27,30,,2021-02-24_09h47.09.766,exp11,2020.2.6,Win32,60,IwAR1JSyvdpIcOguLQdSaBvh_tHMwMwg8djfGEDSmCfSurgZOM_Ahdduy9SpM,,,,,,,,,,,
,,,,,,,,,,,,,,p,1,0.687845,space,0.201625,0,197,197,97,1,15_dist_green/trial23.png,,,1,15,greenverival,p,27,30,,2021-02-24_09h47.09.766,exp11,2020.2.6,Win32,60,IwAR1JSyvdpIcOguLQdSaBvh_tHMwMwg8djfGEDSmCfSurgZOM_Ahdduy9SpM,,,,,,,,,,,
,,,,,,,,,,,,,,p,1,0.546215,space,0.188935,0,198,198,87,1,15_dist_green/trial13.png,,,1,15,greenverival,p,27,30,,2021-02-24_09h47.09.766,exp11,2020.2.6,Win32,60,IwAR1JSyvdpIcOguLQdSaBvh_tHMwMwg8djfGEDSmCfSurgZOM_Ahdduy9SpM,,,,,,,,,,,
,,,,,,,,,,,,,,p,1,0.593725,space,0.192065,0,199,199,61,1,9_dist_green/trial12.png,,,1,9,greenverival,p,27,30,,2021-02-24_09h47.09.766,exp11,2020.2.6,Win32,60,IwAR1JSyvdpIcOguLQdSaBvh_tHMwMwg8djfGEDSmCfSurgZOM_Ahdduy9SpM,,,,,,,,,,,
,,,,,,,,,,,,,,,,,,,,,,,,,,,,,,,27,30,,2021-02-24_09h47.09.766,exp11,2020.2.6,Win32,60,IwAR1JSyvdpIcOguLQdSaBvh_tHMwMwg8djfGEDSmCfSurgZOM_Ahdduy9SpM,0,0,0,0,1,conGreen.xlsx,green vertical,Look for green vertical bar (target) and indicate if it is present or absent in the array. If green vertical target is present press 'p' and if absent press 'a'. Press SPACE to start.,,,
,,,,,,,,,,space,9.67674,space,2.751615,a,1,1.367295,space,0.438735,0,0,0,120,1,0_targ_1_dist_red/trial21.png,,,0,1,redHorizontal,a,27,30,,2021-02-24_09h47.09.766,exp11,2020.2.6,Win32,60,IwAR1JSyvdpIcOguLQdSaBvh_tHMwMwg8djfGEDSmCfSurgZOM_Ahdduy9SpM,,,,,,,,,,,
,,,,,,,,,,,,,,a,1,0.63974,space,0.318305,0,1,1,142,1,0_targ_4_dist_red/trial18.png,,,0,4,redHorizontal,a,27,30,,2021-02-24_09h47.09.766,exp11,2020.2.6,Win32,60,IwAR1JSyvdpIcOguLQdSaBvh_tHMwMwg8djfGEDSmCfSurgZOM_Ahdduy9SpM,,,,,,,,,,,
,,,,,,,,,,,,,,p,1,0.471505,space,0.448955,0,2,2,18,1,0_dist_red/trial19.png,,,1,0,redHorizontal,p,27,30,,2021-02-24_09h47.09.766,exp11,2020.2.6,Win32,60,IwAR1JSyvdpIcOguLQdSaBvh_tHMwMwg8djfGEDSmCfSurgZOM_Ahdduy9SpM,,,,,,,,,,,
,,,,,,,,,,,,,,a,1,0.64647,space,0.35136,0,3,3,155,1,0_targ_10_dist_red/trial6.png,,,0,10,redHorizontal,a,27,30,,2021-02-24_09h47.09.766,exp11,2020.2.6,Win32,60,IwAR1JSyvdpIcOguLQdSaBvh_tHMwMwg8djfGEDSmCfSurgZOM_Ahdduy9SpM,,,,,,,,,,,
,,,,,,,,,,,,,,p,1,0.612115,space,0.266685,0,4,4,57,1,9_dist_red/trial8.png,,,1,9,redHorizontal,p,27,30,,2021-02-24_09h47.09.766,exp11,2020.2.6,Win32,60,IwAR1JSyvdpIcOguLQdSaBvh_tHMwMwg8djfGEDSmCfSurgZOM_Ahdduy9SpM,,,,,,,,,,,
,,,,,,,,,,,,,,a,1,0.80205,space,0.27549,0,5,5,129,1,0_targ_4_dist_red/trial5.png,,,0,4,redHorizontal,a,27,30,,2021-02-24_09h47.09.766,exp11,2020.2.6,Win32,60,IwAR1JSyvdpIcOguLQdSaBvh_tHMwMwg8djfGEDSmCfSurgZOM_Ahdduy9SpM,,,,,,,,,,,
,,,,,,,,,,,,,,a,1,0.50205,space,0.354355,0,6,6,101,1,0_targ_1_dist_red/trial2.png,,,0,1,redHorizontal,a,27,30,,2021-02-24_09h47.09.766,exp11,2020.2.6,Win32,60,IwAR1JSyvdpIcOguLQdSaBvh_tHMwMwg8djfGEDSmCfSurgZOM_Ahdduy9SpM,,,,,,,,,,,
,,,,,,,,,,,,,,a,1,0.57557,space,0.263015,0,7,7,181,1,0_targ_16_dist_red/trial7.png,,,0,16,redHorizontal,a,27,30,,2021-02-24_09h47.09.766,exp11,2020.2.6,Win32,60,IwAR1JSyvdpIcOguLQdSaBvh_tHMwMwg8djfGEDSmCfSurgZOM_Ahdduy9SpM,,,,,,,,,,,
,,,,,,,,,,,,,,a,1,0.4994,space,0.239045,0,8,8,170,1,0_targ_10_dist_red/trial21.png,,,0,10,redHorizontal,a,27,30,,2021-02-24_09h47.09.766,exp11,2020.2.6,Win32,60,IwAR1JSyvdpIcOguLQdSaBvh_tHMwMwg8djfGEDSmCfSurgZOM_Ahdduy9SpM,,,,,,,,,,,
,,,,,,,,,,,,,,a,1,0.434655,space,0.35362,0,9,9,125,1,0_targ_4_dist_red/trial1.png,,,0,4,redHorizontal,a,27,30,,2021-02-24_09h47.09.766,exp11,2020.2.6,Win32,60,IwAR1JSyvdpIcOguLQdSaBvh_tHMwMwg8djfGEDSmCfSurgZOM_Ahdduy9SpM,,,,,,,,,,,
,,,,,,,,,,,,,,a,1,0.46828,space,0.54524,0,10,10,114,1,0_targ_1_dist_red/trial15.png,,,0,1,redHorizontal,a,27,30,,2021-02-24_09h47.09.766,exp11,2020.2.6,Win32,60,IwAR1JSyvdpIcOguLQdSaBvh_tHMwMwg8djfGEDSmCfSurgZOM_Ahdduy9SpM,,,,,,,,,,,
,,,,,,,,,,,,,,p,1,0.489535,space,0.17124,0,11,11,16,1,0_dist_red/trial17.png,,,1,0,redHorizontal,p,27,30,,2021-02-24_09h47.09.766,exp11,2020.2.6,Win32,60,IwAR1JSyvdpIcOguLQdSaBvh_tHMwMwg8djfGEDSmCfSurgZOM_Ahdduy9SpM,,,,,,,,,,,
,,,,,,,,,,,,,,a,0,0.548195,space,1.4868,0,12,12,55,1,9_dist_red/trial6.png,,,1,9,redHorizontal,p,27,30,,2021-02-24_09h47.09.766,exp11,2020.2.6,Win32,60,IwAR1JSyvdpIcOguLQdSaBvh_tHMwMwg8djfGEDSmCfSurgZOM_Ahdduy9SpM,,,,,,,,,,,
,,,,,,,,,,,,,,a,1,1.492785,space,0.19886,0,13,13,148,1,0_targ_4_dist_red/trial24.png,,,0,4,redHorizontal,a,27,30,,2021-02-24_09h47.09.766,exp11,2020.2.6,Win32,60,IwAR1JSyvdpIcOguLQdSaBvh_tHMwMwg8djfGEDSmCfSurgZOM_Ahdduy9SpM,,,,,,,,,,,
,,,,,,,,,,,,,,p,1,0.718085,space,0.213695,0,14,14,20,1,0_dist_red/trial21.png,,,1,0,redHorizontal,p,27,30,,2021-02-24_09h47.09.766,exp11,2020.2.6,Win32,60,IwAR1JSyvdpIcOguLQdSaBvh_tHMwMwg8djfGEDSmCfSurgZOM_Ahdduy9SpM,,,,,,,,,,,
,,,,,,,,,,,,,,a,1,0.73369,space,0.19148,0,15,15,183,1,0_targ_16_dist_red/trial9.png,,,0,16,redHorizontal,a,27,30,,2021-02-24_09h47.09.766,exp11,2020.2.6,Win32,60,IwAR1JSyvdpIcOguLQdSaBvh_tHMwMwg8djfGEDSmCfSurgZOM_Ahdduy9SpM,,,,,,,,,,,
,,,,,,,,,,,,,,a,1,0.468135,space,0.242765,0,16,16,164,1,0_targ_10_dist_red/trial15.png,,,0,10,redHorizontal,a,27,30,,2021-02-24_09h47.09.766,exp11,2020.2.6,Win32,60,IwAR1JSyvdpIcOguLQdSaBvh_tHMwMwg8djfGEDSmCfSurgZOM_Ahdduy9SpM,,,,,,,,,,,
,,,,,,,,,,,,,,a,1,0.72164,space,0.23274,0,17,17,141,1,0_targ_4_dist_red/trial17.png,,,0,4,redHorizontal,a,27,30,,2021-02-24_09h47.09.766,exp11,2020.2.6,Win32,60,IwAR1JSyvdpIcOguLQdSaBvh_tHMwMwg8djfGEDSmCfSurgZOM_Ahdduy9SpM,,,,,,,,,,,
,,,,,,,,,,,,,,a,1,0.54511,space,0.23458,0,18,18,117,1,0_targ_1_dist_red/trial18.png,,,0,1,redHorizontal,a,27,30,,2021-02-24_09h47.09.766,exp11,2020.2.6,Win32,60,IwAR1JSyvdpIcOguLQdSaBvh_tHMwMwg8djfGEDSmCfSurgZOM_Ahdduy9SpM,,,,,,,,,,,
,,,,,,,,,,,,,,a,1,0.52076,space,0.33971,0,19,19,167,1,0_targ_10_dist_red/trial18.png,,,0,10,redHorizontal,a,27,30,,2021-02-24_09h47.09.766,exp11,2020.2.6,Win32,60,IwAR1JSyvdpIcOguLQdSaBvh_tHMwMwg8djfGEDSmCfSurgZOM_Ahdduy9SpM,,,,,,,,,,,
,,,,,,,,,,,,,,a,0,0.413985,space,0.682465,0,20,20,9,1,0_dist_red/trial10.png,,,1,0,redHorizontal,p,27,30,,2021-02-24_09h47.09.766,exp11,2020.2.6,Win32,60,IwAR1JSyvdpIcOguLQdSaBvh_tHMwMwg8djfGEDSmCfSurgZOM_Ahdduy9SpM,,,,,,,,,,,
,,,,,,,,,,,,,,p,1,1.090625,space,0.32264,0,21,21,1,1,0_dist_red/trial2.png,,,1,0,redHorizontal,p,27,30,,2021-02-24_09h47.09.766,exp11,2020.2.6,Win32,60,IwAR1JSyvdpIcOguLQdSaBvh_tHMwMwg8djfGEDSmCfSurgZOM_Ahdduy9SpM,,,,,,,,,,,
,,,,,,,,,,,,,,p,1,0.595835,space,0.185705,0,22,22,70,1,9_dist_red/trial21.png,,,1,9,redHorizontal,p,27,30,,2021-02-24_09h47.09.766,exp11,2020.2.6,Win32,60,IwAR1JSyvdpIcOguLQdSaBvh_tHMwMwg8djfGEDSmCfSurgZOM_Ahdduy9SpM,,,,,,,,,,,
,,,,,,,,,,,,,,p,1,0.48163,space,0.192875,0,23,23,65,1,9_dist_red/trial16.png,,,1,9,redHorizontal,p,27,30,,2021-02-24_09h47.09.766,exp11,2020.2.6,Win32,60,IwAR1JSyvdpIcOguLQdSaBvh_tHMwMwg8djfGEDSmCfSurgZOM_Ahdduy9SpM,,,,,,,,,,,
,,,,,,,,,,,,,,p,1,0.501125,space,0.20163,0,24,24,47,1,3_dist_red/trial23.png,,,1,3,redHorizontal,p,27,30,,2021-02-24_09h47.09.766,exp11,2020.2.6,Win32,60,IwAR1JSyvdpIcOguLQdSaBvh_tHMwMwg8djfGEDSmCfSurgZOM_Ahdduy9SpM,,,,,,,,,,,
,,,,,,,,,,,,,,p,1,0.472315,space,0.205945,0,25,25,0,1,0_dist_red/trial1.png,,,1,0,redHorizontal,p,27,30,,2021-02-24_09h47.09.766,exp11,2020.2.6,Win32,60,IwAR1JSyvdpIcOguLQdSaBvh_tHMwMwg8djfGEDSmCfSurgZOM_Ahdduy9SpM,,,,,,,,,,,
,,,,,,,,,,,,,,a,0,0.70181,space,0.15773,0,26,26,81,1,15_dist_red/trial7.png,,,1,15,redHorizontal,p,27,30,,2021-02-24_09h47.09.766,exp11,2020.2.6,Win32,60,IwAR1JSyvdpIcOguLQdSaBvh_tHMwMwg8djfGEDSmCfSurgZOM_Ahdduy9SpM,,,,,,,,,,,
,,,,,,,,,,,,,,a,1,1.109315,space,0.312345,0,27,27,187,1,0_targ_16_dist_red/trial13.png,,,0,16,redHorizontal,a,27,30,,2021-02-24_09h47.09.766,exp11,2020.2.6,Win32,60,IwAR1JSyvdpIcOguLQdSaBvh_tHMwMwg8djfGEDSmCfSurgZOM_Ahdduy9SpM,,,,,,,,,,,
,,,,,,,,,,,,,,a,1,0.5642,space,0.23542,0,28,28,111,1,0_targ_1_dist_red/trial12.png,,,0,1,redHorizontal,a,27,30,,2021-02-24_09h47.09.766,exp11,2020.2.6,Win32,60,IwAR1JSyvdpIcOguLQdSaBvh_tHMwMwg8djfGEDSmCfSurgZOM_Ahdduy9SpM,,,,,,,,,,,
,,,,,,,,,,,,,,a,1,0.619665,space,0.21851,0,29,29,157,1,0_targ_10_dist_red/trial8.png,,,0,10,redHorizontal,a,27,30,,2021-02-24_09h47.09.766,exp11,2020.2.6,Win32,60,IwAR1JSyvdpIcOguLQdSaBvh_tHMwMwg8djfGEDSmCfSurgZOM_Ahdduy9SpM,,,,,,,,,,,
,,,,,,,,,,,,,,a,1,0.623695,space,0.29807,0,30,30,180,1,0_targ_16_dist_red/trial6.png,,,0,16,redHorizontal,a,27,30,,2021-02-24_09h47.09.766,exp11,2020.2.6,Win32,60,IwAR1JSyvdpIcOguLQdSaBvh_tHMwMwg8djfGEDSmCfSurgZOM_Ahdduy9SpM,,,,,,,,,,,
,,,,,,,,,,,,,,a,1,0.499805,space,0.385595,0,31,31,166,1,0_targ_10_dist_red/trial17.png,,,0,10,redHorizontal,a,27,30,,2021-02-24_09h47.09.766,exp11,2020.2.6,Win32,60,IwAR1JSyvdpIcOguLQdSaBvh_tHMwMwg8djfGEDSmCfSurgZOM_Ahdduy9SpM,,,,,,,,,,,
,,,,,,,,,,,,,,a,1,0.531315,space,0.273935,0,32,32,116,1,0_targ_1_dist_red/trial17.png,,,0,1,redHorizontal,a,27,30,,2021-02-24_09h47.09.766,exp11,2020.2.6,Win32,60,IwAR1JSyvdpIcOguLQdSaBvh_tHMwMwg8djfGEDSmCfSurgZOM_Ahdduy9SpM,,,,,,,,,,,
,,,,,,,,,,,,,,a,0,0.4908,space,3.887875,0,33,33,69,1,9_dist_red/trial20.png,,,1,9,redHorizontal,p,27,30,,2021-02-24_09h47.09.766,exp11,2020.2.6,Win32,60,IwAR1JSyvdpIcOguLQdSaBvh_tHMwMwg8djfGEDSmCfSurgZOM_Ahdduy9SpM,,,,,,,,,,,
,,,,,,,,,,,,,,p,1,1.358335,space,0.351635,0,34,34,30,1,3_dist_red/trial6.png,,,1,3,redHorizontal,p,27,30,,2021-02-24_09h47.09.766,exp11,2020.2.6,Win32,60,IwAR1JSyvdpIcOguLQdSaBvh_tHMwMwg8djfGEDSmCfSurgZOM_Ahdduy9SpM,,,,,,,,,,,
,,,,,,,,,,,,,,a,1,0.731885,space,0.266285,0,35,35,134,1,0_targ_4_dist_red/trial10.png,,,0,4,redHorizontal,a,27,30,,2021-02-24_09h47.09.766,exp11,2020.2.6,Win32,60,IwAR1JSyvdpIcOguLQdSaBvh_tHMwMwg8djfGEDSmCfSurgZOM_Ahdduy9SpM,,,,,,,,,,,
,,,,,,,,,,,,,,p,1,0.917395,space,0.255575,0,36,36,64,1,9_dist_red/trial15.png,,,1,9,redHorizontal,p,27,30,,2021-02-24_09h47.09.766,exp11,2020.2.6,Win32,60,IwAR1JSyvdpIcOguLQdSaBvh_tHMwMwg8djfGEDSmCfSurgZOM_Ahdduy9SpM,,,,,,,,,,,
,,,,,,,,,,,,,,p,1,1.1027,space,0.32262,0,37,37,79,1,15_dist_red/trial5.png,,,1,15,redHorizontal,p,27,30,,2021-02-24_09h47.09.766,exp11,2020.2.6,Win32,60,IwAR1JSyvdpIcOguLQdSaBvh_tHMwMwg8djfGEDSmCfSurgZOM_Ahdduy9SpM,,,,,,,,,,,
,,,,,,,,,,,,,,a,1,4.487225,space,0.27237,0,38,38,197,1,0_targ_16_dist_red/trial23.png,,,0,16,redHorizontal,a,27,30,,2021-02-24_09h47.09.766,exp11,2020.2.6,Win32,60,IwAR1JSyvdpIcOguLQdSaBvh_tHMwMwg8djfGEDSmCfSurgZOM_Ahdduy9SpM,,,,,,,,,,,
,,,,,,,,,,,,,,a,1,0.60246,space,0.336235,0,39,39,149,1,0_targ_4_dist_red/trial25.png,,,0,4,redHorizontal,a,27,30,,2021-02-24_09h47.09.766,exp11,2020.2.6,Win32,60,IwAR1JSyvdpIcOguLQdSaBvh_tHMwMwg8djfGEDSmCfSurgZOM_Ahdduy9SpM,,,,,,,,,,,
,,,,,,,,,,,,,,p,1,0.69263,space,0.288095,0,40,40,83,1,15_dist_red/trial9.png,,,1,15,redHorizontal,p,27,30,,2021-02-24_09h47.09.766,exp11,2020.2.6,Win32,60,IwAR1JSyvdpIcOguLQdSaBvh_tHMwMwg8djfGEDSmCfSurgZOM_Ahdduy9SpM,,,,,,,,,,,
,,,,,,,,,,,,,,p,1,0.79286,space,0.25538,0,41,41,31,1,3_dist_red/trial7.png,,,1,3,redHorizontal,p,27,30,,2021-02-24_09h47.09.766,exp11,2020.2.6,Win32,60,IwAR1JSyvdpIcOguLQdSaBvh_tHMwMwg8djfGEDSmCfSurgZOM_Ahdduy9SpM,,,,,,,,,,,
,,,,,,,,,,,,,,p,1,2.818705,space,0.24319,0,42,42,78,1,15_dist_red/trial4.png,,,1,15,redHorizontal,p,27,30,,2021-02-24_09h47.09.766,exp11,2020.2.6,Win32,60,IwAR1JSyvdpIcOguLQdSaBvh_tHMwMwg8djfGEDSmCfSurgZOM_Ahdduy9SpM,,,,,,,,,,,
,,,,,,,,,,,,,,p,1,0.707535,space,0.353285,0,43,43,36,1,3_dist_red/trial12.png,,,1,3,redHorizontal,p,27,30,,2021-02-24_09h47.09.766,exp11,2020.2.6,Win32,60,IwAR1JSyvdpIcOguLQdSaBvh_tHMwMwg8djfGEDSmCfSurgZOM_Ahdduy9SpM,,,,,,,,,,,
,,,,,,,,,,,,,,a,1,1.031,space,0.35148,0,44,44,128,1,0_targ_4_dist_red/trial4.png,,,0,4,redHorizontal,a,27,30,,2021-02-24_09h47.09.766,exp11,2020.2.6,Win32,60,IwAR1JSyvdpIcOguLQdSaBvh_tHMwMwg8djfGEDSmCfSurgZOM_Ahdduy9SpM,,,,,,,,,,,
,,,,,,,,,,,,,,a,1,0.64446,space,0.400605,0,45,45,190,1,0_targ_16_dist_red/trial16.png,,,0,16,redHorizontal,a,27,30,,2021-02-24_09h47.09.766,exp11,2020.2.6,Win32,60,IwAR1JSyvdpIcOguLQdSaBvh_tHMwMwg8djfGEDSmCfSurgZOM_Ahdduy9SpM,,,,,,,,,,,
,,,,,,,,,,,,,,a,1,0.790845,space,0.293105,0,46,46,133,1,0_targ_4_dist_red/trial9.png,,,0,4,redHorizontal,a,27,30,,2021-02-24_09h47.09.766,exp11,2020.2.6,Win32,60,IwAR1JSyvdpIcOguLQdSaBvh_tHMwMwg8djfGEDSmCfSurgZOM_Ahdduy9SpM,,,,,,,,,,,
,,,,,,,,,,,,,,a,1,0.95802,space,0.21613,0,47,47,165,1,0_targ_10_dist_red/trial16.png,,,0,10,redHorizontal,a,27,30,,2021-02-24_09h47.09.766,exp11,2020.2.6,Win32,60,IwAR1JSyvdpIcOguLQdSaBvh_tHMwMwg8djfGEDSmCfSurgZOM_Ahdduy9SpM,,,,,,,,,,,
,,,,,,,,,,,,,,a,1,0.68913,space,0.338775,0,48,48,158,1,0_targ_10_dist_red/trial9.png,,,0,10,redHorizontal,a,27,30,,2021-02-24_09h47.09.766,exp11,2020.2.6,Win32,60,IwAR1JSyvdpIcOguLQdSaBvh_tHMwMwg8djfGEDSmCfSurgZOM_Ahdduy9SpM,,,,,,,,,,,
,,,,,,,,,,,,,,a,0,0.505315,space,0.60549,0,49,49,24,1,0_dist_red/trial25.png,,,1,0,redHorizontal,p,27,30,,2021-02-24_09h47.09.766,exp11,2020.2.6,Win32,60,IwAR1JSyvdpIcOguLQdSaBvh_tHMwMwg8djfGEDSmCfSurgZOM_Ahdduy9SpM,,,,,,,,,,,
,,,,,,,,,,,,,,p,1,0.916775,space,0.170565,0,50,50,40,1,3_dist_red/trial16.png,,,1,3,redHorizontal,p,27,30,,2021-02-24_09h47.09.766,exp11,2020.2.6,Win32,60,IwAR1JSyvdpIcOguLQdSaBvh_tHMwMwg8djfGEDSmCfSurgZOM_Ahdduy9SpM,,,,,,,,,,,
,,,,,,,,,,,,,,p,1,0.78425,space,0.173645,0,51,51,92,1,15_dist_red/trial18.png,,,1,15,redHorizontal,p,27,30,,2021-02-24_09h47.09.766,exp11,2020.2.6,Win32,60,IwAR1JSyvdpIcOguLQdSaBvh_tHMwMwg8djfGEDSmCfSurgZOM_Ahdduy9SpM,,,,,,,,,,,
,,,,,,,,,,,,,,a,1,0.798575,space,0.36277,0,52,52,118,1,0_targ_1_dist_red/trial19.png,,,0,1,redHorizontal,a,27,30,,2021-02-24_09h47.09.766,exp11,2020.2.6,Win32,60,IwAR1JSyvdpIcOguLQdSaBvh_tHMwMwg8djfGEDSmCfSurgZOM_Ahdduy9SpM,,,,,,,,,,,
,,,,,,,,,,,,,,p,1,0.657015,space,0.18732,0,53,53,68,1,9_dist_red/trial19.png,,,1,9,redHorizontal,p,27,30,,2021-02-24_09h47.09.766,exp11,2020.2.6,Win32,60,IwAR1JSyvdpIcOguLQdSaBvh_tHMwMwg8djfGEDSmCfSurgZOM_Ahdduy9SpM,,,,,,,,,,,
,,,,,,,,,,,,,,a,1,1.09379,space,0.20129,0,54,54,151,1,0_targ_10_dist_red/trial2.png,,,0,10,redHorizontal,a,27,30,,2021-02-24_09h47.09.766,exp11,2020.2.6,Win32,60,IwAR1JSyvdpIcOguLQdSaBvh_tHMwMwg8djfGEDSmCfSurgZOM_Ahdduy9SpM,,,,,,,,,,,
,,,,,,,,,,,,,,a,1,0.564885,space,0.277595,0,55,55,146,1,0_targ_4_dist_red/trial22.png,,,0,4,redHorizontal,a,27,30,,2021-02-24_09h47.09.766,exp11,2020.2.6,Win32,60,IwAR1JSyvdpIcOguLQdSaBvh_tHMwMwg8djfGEDSmCfSurgZOM_Ahdduy9SpM,,,,,,,,,,,
,,,,,,,,,,,,,,a,0,0.558985,space,0.166545,0,56,56,49,1,3_dist_red/trial25.png,,,1,3,redHorizontal,p,27,30,,2021-02-24_09h47.09.766,exp11,2020.2.6,Win32,60,IwAR1JSyvdpIcOguLQdSaBvh_tHMwMwg8djfGEDSmCfSurgZOM_Ahdduy9SpM,,,,,,,,,,,
,,,,,,,,,,,,,,p,1,0.85868,space,0.201455,0,57,57,50,1,9_dist_red/trial1.png,,,1,9,redHorizontal,p,27,30,,2021-02-24_09h47.09.766,exp11,2020.2.6,Win32,60,IwAR1JSyvdpIcOguLQdSaBvh_tHMwMwg8djfGEDSmCfSurgZOM_Ahdduy9SpM,,,,,,,,,,,
,,,,,,,,,,,,,,a,1,0.90111,space,0.3856,0,58,58,113,1,0_targ_1_dist_red/trial14.png,,,0,1,redHorizontal,a,27,30,,2021-02-24_09h47.09.766,exp11,2020.2.6,Win32,60,IwAR1JSyvdpIcOguLQdSaBvh_tHMwMwg8djfGEDSmCfSurgZOM_Ahdduy9SpM,,,,,,,,,,,
,,,,,,,,,,,,,,a,1,1.13237,space,0.31572,0,59,59,147,1,0_targ_4_dist_red/trial23.png,,,0,4,redHorizontal,a,27,30,,2021-02-24_09h47.09.766,exp11,2020.2.6,Win32,60,IwAR1JSyvdpIcOguLQdSaBvh_tHMwMwg8djfGEDSmCfSurgZOM_Ahdduy9SpM,,,,,,,,,,,
,,,,,,,,,,,,,,p,1,0.613955,space,0.28699,0,60,60,5,1,0_dist_red/trial6.png,,,1,0,redHorizontal,p,27,30,,2021-02-24_09h47.09.766,exp11,2020.2.6,Win32,60,IwAR1JSyvdpIcOguLQdSaBvh_tHMwMwg8djfGEDSmCfSurgZOM_Ahdduy9SpM,,,,,,,,,,,
,,,,,,,,,,,,,,p,1,0.67544,space,0.29254,0,61,61,32,1,3_dist_red/trial8.png,,,1,3,redHorizontal,p,27,30,,2021-02-24_09h47.09.766,exp11,2020.2.6,Win32,60,IwAR1JSyvdpIcOguLQdSaBvh_tHMwMwg8djfGEDSmCfSurgZOM_Ahdduy9SpM,,,,,,,,,,,
,,,,,,,,,,,,,,a,1,0.586965,space,0.30233,0,62,62,152,1,0_targ_10_dist_red/trial3.png,,,0,10,redHorizontal,a,27,30,,2021-02-24_09h47.09.766,exp11,2020.2.6,Win32,60,IwAR1JSyvdpIcOguLQdSaBvh_tHMwMwg8djfGEDSmCfSurgZOM_Ahdduy9SpM,,,,,,,,,,,
,,,,,,,,,,,,,,a,1,2.767105,space,0.52427,0,63,63,198,1,0_targ_16_dist_red/trial24.png,,,0,16,redHorizontal,a,27,30,,2021-02-24_09h47.09.766,exp11,2020.2.6,Win32,60,IwAR1JSyvdpIcOguLQdSaBvh_tHMwMwg8djfGEDSmCfSurgZOM_Ahdduy9SpM,,,,,,,,,,,
,,,,,,,,,,,,,,a,1,0.594335,space,0.2834,0,64,64,124,1,0_targ_1_dist_red/trial25.png,,,0,1,redHorizontal,a,27,30,,2021-02-24_09h47.09.766,exp11,2020.2.6,Win32,60,IwAR1JSyvdpIcOguLQdSaBvh_tHMwMwg8djfGEDSmCfSurgZOM_Ahdduy9SpM,,,,,,,,,,,
,,,,,,,,,,,,,,a,1,0.550555,space,0.25379,0,65,65,173,1,0_targ_10_dist_red/trial24.png,,,0,10,redHorizontal,a,27,30,,2021-02-24_09h47.09.766,exp11,2020.2.6,Win32,60,IwAR1JSyvdpIcOguLQdSaBvh_tHMwMwg8djfGEDSmCfSurgZOM_Ahdduy9SpM,,,,,,,,,,,
,,,,,,,,,,,,,,p,1,0.584965,space,0.306145,0,66,66,72,1,9_dist_red/trial23.png,,,1,9,redHorizontal,p,27,30,,2021-02-24_09h47.09.766,exp11,2020.2.6,Win32,60,IwAR1JSyvdpIcOguLQdSaBvh_tHMwMwg8djfGEDSmCfSurgZOM_Ahdduy9SpM,,,,,,,,,,,
,,,,,,,,,,,,,,a,1,1.085865,space,0.218325,0,67,67,137,1,0_targ_4_dist_red/trial13.png,,,0,4,redHorizontal,a,27,30,,2021-02-24_09h47.09.766,exp11,2020.2.6,Win32,60,IwAR1JSyvdpIcOguLQdSaBvh_tHMwMwg8djfGEDSmCfSurgZOM_Ahdduy9SpM,,,,,,,,,,,
,,,,,,,,,,,,,,p,1,0.721115,space,0.22208,0,68,68,44,1,3_dist_red/trial20.png,,,1,3,redHorizontal,p,27,30,,2021-02-24_09h47.09.766,exp11,2020.2.6,Win32,60,IwAR1JSyvdpIcOguLQdSaBvh_tHMwMwg8djfGEDSmCfSurgZOM_Ahdduy9SpM,,,,,,,,,,,
,,,,,,,,,,,,,,a,0,1.439935,space,0.292495,0,69,69,96,1,15_dist_red/trial22.png,,,1,15,redHorizontal,p,27,30,,2021-02-24_09h47.09.766,exp11,2020.2.6,Win32,60,IwAR1JSyvdpIcOguLQdSaBvh_tHMwMwg8djfGEDSmCfSurgZOM_Ahdduy9SpM,,,,,,,,,,,
,,,,,,,,,,,,,,a,1,0.80829,space,0.553765,0,70,70,143,1,0_targ_4_dist_red/trial19.png,,,0,4,redHorizontal,a,27,30,,2021-02-24_09h47.09.766,exp11,2020.2.6,Win32,60,IwAR1JSyvdpIcOguLQdSaBvh_tHMwMwg8djfGEDSmCfSurgZOM_Ahdduy9SpM,,,,,,,,,,,
,,,,,,,,,,,,,,p,1,0.67276,space,0.25701,0,71,71,91,1,15_dist_red/trial17.png,,,1,15,redHorizontal,p,27,30,,2021-02-24_09h47.09.766,exp11,2020.2.6,Win32,60,IwAR1JSyvdpIcOguLQdSaBvh_tHMwMwg8djfGEDSmCfSurgZOM_Ahdduy9SpM,,,,,,,,,,,
,,,,,,,,,,,,,,a,1,1.13964,space,0.38318,0,72,72,179,1,0_targ_16_dist_red/trial5.png,,,0,16,redHorizontal,a,27,30,,2021-02-24_09h47.09.766,exp11,2020.2.6,Win32,60,IwAR1JSyvdpIcOguLQdSaBvh_tHMwMwg8djfGEDSmCfSurgZOM_Ahdduy9SpM,,,,,,,,,,,
,,,,,,,,,,,,,,p,1,0.64094,space,0.2562,0,73,73,21,1,0_dist_red/trial22.png,,,1,0,redHorizontal,p,27,30,,2021-02-24_09h47.09.766,exp11,2020.2.6,Win32,60,IwAR1JSyvdpIcOguLQdSaBvh_tHMwMwg8djfGEDSmCfSurgZOM_Ahdduy9SpM,,,,,,,,,,,
,,,,,,,,,,,,,,p,0,0.613575,space,0.436395,0,74,74,103,1,0_targ_1_dist_red/trial4.png,,,0,1,redHorizontal,a,27,30,,2021-02-24_09h47.09.766,exp11,2020.2.6,Win32,60,IwAR1JSyvdpIcOguLQdSaBvh_tHMwMwg8djfGEDSmCfSurgZOM_Ahdduy9SpM,,,,,,,,,,,
,,,,,,,,,,,,,,p,1,0.68269,space,0.45979,0,75,75,28,1,3_dist_red/trial4.png,,,1,3,redHorizontal,p,27,30,,2021-02-24_09h47.09.766,exp11,2020.2.6,Win32,60,IwAR1JSyvdpIcOguLQdSaBvh_tHMwMwg8djfGEDSmCfSurgZOM_Ahdduy9SpM,,,,,,,,,,,
,,,,,,,,,,,,,,a,1,0.810665,space,0.301565,0,76,76,110,1,0_targ_1_dist_red/trial11.png,,,0,1,redHorizontal,a,27,30,,2021-02-24_09h47.09.766,exp11,2020.2.6,Win32,60,IwAR1JSyvdpIcOguLQdSaBvh_tHMwMwg8djfGEDSmCfSurgZOM_Ahdduy9SpM,,,,,,,,,,,
,,,,,,,,,,,,,,p,1,0.65817,space,0.28351,0,77,77,93,1,15_dist_red/trial19.png,,,1,15,redHorizontal,p,27,30,,2021-02-24_09h47.09.766,exp11,2020.2.6,Win32,60,IwAR1JSyvdpIcOguLQdSaBvh_tHMwMwg8djfGEDSmCfSurgZOM_Ahdduy9SpM,,,,,,,,,,,
,,,,,,,,,,,,,,a,1,0.87388,space,0.31985,0,78,78,160,1,0_targ_10_dist_red/trial11.png,,,0,10,redHorizontal,a,27,30,,2021-02-24_09h47.09.766,exp11,2020.2.6,Win32,60,IwAR1JSyvdpIcOguLQdSaBvh_tHMwMwg8djfGEDSmCfSurgZOM_Ahdduy9SpM,,,,,,,,,,,
,,,,,,,,,,,,,,p,1,0.66892,space,0.28136,0,79,79,6,1,0_dist_red/trial7.png,,,1,0,redHorizontal,p,27,30,,2021-02-24_09h47.09.766,exp11,2020.2.6,Win32,60,IwAR1JSyvdpIcOguLQdSaBvh_tHMwMwg8djfGEDSmCfSurgZOM_Ahdduy9SpM,,,,,,,,,,,
,,,,,,,,,,,,,,p,1,0.56944,space,0.26747,0,80,80,13,1,0_dist_red/trial14.png,,,1,0,redHorizontal,p,27,30,,2021-02-24_09h47.09.766,exp11,2020.2.6,Win32,60,IwAR1JSyvdpIcOguLQdSaBvh_tHMwMwg8djfGEDSmCfSurgZOM_Ahdduy9SpM,,,,,,,,,,,
,,,,,,,,,,,,,,a,1,0.83463,space,0.273195,0,81,81,199,1,0_targ_16_dist_red/trial25.png,,,0,16,redHorizontal,a,27,30,,2021-02-24_09h47.09.766,exp11,2020.2.6,Win32,60,IwAR1JSyvdpIcOguLQdSaBvh_tHMwMwg8djfGEDSmCfSurgZOM_Ahdduy9SpM,,,,,,,,,,,
,,,,,,,,,,,,,,a,1,0.90987,space,0.27839,0,82,82,112,1,0_targ_1_dist_red/trial13.png,,,0,1,redHorizontal,a,27,30,,2021-02-24_09h47.09.766,exp11,2020.2.6,Win32,60,IwAR1JSyvdpIcOguLQdSaBvh_tHMwMwg8djfGEDSmCfSurgZOM_Ahdduy9SpM,,,,,,,,,,,
,,,,,,,,,,,,,,a,1,0.95604,space,0.253305,0,83,83,122,1,0_targ_1_dist_red/trial23.png,,,0,1,redHorizontal,a,27,30,,2021-02-24_09h47.09.766,exp11,2020.2.6,Win32,60,IwAR1JSyvdpIcOguLQdSaBvh_tHMwMwg8djfGEDSmCfSurgZOM_Ahdduy9SpM,,,,,,,,,,,
,,,,,,,,,,,,,,a,1,0.77669,space,0.292595,0,84,84,185,1,0_targ_16_dist_red/trial11.png,,,0,16,redHorizontal,a,27,30,,2021-02-24_09h47.09.766,exp11,2020.2.6,Win32,60,IwAR1JSyvdpIcOguLQdSaBvh_tHMwMwg8djfGEDSmCfSurgZOM_Ahdduy9SpM,,,,,,,,,,,
,,,,,,,,,,,,,,a,1,0.65755,space,0.285695,0,85,85,119,1,0_targ_1_dist_red/trial20.png,,,0,1,redHorizontal,a,27,30,,2021-02-24_09h47.09.766,exp11,2020.2.6,Win32,60,IwAR1JSyvdpIcOguLQdSaBvh_tHMwMwg8djfGEDSmCfSurgZOM_Ahdduy9SpM,,,,,,,,,,,
,,,,,,,,,,,,,,p,1,0.89433,space,0.28169,0,86,86,90,1,15_dist_red/trial16.png,,,1,15,redHorizontal,p,27,30,,2021-02-24_09h47.09.766,exp11,2020.2.6,Win32,60,IwAR1JSyvdpIcOguLQdSaBvh_tHMwMwg8djfGEDSmCfSurgZOM_Ahdduy9SpM,,,,,,,,,,,
,,,,,,,,,,,,,,a,1,0.65431,space,0.318155,0,87,87,195,1,0_targ_16_dist_red/trial21.png,,,0,16,redHorizontal,a,27,30,,2021-02-24_09h47.09.766,exp11,2020.2.6,Win32,60,IwAR1JSyvdpIcOguLQdSaBvh_tHMwMwg8djfGEDSmCfSurgZOM_Ahdduy9SpM,,,,,,,,,,,
,,,,,,,,,,,,,,a,1,0.725225,space,0.51945,0,88,88,189,1,0_targ_16_dist_red/trial15.png,,,0,16,redHorizontal,a,27,30,,2021-02-24_09h47.09.766,exp11,2020.2.6,Win32,60,IwAR1JSyvdpIcOguLQdSaBvh_tHMwMwg8djfGEDSmCfSurgZOM_Ahdduy9SpM,,,,,,,,,,,
,,,,,,,,,,,,,,a,1,0.90993,space,0.4117,0,89,89,192,1,0_targ_16_dist_red/trial18.png,,,0,16,redHorizontal,a,27,30,,2021-02-24_09h47.09.766,exp11,2020.2.6,Win32,60,IwAR1JSyvdpIcOguLQdSaBvh_tHMwMwg8djfGEDSmCfSurgZOM_Ahdduy9SpM,,,,,,,,,,,
,,,,,,,,,,,,,,a,1,0.70457,space,0.20204,0,90,90,140,1,0_targ_4_dist_red/trial6.png,,,0,4,redHorizontal,a,27,30,,2021-02-24_09h47.09.766,exp11,2020.2.6,Win32,60,IwAR1JSyvdpIcOguLQdSaBvh_tHMwMwg8djfGEDSmCfSurgZOM_Ahdduy9SpM,,,,,,,,,,,
,,,,,,,,,,,,,,p,1,0.55421,space,0.238745,0,91,91,61,1,9_dist_red/trial12.png,,,1,9,redHorizontal,p,27,30,,2021-02-24_09h47.09.766,exp11,2020.2.6,Win32,60,IwAR1JSyvdpIcOguLQdSaBvh_tHMwMwg8djfGEDSmCfSurgZOM_Ahdduy9SpM,,,,,,,,,,,
,,,,,,,,,,,,,,a,0,0.87589,space,0.676665,0,92,92,74,1,9_dist_red/trial25.png,,,1,9,redHorizontal,p,27,30,,2021-02-24_09h47.09.766,exp11,2020.2.6,Win32,60,IwAR1JSyvdpIcOguLQdSaBvh_tHMwMwg8djfGEDSmCfSurgZOM_Ahdduy9SpM,,,,,,,,,,,
,,,,,,,,,,,,,,p,1,1.078415,space,0.26758,0,93,93,86,1,15_dist_red/trial12.png,,,1,15,redHorizontal,p,27,30,,2021-02-24_09h47.09.766,exp11,2020.2.6,Win32,60,IwAR1JSyvdpIcOguLQdSaBvh_tHMwMwg8djfGEDSmCfSurgZOM_Ahdduy9SpM,,,,,,,,,,,
,,,,,,,,,,,,,,a,1,0.74573,space,0.287205,0,94,94,123,1,0_targ_1_dist_red/trial24.png,,,0,1,redHorizontal,a,27,30,,2021-02-24_09h47.09.766,exp11,2020.2.6,Win32,60,IwAR1JSyvdpIcOguLQdSaBvh_tHMwMwg8djfGEDSmCfSurgZOM_Ahdduy9SpM,,,,,,,,,,,
,,,,,,,,,,,,,,p,1,0.81799,space,0.289925,0,95,95,98,1,15_dist_red/trial24.png,,,1,15,redHorizontal,p,27,30,,2021-02-24_09h47.09.766,exp11,2020.2.6,Win32,60,IwAR1JSyvdpIcOguLQdSaBvh_tHMwMwg8djfGEDSmCfSurgZOM_Ahdduy9SpM,,,,,,,,,,,
,,,,,,,,,,,,,,p,1,0.733185,space,0.30299,0,96,96,11,1,0_dist_red/trial12.png,,,1,0,redHorizontal,p,27,30,,2021-02-24_09h47.09.766,exp11,2020.2.6,Win32,60,IwAR1JSyvdpIcOguLQdSaBvh_tHMwMwg8djfGEDSmCfSurgZOM_Ahdduy9SpM,,,,,,,,,,,
,,,,,,,,,,,,,,p,1,1.664065,space,0.534895,0,97,97,75,1,15_dist_red/trial1.png,,,1,15,redHorizontal,p,27,30,,2021-02-24_09h47.09.766,exp11,2020.2.6,Win32,60,IwAR1JSyvdpIcOguLQdSaBvh_tHMwMwg8djfGEDSmCfSurgZOM_Ahdduy9SpM,,,,,,,,,,,
,,,,,,,,,,,,,,p,1,0.61887,space,0.367055,0,98,98,66,1,9_dist_red/trial17.png,,,1,9,redHorizontal,p,27,30,,2021-02-24_09h47.09.766,exp11,2020.2.6,Win32,60,IwAR1JSyvdpIcOguLQdSaBvh_tHMwMwg8djfGEDSmCfSurgZOM_Ahdduy9SpM,,,,,,,,,,,
,,,,,,,,,,,,,,a,1,0.922665,space,0.255835,0,99,99,100,1,0_targ_1_dist_red/trial1.png,,,0,1,redHorizontal,a,27,30,,2021-02-24_09h47.09.766,exp11,2020.2.6,Win32,60,IwAR1JSyvdpIcOguLQdSaBvh_tHMwMwg8djfGEDSmCfSurgZOM_Ahdduy9SpM,,,,,,,,,,,
,,,,,,,,,,,,,,a,1,0.48333,space,0.341185,0,100,100,108,1,0_targ_1_dist_red/trial9.png,,,0,1,redHorizontal,a,27,30,,2021-02-24_09h47.09.766,exp11,2020.2.6,Win32,60,IwAR1JSyvdpIcOguLQdSaBvh_tHMwMwg8djfGEDSmCfSurgZOM_Ahdduy9SpM,,,,,,,,,,,
,,,,,,,,,,,,,,p,1,0.62561,space,0.33681,0,101,101,97,1,15_dist_red/trial23.png,,,1,15,redHorizontal,p,27,30,,2021-02-24_09h47.09.766,exp11,2020.2.6,Win32,60,IwAR1JSyvdpIcOguLQdSaBvh_tHMwMwg8djfGEDSmCfSurgZOM_Ahdduy9SpM,,,,,,,,,,,
,,,,,,,,,,,,,,a,1,0.631425,space,0.26505,0,102,102,136,1,0_targ_4_dist_red/trial12.png,,,0,4,redHorizontal,a,27,30,,2021-02-24_09h47.09.766,exp11,2020.2.6,Win32,60,IwAR1JSyvdpIcOguLQdSaBvh_tHMwMwg8djfGEDSmCfSurgZOM_Ahdduy9SpM,,,,,,,,,,,
,,,,,,,,,,,,,,p,1,0.599135,space,0.290505,0,103,103,59,1,9_dist_red/trial10.png,,,1,9,redHorizontal,p,27,30,,2021-02-24_09h47.09.766,exp11,2020.2.6,Win32,60,IwAR1JSyvdpIcOguLQdSaBvh_tHMwMwg8djfGEDSmCfSurgZOM_Ahdduy9SpM,,,,,,,,,,,
,,,,,,,,,,,,,,a,1,0.83759,space,0.372525,0,104,104,156,1,0_targ_10_dist_red/trial7.png,,,0,10,redHorizontal,a,27,30,,2021-02-24_09h47.09.766,exp11,2020.2.6,Win32,60,IwAR1JSyvdpIcOguLQdSaBvh_tHMwMwg8djfGEDSmCfSurgZOM_Ahdduy9SpM,,,,,,,,,,,
,,,,,,,,,,,,,,a,1,0.635705,space,0.231275,0,105,105,130,1,0_targ_4_dist_red/trial6.png,,,0,4,redHorizontal,a,27,30,,2021-02-24_09h47.09.766,exp11,2020.2.6,Win32,60,IwAR1JSyvdpIcOguLQdSaBvh_tHMwMwg8djfGEDSmCfSurgZOM_Ahdduy9SpM,,,,,,,,,,,
,,,,,,,,,,,,,,a,1,0.5738,space,0.271625,0,106,106,169,1,0_targ_10_dist_red/trial20.png,,,0,10,redHorizontal,a,27,30,,2021-02-24_09h47.09.766,exp11,2020.2.6,Win32,60,IwAR1JSyvdpIcOguLQdSaBvh_tHMwMwg8djfGEDSmCfSurgZOM_Ahdduy9SpM,,,,,,,,,,,
,,,,,,,,,,,,,,a,1,0.643275,space,0.29921,0,107,107,153,1,0_targ_10_dist_red/trial4.png,,,0,10,redHorizontal,a,27,30,,2021-02-24_09h47.09.766,exp11,2020.2.6,Win32,60,IwAR1JSyvdpIcOguLQdSaBvh_tHMwMwg8djfGEDSmCfSurgZOM_Ahdduy9SpM,,,,,,,,,,,
,,,,,,,,,,,,,,a,1,0.93012,space,0.201695,0,108,108,127,1,0_targ_4_dist_red/trial3.png,,,0,4,redHorizontal,a,27,30,,2021-02-24_09h47.09.766,exp11,2020.2.6,Win32,60,IwAR1JSyvdpIcOguLQdSaBvh_tHMwMwg8djfGEDSmCfSurgZOM_Ahdduy9SpM,,,,,,,,,,,
,,,,,,,,,,,,,,p,1,0.655435,space,0.256205,0,109,109,88,1,15_dist_red/trial14.png,,,1,15,redHorizontal,p,27,30,,2021-02-24_09h47.09.766,exp11,2020.2.6,Win32,60,IwAR1JSyvdpIcOguLQdSaBvh_tHMwMwg8djfGEDSmCfSurgZOM_Ahdduy9SpM,,,,,,,,,,,
,,,,,,,,,,,,,,a,1,0.617775,space,0.299335,0,110,110,135,1,0_targ_4_dist_red/trial11.png,,,0,4,redHorizontal,a,27,30,,2021-02-24_09h47.09.766,exp11,2020.2.6,Win32,60,IwAR1JSyvdpIcOguLQdSaBvh_tHMwMwg8djfGEDSmCfSurgZOM_Ahdduy9SpM,,,,,,,,,,,
,,,,,,,,,,,,,,a,1,0.566395,space,0.27175,0,111,111,168,1,0_targ_10_dist_red/trial19.png,,,0,10,redHorizontal,a,27,30,,2021-02-24_09h47.09.766,exp11,2020.2.6,Win32,60,IwAR1JSyvdpIcOguLQdSaBvh_tHMwMwg8djfGEDSmCfSurgZOM_Ahdduy9SpM,,,,,,,,,,,
,,,,,,,,,,,,,,a,1,0.557275,space,0.307315,0,112,112,171,1,0_targ_10_dist_red/trial22.png,,,0,10,redHorizontal,a,27,30,,2021-02-24_09h47.09.766,exp11,2020.2.6,Win32,60,IwAR1JSyvdpIcOguLQdSaBvh_tHMwMwg8djfGEDSmCfSurgZOM_Ahdduy9SpM,,,,,,,,,,,
,,,,,,,,,,,,,,p,1,0.628765,space,0.27448,0,113,113,7,1,0_dist_red/trial8.png,,,1,0,redHorizontal,p,27,30,,2021-02-24_09h47.09.766,exp11,2020.2.6,Win32,60,IwAR1JSyvdpIcOguLQdSaBvh_tHMwMwg8djfGEDSmCfSurgZOM_Ahdduy9SpM,,,,,,,,,,,
,,,,,,,,,,,,,,p,1,0.82021,space,0.274295,0,114,114,26,1,3_dist_red/trial2.png,,,1,3,redHorizontal,p,27,30,,2021-02-24_09h47.09.766,exp11,2020.2.6,Win32,60,IwAR1JSyvdpIcOguLQdSaBvh_tHMwMwg8djfGEDSmCfSurgZOM_Ahdduy9SpM,,,,,,,,,,,
,,,,,,,,,,,,,,p,1,0.711735,space,0.27241,0,115,115,62,1,9_dist_red/trial13.png,,,1,9,redHorizontal,p,27,30,,2021-02-24_09h47.09.766,exp11,2020.2.6,Win32,60,IwAR1JSyvdpIcOguLQdSaBvh_tHMwMwg8djfGEDSmCfSurgZOM_Ahdduy9SpM,,,,,,,,,,,
,,,,,,,,,,,,,,p,1,0.83375,space,0.28313,0,116,116,84,1,15_dist_red/trial10.png,,,1,15,redHorizontal,p,27,30,,2021-02-24_09h47.09.766,exp11,2020.2.6,Win32,60,IwAR1JSyvdpIcOguLQdSaBvh_tHMwMwg8djfGEDSmCfSurgZOM_Ahdduy9SpM,,,,,,,,,,,
,,,,,,,,,,,,,,a,1,0.78164,space,0.30183,0,117,117,193,1,0_targ_16_dist_red/trial19.png,,,0,16,redHorizontal,a,27,30,,2021-02-24_09h47.09.766,exp11,2020.2.6,Win32,60,IwAR1JSyvdpIcOguLQdSaBvh_tHMwMwg8djfGEDSmCfSurgZOM_Ahdduy9SpM,,,,,,,,,,,
,,,,,,,,,,,,,,p,1,0.530465,space,0.291895,0,118,118,22,1,0_dist_red/trial23.png,,,1,0,redHorizontal,p,27,30,,2021-02-24_09h47.09.766,exp11,2020.2.6,Win32,60,IwAR1JSyvdpIcOguLQdSaBvh_tHMwMwg8djfGEDSmCfSurgZOM_Ahdduy9SpM,,,,,,,,,,,
,,,,,,,,,,,,,,p,1,0.81224,space,0.25406,0,119,119,99,1,15_dist_red/trial25.png,,,1,15,redHorizontal,p,27,30,,2021-02-24_09h47.09.766,exp11,2020.2.6,Win32,60,IwAR1JSyvdpIcOguLQdSaBvh_tHMwMwg8djfGEDSmCfSurgZOM_Ahdduy9SpM,,,,,,,,,,,
,,,,,,,,,,,,,,p,1,0.629875,space,0.320425,0,120,120,8,1,0_dist_red/trial9.png,,,1,0,redHorizontal,p,27,30,,2021-02-24_09h47.09.766,exp11,2020.2.6,Win32,60,IwAR1JSyvdpIcOguLQdSaBvh_tHMwMwg8djfGEDSmCfSurgZOM_Ahdduy9SpM,,,,,,,,,,,
,,,,,,,,,,,,,,a,1,0.696415,space,0.30633,0,121,121,182,1,0_targ_16_dist_red/trial8.png,,,0,16,redHorizontal,a,27,30,,2021-02-24_09h47.09.766,exp11,2020.2.6,Win32,60,IwAR1JSyvdpIcOguLQdSaBvh_tHMwMwg8djfGEDSmCfSurgZOM_Ahdduy9SpM,,,,,,,,,,,
,,,,,,,,,,,,,,a,1,0.75012,space,0.27379,0,122,122,105,1,0_targ_1_dist_red/trial6.png,,,0,1,redHorizontal,a,27,30,,2021-02-24_09h47.09.766,exp11,2020.2.6,Win32,60,IwAR1JSyvdpIcOguLQdSaBvh_tHMwMwg8djfGEDSmCfSurgZOM_Ahdduy9SpM,,,,,,,,,,,
,,,,,,,,,,,,,,a,1,0.708345,space,0.30901,0,123,123,159,1,0_targ_10_dist_red/trial10.png,,,0,10,redHorizontal,a,27,30,,2021-02-24_09h47.09.766,exp11,2020.2.6,Win32,60,IwAR1JSyvdpIcOguLQdSaBvh_tHMwMwg8djfGEDSmCfSurgZOM_Ahdduy9SpM,,,,,,,,,,,
,,,,,,,,,,,,,,a,1,0.59728,space,0.350925,0,124,124,162,1,0_targ_10_dist_red/trial13.png,,,0,10,redHorizontal,a,27,30,,2021-02-24_09h47.09.766,exp11,2020.2.6,Win32,60,IwAR1JSyvdpIcOguLQdSaBvh_tHMwMwg8djfGEDSmCfSurgZOM_Ahdduy9SpM,,,,,,,,,,,
,,,,,,,,,,,,,,p,1,0.565045,space,0.268345,0,125,125,41,1,3_dist_red/trial17.png,,,1,3,redHorizontal,p,27,30,,2021-02-24_09h47.09.766,exp11,2020.2.6,Win32,60,IwAR1JSyvdpIcOguLQdSaBvh_tHMwMwg8djfGEDSmCfSurgZOM_Ahdduy9SpM,,,,,,,,,,,
,,,,,,,,,,,,,,p,1,0.5775,space,0.30967,0,126,126,38,1,3_dist_red/trial14.png,,,1,3,redHorizontal,p,27,30,,2021-02-24_09h47.09.766,exp11,2020.2.6,Win32,60,IwAR1JSyvdpIcOguLQdSaBvh_tHMwMwg8djfGEDSmCfSurgZOM_Ahdduy9SpM,,,,,,,,,,,
,,,,,,,,,,,,,,p,1,0.540305,space,0.271535,0,127,127,19,1,0_dist_red/trial20.png,,,1,0,redHorizontal,p,27,30,,2021-02-24_09h47.09.766,exp11,2020.2.6,Win32,60,IwAR1JSyvdpIcOguLQdSaBvh_tHMwMwg8djfGEDSmCfSurgZOM_Ahdduy9SpM,,,,,,,,,,,
,,,,,,,,,,,,,,p,1,0.56876,space,0.337485,0,128,128,15,1,0_dist_red/trial16.png,,,1,0,redHorizontal,p,27,30,,2021-02-24_09h47.09.766,exp11,2020.2.6,Win32,60,IwAR1JSyvdpIcOguLQdSaBvh_tHMwMwg8djfGEDSmCfSurgZOM_Ahdduy9SpM,,,,,,,,,,,
,,,,,,,,,,,,,,a,1,0.590265,space,0.273095,0,129,129,150,1,0_targ_10_dist_red/trial1.png,,,0,10,redHorizontal,a,27,30,,2021-02-24_09h47.09.766,exp11,2020.2.6,Win32,60,IwAR1JSyvdpIcOguLQdSaBvh_tHMwMwg8djfGEDSmCfSurgZOM_Ahdduy9SpM,,,,,,,,,,,
,,,,,,,,,,,,,,a,1,0.61765,space,0.336315,0,130,130,107,1,0_targ_1_dist_red/trial8.png,,,0,1,redHorizontal,a,27,30,,2021-02-24_09h47.09.766,exp11,2020.2.6,Win32,60,IwAR1JSyvdpIcOguLQdSaBvh_tHMwMwg8djfGEDSmCfSurgZOM_Ahdduy9SpM,,,,,,,,,,,
,,,,,,,,,,,,,,a,1,0.525935,space,0.30089,0,131,131,131,1,0_targ_4_dist_red/trial7.png,,,0,4,redHorizontal,a,27,30,,2021-02-24_09h47.09.766,exp11,2020.2.6,Win32,60,IwAR1JSyvdpIcOguLQdSaBvh_tHMwMwg8djfGEDSmCfSurgZOM_Ahdduy9SpM,,,,,,,,,,,
,,,,,,,,,,,,,,p,1,0.666665,space,0.268085,0,132,132,60,1,9_dist_red/trial11.png,,,1,9,redHorizontal,p,27,30,,2021-02-24_09h47.09.766,exp11,2020.2.6,Win32,60,IwAR1JSyvdpIcOguLQdSaBvh_tHMwMwg8djfGEDSmCfSurgZOM_Ahdduy9SpM,,,,,,,,,,,
,,,,,,,,,,,,,,p,1,0.60803,space,0.28355,0,133,133,71,1,9_dist_red/trial22.png,,,1,9,redHorizontal,p,27,30,,2021-02-24_09h47.09.766,exp11,2020.2.6,Win32,60,IwAR1JSyvdpIcOguLQdSaBvh_tHMwMwg8djfGEDSmCfSurgZOM_Ahdduy9SpM,,,,,,,,,,,
,,,,,,,,,,,,,,p,1,0.88144,space,0.230875,0,134,134,95,1,15_dist_red/trial21.png,,,1,15,redHorizontal,p,27,30,,2021-02-24_09h47.09.766,exp11,2020.2.6,Win32,60,IwAR1JSyvdpIcOguLQdSaBvh_tHMwMwg8djfGEDSmCfSurgZOM_Ahdduy9SpM,,,,,,,,,,,
,,,,,,,,,,,,,,a,1,0.98816,space,0.251855,0,135,135,194,1,0_targ_16_dist_red/trial20.png,,,0,16,redHorizontal,a,27,30,,2021-02-24_09h47.09.766,exp11,2020.2.6,Win32,60,IwAR1JSyvdpIcOguLQdSaBvh_tHMwMwg8djfGEDSmCfSurgZOM_Ahdduy9SpM,,,,,,,,,,,
,,,,,,,,,,,,,,p,1,0.764745,space,0.331925,0,136,136,29,1,3_dist_red/trial5.png,,,1,3,redHorizontal,p,27,30,,2021-02-24_09h47.09.766,exp11,2020.2.6,Win32,60,IwAR1JSyvdpIcOguLQdSaBvh_tHMwMwg8djfGEDSmCfSurgZOM_Ahdduy9SpM,,,,,,,,,,,
,,,,,,,,,,,,,,p,1,0.69176,space,0.340945,0,137,137,48,1,3_dist_red/trial24.png,,,1,3,redHorizontal,p,27,30,,2021-02-24_09h47.09.766,exp11,2020.2.6,Win32,60,IwAR1JSyvdpIcOguLQdSaBvh_tHMwMwg8djfGEDSmCfSurgZOM_Ahdduy9SpM,,,,,,,,,,,
,,,,,,,,,,,,,,a,1,0.98461,space,0.27497,0,138,138,177,1,0_targ_16_dist_red/trial3.png,,,0,16,redHorizontal,a,27,30,,2021-02-24_09h47.09.766,exp11,2020.2.6,Win32,60,IwAR1JSyvdpIcOguLQdSaBvh_tHMwMwg8djfGEDSmCfSurgZOM_Ahdduy9SpM,,,,,,,,,,,
,,,,,,,,,,,,,,p,1,0.727285,space,0.268695,0,139,139,56,1,9_dist_red/trial7.png,,,1,9,redHorizontal,p,27,30,,2021-02-24_09h47.09.766,exp11,2020.2.6,Win32,60,IwAR1JSyvdpIcOguLQdSaBvh_tHMwMwg8djfGEDSmCfSurgZOM_Ahdduy9SpM,,,,,,,,,,,
,,,,,,,,,,,,,,a,1,0.761835,space,0.342915,0,140,140,161,1,0_targ_10_dist_red/trial12.png,,,0,10,redHorizontal,a,27,30,,2021-02-24_09h47.09.766,exp11,2020.2.6,Win32,60,IwAR1JSyvdpIcOguLQdSaBvh_tHMwMwg8djfGEDSmCfSurgZOM_Ahdduy9SpM,,,,,,,,,,,
,,,,,,,,,,,,,,p,1,0.653885,space,0.277145,0,141,141,4,1,0_dist_red/trial5.png,,,1,0,redHorizontal,p,27,30,,2021-02-24_09h47.09.766,exp11,2020.2.6,Win32,60,IwAR1JSyvdpIcOguLQdSaBvh_tHMwMwg8djfGEDSmCfSurgZOM_Ahdduy9SpM,,,,,,,,,,,
,,,,,,,,,,,,,,a,1,0.647845,space,0.325655,0,142,142,174,1,0_targ_10_dist_red/trial25.png,,,0,10,redHorizontal,a,27,30,,2021-02-24_09h47.09.766,exp11,2020.2.6,Win32,60,IwAR1JSyvdpIcOguLQdSaBvh_tHMwMwg8djfGEDSmCfSurgZOM_Ahdduy9SpM,,,,,,,,,,,
,,,,,,,,,,,,,,p,1,0.756925,space,0.252185,0,143,143,51,1,9_dist_red/trial2.png,,,1,9,redHorizontal,p,27,30,,2021-02-24_09h47.09.766,exp11,2020.2.6,Win32,60,IwAR1JSyvdpIcOguLQdSaBvh_tHMwMwg8djfGEDSmCfSurgZOM_Ahdduy9SpM,,,,,,,,,,,
,,,,,,,,,,,,,,p,1,0.73521,space,0.317885,0,144,144,85,1,15_dist_red/trial11.png,,,1,15,redHorizontal,p,27,30,,2021-02-24_09h47.09.766,exp11,2020.2.6,Win32,60,IwAR1JSyvdpIcOguLQdSaBvh_tHMwMwg8djfGEDSmCfSurgZOM_Ahdduy9SpM,,,,,,,,,,,
,,,,,,,,,,,,,,a,1,0.80742,space,0.3041,0,145,145,184,1,0_targ_16_dist_red/trial10.png,,,0,16,redHorizontal,a,27,30,,2021-02-24_09h47.09.766,exp11,2020.2.6,Win32,60,IwAR1JSyvdpIcOguLQdSaBvh_tHMwMwg8djfGEDSmCfSurgZOM_Ahdduy9SpM,,,,,,,,,,,
,,,,,,,,,,,,,,a,1,0.77537,space,0.259905,0,146,146,121,1,0_targ_1_dist_red/trial22.png,,,0,1,redHorizontal,a,27,30,,2021-02-24_09h47.09.766,exp11,2020.2.6,Win32,60,IwAR1JSyvdpIcOguLQdSaBvh_tHMwMwg8djfGEDSmCfSurgZOM_Ahdduy9SpM,,,,,,,,,,,
,,,,,,,,,,,,,,p,1,0.737635,space,0.22898,0,147,147,73,1,9_dist_red/trial24.png,,,1,9,redHorizontal,p,27,30,,2021-02-24_09h47.09.766,exp11,2020.2.6,Win32,60,IwAR1JSyvdpIcOguLQdSaBvh_tHMwMwg8djfGEDSmCfSurgZOM_Ahdduy9SpM,,,,,,,,,,,
,,,,,,,,,,,,,,p,1,1.12345,space,0.243495,0,148,148,46,1,3_dist_red/trial22.png,,,1,3,redHorizontal,p,27,30,,2021-02-24_09h47.09.766,exp11,2020.2.6,Win32,60,IwAR1JSyvdpIcOguLQdSaBvh_tHMwMwg8djfGEDSmCfSurgZOM_Ahdduy9SpM,,,,,,,,,,,
,,,,,,,,,,,,,,p,1,0.552845,space,0.41223,0,149,149,25,1,3_dist_red/trial1.png,,,1,3,redHorizontal,p,27,30,,2021-02-24_09h47.09.766,exp11,2020.2.6,Win32,60,IwAR1JSyvdpIcOguLQdSaBvh_tHMwMwg8djfGEDSmCfSurgZOM_Ahdduy9SpM,,,,,,,,,,,
,,,,,,,,,,,,,,p,1,0.632015,space,0.38235,0,150,150,52,1,9_dist_red/trial3.png,,,1,9,redHorizontal,p,27,30,,2021-02-24_09h47.09.766,exp11,2020.2.6,Win32,60,IwAR1JSyvdpIcOguLQdSaBvh_tHMwMwg8djfGEDSmCfSurgZOM_Ahdduy9SpM,,,,,,,,,,,
,,,,,,,,,,,,,,a,1,1.104645,space,0.354285,0,151,151,144,1,0_targ_4_dist_red/trial20.png,,,0,4,redHorizontal,a,27,30,,2021-02-24_09h47.09.766,exp11,2020.2.6,Win32,60,IwAR1JSyvdpIcOguLQdSaBvh_tHMwMwg8djfGEDSmCfSurgZOM_Ahdduy9SpM,,,,,,,,,,,
,,,,,,,,,,,,,,p,1,0.65128,space,0.27793,0,152,152,42,1,3_dist_red/trial18.png,,,1,3,redHorizontal,p,27,30,,2021-02-24_09h47.09.766,exp11,2020.2.6,Win32,60,IwAR1JSyvdpIcOguLQdSaBvh_tHMwMwg8djfGEDSmCfSurgZOM_Ahdduy9SpM,,,,,,,,,,,
,,,,,,,,,,,,,,p,1,0.868715,space,0.222475,0,153,153,45,1,3_dist_red/trial21.png,,,1,3,redHorizontal,p,27,30,,2021-02-24_09h47.09.766,exp11,2020.2.6,Win32,60,IwAR1JSyvdpIcOguLQdSaBvh_tHMwMwg8djfGEDSmCfSurgZOM_Ahdduy9SpM,,,,,,,,,,,
,,,,,,,,,,,,,,p,1,0.562425,space,0.31857,0,154,154,14,1,0_dist_red/trial15.png,,,1,0,redHorizontal,p,27,30,,2021-02-24_09h47.09.766,exp11,2020.2.6,Win32,60,IwAR1JSyvdpIcOguLQdSaBvh_tHMwMwg8djfGEDSmCfSurgZOM_Ahdduy9SpM,,,,,,,,,,,
,,,,,,,,,,,,,,p,1,0.62731,space,0.292615,0,155,155,63,1,9_dist_red/trial14.png,,,1,9,redHorizontal,p,27,30,,2021-02-24_09h47.09.766,exp11,2020.2.6,Win32,60,IwAR1JSyvdpIcOguLQdSaBvh_tHMwMwg8djfGEDSmCfSurgZOM_Ahdduy9SpM,,,,,,,,,,,
,,,,,,,,,,,,,,a,1,0.68788,space,0.25075,0,156,156,191,1,0_targ_16_dist_red/trial17.png,,,0,16,redHorizontal,a,27,30,,2021-02-24_09h47.09.766,exp11,2020.2.6,Win32,60,IwAR1JSyvdpIcOguLQdSaBvh_tHMwMwg8djfGEDSmCfSurgZOM_Ahdduy9SpM,,,,,,,,,,,
,,,,,,,,,,,,,,a,1,0.640895,space,0.300715,0,157,157,126,1,0_targ_4_dist_red/trial2.png,,,0,4,redHorizontal,a,27,30,,2021-02-24_09h47.09.766,exp11,2020.2.6,Win32,60,IwAR1JSyvdpIcOguLQdSaBvh_tHMwMwg8djfGEDSmCfSurgZOM_Ahdduy9SpM,,,,,,,,,,,
,,,,,,,,,,,,,,p,1,0.570475,space,0.25759,0,158,158,58,1,9_dist_red/trial9.png,,,1,9,redHorizontal,p,27,30,,2021-02-24_09h47.09.766,exp11,2020.2.6,Win32,60,IwAR1JSyvdpIcOguLQdSaBvh_tHMwMwg8djfGEDSmCfSurgZOM_Ahdduy9SpM,,,,,,,,,,,
,,,,,,,,,,,,,,p,1,0.82532,space,0.249435,0,159,159,3,1,0_dist_red/trial4.png,,,1,0,redHorizontal,p,27,30,,2021-02-24_09h47.09.766,exp11,2020.2.6,Win32,60,IwAR1JSyvdpIcOguLQdSaBvh_tHMwMwg8djfGEDSmCfSurgZOM_Ahdduy9SpM,,,,,,,,,,,
,,,,,,,,,,,,,,p,1,0.50381,space,0.236065,0,160,160,12,1,0_dist_red/trial13.png,,,1,0,redHorizontal,p,27,30,,2021-02-24_09h47.09.766,exp11,2020.2.6,Win32,60,IwAR1JSyvdpIcOguLQdSaBvh_tHMwMwg8djfGEDSmCfSurgZOM_Ahdduy9SpM,,,,,,,,,,,
,,,,,,,,,,,,,,p,1,0.53707,space,0.194495,0,161,161,67,1,9_dist_red/trial18.png,,,1,9,redHorizontal,p,27,30,,2021-02-24_09h47.09.766,exp11,2020.2.6,Win32,60,IwAR1JSyvdpIcOguLQdSaBvh_tHMwMwg8djfGEDSmCfSurgZOM_Ahdduy9SpM,,,,,,,,,,,
,,,,,,,,,,,,,,p,1,0.51307,space,0.518455,0,162,162,17,1,0_dist_red/trial18.png,,,1,0,redHorizontal,p,27,30,,2021-02-24_09h47.09.766,exp11,2020.2.6,Win32,60,IwAR1JSyvdpIcOguLQdSaBvh_tHMwMwg8djfGEDSmCfSurgZOM_Ahdduy9SpM,,,,,,,,,,,
,,,,,,,,,,,,,,a,1,0.804295,space,0.202055,0,163,163,176,1,0_targ_16_dist_red/trial2.png,,,0,16,redHorizontal,a,27,30,,2021-02-24_09h47.09.766,exp11,2020.2.6,Win32,60,IwAR1JSyvdpIcOguLQdSaBvh_tHMwMwg8djfGEDSmCfSurgZOM_Ahdduy9SpM,,,,,,,,,,,
,,,,,,,,,,,,,,a,1,0.644705,space,0.215875,0,164,164,163,1,0_targ_10_dist_red/trial14.png,,,0,10,redHorizontal,a,27,30,,2021-02-24_09h47.09.766,exp11,2020.2.6,Win32,60,IwAR1JSyvdpIcOguLQdSaBvh_tHMwMwg8djfGEDSmCfSurgZOM_Ahdduy9SpM,,,,,,,,,,,
,,,,,,,,,,,,,,a,1,0.499475,space,0.22164,0,165,165,104,1,0_targ_1_dist_red/trial5.png,,,0,1,redHorizontal,a,27,30,,2021-02-24_09h47.09.766,exp11,2020.2.6,Win32,60,IwAR1JSyvdpIcOguLQdSaBvh_tHMwMwg8djfGEDSmCfSurgZOM_Ahdduy9SpM,,,,,,,,,,,
,,,,,,,,,,,,,,a,1,0.44385,space,0.223825,0,166,166,102,1,0_targ_1_dist_red/trial3.png,,,0,1,redHorizontal,a,27,30,,2021-02-24_09h47.09.766,exp11,2020.2.6,Win32,60,IwAR1JSyvdpIcOguLQdSaBvh_tHMwMwg8djfGEDSmCfSurgZOM_Ahdduy9SpM,,,,,,,,,,,
,,,,,,,,,,,,,,a,0,0.53739,space,0.423755,0,167,167,53,1,9_dist_red/trial4.png,,,1,9,redHorizontal,p,27,30,,2021-02-24_09h47.09.766,exp11,2020.2.6,Win32,60,IwAR1JSyvdpIcOguLQdSaBvh_tHMwMwg8djfGEDSmCfSurgZOM_Ahdduy9SpM,,,,,,,,,,,
,,,,,,,,,,,,,,p,1,0.54134,space,0.26251,0,168,168,23,1,0_dist_red/trial24.png,,,1,0,redHorizontal,p,27,30,,2021-02-24_09h47.09.766,exp11,2020.2.6,Win32,60,IwAR1JSyvdpIcOguLQdSaBvh_tHMwMwg8djfGEDSmCfSurgZOM_Ahdduy9SpM,,,,,,,,,,,
,,,,,,,,,,,,,,p,1,0.621385,space,0.240345,0,169,169,34,1,3_dist_red/trial10.png,,,1,3,redHorizontal,p,27,30,,2021-02-24_09h47.09.766,exp11,2020.2.6,Win32,60,IwAR1JSyvdpIcOguLQdSaBvh_tHMwMwg8djfGEDSmCfSurgZOM_Ahdduy9SpM,,,,,,,,,,,
,,,,,,,,,,,,,,a,1,0.522475,space,0.251875,0,170,170,175,1,0_targ_16_dist_red/trial1.png,,,0,16,redHorizontal,a,27,30,,2021-02-24_09h47.09.766,exp11,2020.2.6,Win32,60,IwAR1JSyvdpIcOguLQdSaBvh_tHMwMwg8djfGEDSmCfSurgZOM_Ahdduy9SpM,,,,,,,,,,,
,,,,,,,,,,,,,,a,1,0.58983,space,0.269885,0,171,171,172,1,0_targ_10_dist_red/trial23.png,,,0,10,redHorizontal,a,27,30,,2021-02-24_09h47.09.766,exp11,2020.2.6,Win32,60,IwAR1JSyvdpIcOguLQdSaBvh_tHMwMwg8djfGEDSmCfSurgZOM_Ahdduy9SpM,,,,,,,,,,,
,,,,,,,,,,,,,,p,1,0.54241,space,0.21274,0,172,172,10,1,0_dist_red/trial11.png,,,1,0,redHorizontal,p,27,30,,2021-02-24_09h47.09.766,exp11,2020.2.6,Win32,60,IwAR1JSyvdpIcOguLQdSaBvh_tHMwMwg8djfGEDSmCfSurgZOM_Ahdduy9SpM,,,,,,,,,,,
,,,,,,,,,,,,,,a,1,0.96915,space,0.122015,0,173,173,106,1,0_targ_1_dist_red/trial7.png,,,0,1,redHorizontal,a,27,30,,2021-02-24_09h47.09.766,exp11,2020.2.6,Win32,60,IwAR1JSyvdpIcOguLQdSaBvh_tHMwMwg8djfGEDSmCfSurgZOM_Ahdduy9SpM,,,,,,,,,,,
,,,,,,,,,,,,,,a,1,0.60658,space,0.083995,0,174,174,138,1,0_targ_4_dist_red/trial14.png,,,0,4,redHorizontal,a,27,30,,2021-02-24_09h47.09.766,exp11,2020.2.6,Win32,60,IwAR1JSyvdpIcOguLQdSaBvh_tHMwMwg8djfGEDSmCfSurgZOM_Ahdduy9SpM,,,,,,,,,,,
,,,,,,,,,,,,,,a,1,0.47324,space,0.06923,0,175,175,188,1,0_targ_16_dist_red/trial14.png,,,0,16,redHorizontal,a,27,30,,2021-02-24_09h47.09.766,exp11,2020.2.6,Win32,60,IwAR1JSyvdpIcOguLQdSaBvh_tHMwMwg8djfGEDSmCfSurgZOM_Ahdduy9SpM,,,,,,,,,,,
,,,,,,,,,,,,,,a,0,0.707165,space,1.019415,0,176,176,82,1,15_dist_red/trial8.png,,,1,15,redHorizontal,p,27,30,,2021-02-24_09h47.09.766,exp11,2020.2.6,Win32,60,IwAR1JSyvdpIcOguLQdSaBvh_tHMwMwg8djfGEDSmCfSurgZOM_Ahdduy9SpM,,,,,,,,,,,
,,,,,,,,,,,,,,a,1,0.659895,space,0.19515,0,177,177,196,1,0_targ_16_dist_red/trial22.png,,,0,16,redHorizontal,a,27,30,,2021-02-24_09h47.09.766,exp11,2020.2.6,Win32,60,IwAR1JSyvdpIcOguLQdSaBvh_tHMwMwg8djfGEDSmCfSurgZOM_Ahdduy9SpM,,,,,,,,,,,
,,,,,,,,,,,,,,a,1,0.51678,space,0.24315,0,178,178,115,1,0_targ_1_dist_red/trial6.png,,,0,1,redHorizontal,a,27,30,,2021-02-24_09h47.09.766,exp11,2020.2.6,Win32,60,IwAR1JSyvdpIcOguLQdSaBvh_tHMwMwg8djfGEDSmCfSurgZOM_Ahdduy9SpM,,,,,,,,,,,
,,,,,,,,,,,,,,a,1,0.508125,space,0.25456,0,179,179,109,1,0_targ_1_dist_red/trial10.png,,,0,1,redHorizontal,a,27,30,,2021-02-24_09h47.09.766,exp11,2020.2.6,Win32,60,IwAR1JSyvdpIcOguLQdSaBvh_tHMwMwg8djfGEDSmCfSurgZOM_Ahdduy9SpM,,,,,,,,,,,
,,,,,,,,,,,,,,a,0,0.777775,space,0.282815,0,180,180,80,1,15_dist_red/trial6.png,,,1,15,redHorizontal,p,27,30,,2021-02-24_09h47.09.766,exp11,2020.2.6,Win32,60,IwAR1JSyvdpIcOguLQdSaBvh_tHMwMwg8djfGEDSmCfSurgZOM_Ahdduy9SpM,,,,,,,,,,,
,,,,,,,,,,,,,,p,1,0.64851,space,0.249795,0,181,181,43,1,3_dist_red/trial19.png,,,1,3,redHorizontal,p,27,30,,2021-02-24_09h47.09.766,exp11,2020.2.6,Win32,60,IwAR1JSyvdpIcOguLQdSaBvh_tHMwMwg8djfGEDSmCfSurgZOM_Ahdduy9SpM,,,,,,,,,,,
,,,,,,,,,,,,,,a,1,0.63945,space,0.23637,0,182,182,139,1,0_targ_4_dist_red/trial15.png,,,0,4,redHorizontal,a,27,30,,2021-02-24_09h47.09.766,exp11,2020.2.6,Win32,60,IwAR1JSyvdpIcOguLQdSaBvh_tHMwMwg8djfGEDSmCfSurgZOM_Ahdduy9SpM,,,,,,,,,,,
,,,,,,,,,,,,,,p,1,0.63016,space,0.24889,0,183,183,54,1,9_dist_red/trial5.png,,,1,9,redHorizontal,p,27,30,,2021-02-24_09h47.09.766,exp11,2020.2.6,Win32,60,IwAR1JSyvdpIcOguLQdSaBvh_tHMwMwg8djfGEDSmCfSurgZOM_Ahdduy9SpM,,,,,,,,,,,
,,,,,,,,,,,,,,p,0,0.7218,space,0.89205,0,184,184,178,1,0_targ_16_dist_red/trial4.png,,,0,16,redHorizontal,a,27,30,,2021-02-24_09h47.09.766,exp11,2020.2.6,Win32,60,IwAR1JSyvdpIcOguLQdSaBvh_tHMwMwg8djfGEDSmCfSurgZOM_Ahdduy9SpM,,,,,,,,,,,
,,,,,,,,,,,,,,p,1,0.848495,space,0.202375,0,185,185,76,1,15_dist_red/trial2.png,,,1,15,redHorizontal,p,27,30,,2021-02-24_09h47.09.766,exp11,2020.2.6,Win32,60,IwAR1JSyvdpIcOguLQdSaBvh_tHMwMwg8djfGEDSmCfSurgZOM_Ahdduy9SpM,,,,,,,,,,,
,,,,,,,,,,,,,,p,1,1.796475,space,0.204,0,186,186,77,1,15_dist_red/trial3.png,,,1,15,redHorizontal,p,27,30,,2021-02-24_09h47.09.766,exp11,2020.2.6,Win32,60,IwAR1JSyvdpIcOguLQdSaBvh_tHMwMwg8djfGEDSmCfSurgZOM_Ahdduy9SpM,,,,,,,,,,,
,,,,,,,,,,,,,,p,0,0.679485,space,1.03763,0,187,187,145,1,0_targ_4_dist_red/trial21.png,,,0,4,redHorizontal,a,27,30,,2021-02-24_09h47.09.766,exp11,2020.2.6,Win32,60,IwAR1JSyvdpIcOguLQdSaBvh_tHMwMwg8djfGEDSmCfSurgZOM_Ahdduy9SpM,,,,,,,,,,,
,,,,,,,,,,,,,,a,1,0.650055,space,0.267765,0,188,188,186,1,0_targ_16_dist_red/trial12.png,,,0,16,redHorizontal,a,27,30,,2021-02-24_09h47.09.766,exp11,2020.2.6,Win32,60,IwAR1JSyvdpIcOguLQdSaBvh_tHMwMwg8djfGEDSmCfSurgZOM_Ahdduy9SpM,,,,,,,,,,,
,,,,,,,,,,,,,,p,1,1.32241,space,0.216705,0,189,189,87,1,15_dist_red/trial13.png,,,1,15,redHorizontal,p,27,30,,2021-02-24_09h47.09.766,exp11,2020.2.6,Win32,60,IwAR1JSyvdpIcOguLQdSaBvh_tHMwMwg8djfGEDSmCfSurgZOM_Ahdduy9SpM,,,,,,,,,,,
,,,,,,,,,,,,,,p,1,1.60438,space,0.24211,0,190,190,35,1,3_dist_red/trial11.png,,,1,3,redHorizontal,p,27,30,,2021-02-24_09h47.09.766,exp11,2020.2.6,Win32,60,IwAR1JSyvdpIcOguLQdSaBvh_tHMwMwg8djfGEDSmCfSurgZOM_Ahdduy9SpM,,,,,,,,,,,
,,,,,,,,,,,,,,p,1,0.71115,space,0.26567,0,191,191,2,1,0_dist_red/trial3.png,,,1,0,redHorizontal,p,27,30,,2021-02-24_09h47.09.766,exp11,2020.2.6,Win32,60,IwAR1JSyvdpIcOguLQdSaBvh_tHMwMwg8djfGEDSmCfSurgZOM_Ahdduy9SpM,,,,,,,,,,,
,,,,,,,,,,,,,,a,1,0.71373,space,0.217485,0,192,192,132,1,0_targ_4_dist_red/trial8.png,,,0,4,redHorizontal,a,27,30,,2021-02-24_09h47.09.766,exp11,2020.2.6,Win32,60,IwAR1JSyvdpIcOguLQdSaBvh_tHMwMwg8djfGEDSmCfSurgZOM_Ahdduy9SpM,,,,,,,,,,,
,,,,,,,,,,,,,,p,1,0.75748,space,0.224855,0,193,193,33,1,3_dist_red/trial9.png,,,1,3,redHorizontal,p,27,30,,2021-02-24_09h47.09.766,exp11,2020.2.6,Win32,60,IwAR1JSyvdpIcOguLQdSaBvh_tHMwMwg8djfGEDSmCfSurgZOM_Ahdduy9SpM,,,,,,,,,,,
,,,,,,,,,,,,,,p,1,1.00941,space,0.194605,0,194,194,39,1,3_dist_red/trial15.png,,,1,3,redHorizontal,p,27,30,,2021-02-24_09h47.09.766,exp11,2020.2.6,Win32,60,IwAR1JSyvdpIcOguLQdSaBvh_tHMwMwg8djfGEDSmCfSurgZOM_Ahdduy9SpM,,,,,,,,,,,
,,,,,,,,,,,,,,p,1,0.489065,space,0.255045,0,195,195,37,1,3_dist_red/trial13.png,,,1,3,redHorizontal,p,27,30,,2021-02-24_09h47.09.766,exp11,2020.2.6,Win32,60,IwAR1JSyvdpIcOguLQdSaBvh_tHMwMwg8djfGEDSmCfSurgZOM_Ahdduy9SpM,,,,,,,,,,,
,,,,,,,,,,,,,,p,1,0.803055,space,0.259275,0,196,196,94,1,15_dist_red/trial20.png,,,1,15,redHorizontal,p,27,30,,2021-02-24_09h47.09.766,exp11,2020.2.6,Win32,60,IwAR1JSyvdpIcOguLQdSaBvh_tHMwMwg8djfGEDSmCfSurgZOM_Ahdduy9SpM,,,,,,,,,,,
,,,,,,,,,,,,,,a,1,0.756175,space,0.22262,0,197,197,154,1,0_targ_10_dist_red/trial5.png,,,0,10,redHorizontal,a,27,30,,2021-02-24_09h47.09.766,exp11,2020.2.6,Win32,60,IwAR1JSyvdpIcOguLQdSaBvh_tHMwMwg8djfGEDSmCfSurgZOM_Ahdduy9SpM,,,,,,,,,,,
,,,,,,,,,,,,,,p,1,0.60303,space,0.269095,0,198,198,27,1,3_dist_red/trial3.png,,,1,3,redHorizontal,p,27,30,,2021-02-24_09h47.09.766,exp11,2020.2.6,Win32,60,IwAR1JSyvdpIcOguLQdSaBvh_tHMwMwg8djfGEDSmCfSurgZOM_Ahdduy9SpM,,,,,,,,,,,
,,,,,,,,,,,,,,a,0,0.621295,space,0.04252,0,199,199,89,1,15_dist_red/trial15.png,,,1,15,redHorizontal,p,27,30,,2021-02-24_09h47.09.766,exp11,2020.2.6,Win32,60,IwAR1JSyvdpIcOguLQdSaBvh_tHMwMwg8djfGEDSmCfSurgZOM_Ahdduy9SpM,,,,,,,,,,,
,,,,,,,,,,,,,,,,,,,,,,,,,,,,,,,27,30,,2021-02-24_09h47.09.766,exp11,2020.2.6,Win32,60,IwAR1JSyvdpIcOguLQdSaBvh_tHMwMwg8djfGEDSmCfSurgZOM_Ahdduy9SpM,0,1,1,1,1,conRed.xlsx,red horizontal,Look for red horizontal bar (target) and indicate if it is present or absent in the array. If red horizontal target is present press 'p' and if absent press 'a'. Press SPACE to start.,,,
