key_resp_6.keys,key_resp_6.rt,key_resp_7.keys,key_resp_7.rt,key_resp_8.keys,key_resp_8.rt,key_resp_10.keys,key_resp_10.rt,key_resp_9.keys,key_resp_9.rt,key_resp_3.keys,key_resp_3.rt,key_resp_5.keys,key_resp_5.rt,key_resp.keys,key_resp.corr,key_resp.rt,key_resp_4.keys,key_resp_4.rt,trials.thisRepN,trials.thisTrialN,trials.thisN,trials.thisIndex,trials.ran,ImageFile,tarPos,tarSize,targPres,numDist,targetName,correctAns,participant,age,sex,date,expName,psychopyVersion,OS,frameRate,trials_2.thisRepN,trials_2.thisTrialN,trials_2.thisN,trials_2.thisIndex,trials_2.ran,condsFile,targName,instructionText,colTarget,sizeTarg,posit
space,24.35538,space,21.106875,space,8.399995,space,7.048125,space,3.734065,space,51.690005,space,32.678055,a,1,2.28684,space,4.2076,0,0,0,120,1,0_targ_1_dist_red/trial21.png,,,0,1,redHorizontal,a,30,20,Male,2021-02-17_13h42.51.343,exp11,2020.2.6,Win32,60,,,,,,,,,,,
,,,,,,,,,,,,,,a,1,5.01232,space,2.409995,0,1,1,152,1,0_targ_10_dist_red/trial3.png,,,0,10,redHorizontal,a,30,20,Male,2021-02-17_13h42.51.343,exp11,2020.2.6,Win32,60,,,,,,,,,,,
,,,,,,,,,,,,,,p,1,2.27812,space,3.002055,0,2,2,43,1,3_dist_red/trial19.png,,,1,3,redHorizontal,p,30,20,Male,2021-02-17_13h42.51.343,exp11,2020.2.6,Win32,60,,,,,,,,,,,
,,,,,,,,,,,,,,p,1,0.952535,space,0.937515,0,3,3,24,1,0_dist_red/trial25.png,,,1,0,redHorizontal,p,30,20,Male,2021-02-17_13h42.51.343,exp11,2020.2.6,Win32,60,,,,,,,,,,,
,,,,,,,,,,,,,,p,1,2.543775,space,0.705965,0,4,4,92,1,15_dist_red/trial18.png,,,1,15,redHorizontal,p,30,20,Male,2021-02-17_13h42.51.343,exp11,2020.2.6,Win32,60,,,,,,,,,,,
,,,,,,,,,,,,,,a,1,2.247345,space,1.206525,0,5,5,135,1,0_targ_4_dist_red/trial11.png,,,0,4,redHorizontal,a,30,20,Male,2021-02-17_13h42.51.343,exp11,2020.2.6,Win32,60,,,,,,,,,,,
,,,,,,,,,,,,,,p,1,1.742675,space,0.934335,0,6,6,67,1,9_dist_red/trial18.png,,,1,9,redHorizontal,p,30,20,Male,2021-02-17_13h42.51.343,exp11,2020.2.6,Win32,60,,,,,,,,,,,
,,,,,,,,,,,,,,p,1,1.145,space,1.07046,0,7,7,48,1,3_dist_red/trial24.png,,,1,3,redHorizontal,p,30,20,Male,2021-02-17_13h42.51.343,exp11,2020.2.6,Win32,60,,,,,,,,,,,
,,,,,,,,,,,,,,a,1,2.061965,space,1.561705,0,8,8,162,1,0_targ_10_dist_red/trial13.png,,,0,10,redHorizontal,a,30,20,Male,2021-02-17_13h42.51.343,exp11,2020.2.6,Win32,60,,,,,,,,,,,
,,,,,,,,,,,,,,p,1,0.97477,space,0.776055,0,9,9,88,1,15_dist_red/trial14.png,,,1,15,redHorizontal,p,30,20,Male,2021-02-17_13h42.51.343,exp11,2020.2.6,Win32,60,,,,,,,,,,,
,,,,,,,,,,,,,,a,1,0.96773,space,0.584735,0,10,10,100,1,0_targ_1_dist_red/trial1.png,,,0,1,redHorizontal,a,30,20,Male,2021-02-17_13h42.51.343,exp11,2020.2.6,Win32,60,,,,,,,,,,,
,,,,,,,,,,,,,,a,1,1.582175,space,0.63833,0,11,11,175,1,0_targ_16_dist_red/trial1.png,,,0,16,redHorizontal,a,30,20,Male,2021-02-17_13h42.51.343,exp11,2020.2.6,Win32,60,,,,,,,,,,,
,,,,,,,,,,,,,,a,1,1.412125,space,0.693405,0,12,12,150,1,0_targ_10_dist_red/trial1.png,,,0,10,redHorizontal,a,30,20,Male,2021-02-17_13h42.51.343,exp11,2020.2.6,Win32,60,,,,,,,,,,,
,,,,,,,,,,,,,,a,1,1.891595,space,0.63437,0,13,13,169,1,0_targ_10_dist_red/trial20.png,,,0,10,redHorizontal,a,30,20,Male,2021-02-17_13h42.51.343,exp11,2020.2.6,Win32,60,,,,,,,,,,,
,,,,,,,,,,,,,,a,1,1.417815,space,0.436785,0,14,14,147,1,0_targ_4_dist_red/trial23.png,,,0,4,redHorizontal,a,30,20,Male,2021-02-17_13h42.51.343,exp11,2020.2.6,Win32,60,,,,,,,,,,,
,,,,,,,,,,,,,,a,1,1.604505,space,0.670475,0,15,15,160,1,0_targ_10_dist_red/trial11.png,,,0,10,redHorizontal,a,30,20,Male,2021-02-17_13h42.51.343,exp11,2020.2.6,Win32,60,,,,,,,,,,,
,,,,,,,,,,,,,,a,1,0.93757,space,0.517665,0,16,16,109,1,0_targ_1_dist_red/trial10.png,,,0,1,redHorizontal,a,30,20,Male,2021-02-17_13h42.51.343,exp11,2020.2.6,Win32,60,,,,,,,,,,,
,,,,,,,,,,,,,,p,1,1.388595,space,0.4896,0,17,17,30,1,3_dist_red/trial6.png,,,1,3,redHorizontal,p,30,20,Male,2021-02-17_13h42.51.343,exp11,2020.2.6,Win32,60,,,,,,,,,,,
,,,,,,,,,,,,,,a,1,2.114345,space,0.40088,0,18,18,155,1,0_targ_10_dist_red/trial6.png,,,0,10,redHorizontal,a,30,20,Male,2021-02-17_13h42.51.343,exp11,2020.2.6,Win32,60,,,,,,,,,,,
,,,,,,,,,,,,,,a,1,1.992055,space,0.450755,0,19,19,146,1,0_targ_4_dist_red/trial22.png,,,0,4,redHorizontal,a,30,20,Male,2021-02-17_13h42.51.343,exp11,2020.2.6,Win32,60,,,,,,,,,,,
,,,,,,,,,,,,,,p,1,2.21096,space,0.379845,0,20,20,54,1,9_dist_red/trial5.png,,,1,9,redHorizontal,p,30,20,Male,2021-02-17_13h42.51.343,exp11,2020.2.6,Win32,60,,,,,,,,,,,
,,,,,,,,,,,,,,a,1,1.537035,space,0.43519,0,21,21,188,1,0_targ_16_dist_red/trial14.png,,,0,16,redHorizontal,a,30,20,Male,2021-02-17_13h42.51.343,exp11,2020.2.6,Win32,60,,,,,,,,,,,
,,,,,,,,,,,,,,a,1,1.226295,space,0.38111,0,22,22,121,1,0_targ_1_dist_red/trial22.png,,,0,1,redHorizontal,a,30,20,Male,2021-02-17_13h42.51.343,exp11,2020.2.6,Win32,60,,,,,,,,,,,
,,,,,,,,,,,,,,a,1,1.198015,space,0.384145,0,23,23,125,1,0_targ_4_dist_red/trial1.png,,,0,4,redHorizontal,a,30,20,Male,2021-02-17_13h42.51.343,exp11,2020.2.6,Win32,60,,,,,,,,,,,
,,,,,,,,,,,,,,p,1,1.961455,space,0.375705,0,24,24,73,1,9_dist_red/trial24.png,,,1,9,redHorizontal,p,30,20,Male,2021-02-17_13h42.51.343,exp11,2020.2.6,Win32,60,,,,,,,,,,,
,,,,,,,,,,,,,,p,1,1.06178,space,0.38385,0,25,25,62,1,9_dist_red/trial13.png,,,1,9,redHorizontal,p,30,20,Male,2021-02-17_13h42.51.343,exp11,2020.2.6,Win32,60,,,,,,,,,,,
,,,,,,,,,,,,,,a,1,1.634985,space,0.41327,0,26,26,185,1,0_targ_16_dist_red/trial11.png,,,0,16,redHorizontal,a,30,20,Male,2021-02-17_13h42.51.343,exp11,2020.2.6,Win32,60,,,,,,,,,,,
,,,,,,,,,,,,,,p,1,1.148555,space,0.31871,0,27,27,91,1,15_dist_red/trial17.png,,,1,15,redHorizontal,p,30,20,Male,2021-02-17_13h42.51.343,exp11,2020.2.6,Win32,60,,,,,,,,,,,
,,,,,,,,,,,,,,a,1,0.958975,space,0.3234,0,28,28,123,1,0_targ_1_dist_red/trial24.png,,,0,1,redHorizontal,a,30,20,Male,2021-02-17_13h42.51.343,exp11,2020.2.6,Win32,60,,,,,,,,,,,
,,,,,,,,,,,,,,a,1,1.97025,space,0.407285,0,29,29,154,1,0_targ_10_dist_red/trial5.png,,,0,10,redHorizontal,a,30,20,Male,2021-02-17_13h42.51.343,exp11,2020.2.6,Win32,60,,,,,,,,,,,
,,,,,,,,,,,,,,a,1,0.83022,space,0.31613,0,30,30,115,1,0_targ_1_dist_red/trial6.png,,,0,1,redHorizontal,a,30,20,Male,2021-02-17_13h42.51.343,exp11,2020.2.6,Win32,60,,,,,,,,,,,
,,,,,,,,,,,,,,p,1,1.12619,space,0.270265,0,31,31,86,1,15_dist_red/trial12.png,,,1,15,redHorizontal,p,30,20,Male,2021-02-17_13h42.51.343,exp11,2020.2.6,Win32,60,,,,,,,,,,,
,,,,,,,,,,,,,,a,1,2.00918,space,0.284155,0,32,32,176,1,0_targ_16_dist_red/trial2.png,,,0,16,redHorizontal,a,30,20,Male,2021-02-17_13h42.51.343,exp11,2020.2.6,Win32,60,,,,,,,,,,,
,,,,,,,,,,,,,,a,1,1.947095,space,0.3036,0,33,33,174,1,0_targ_10_dist_red/trial25.png,,,0,10,redHorizontal,a,30,20,Male,2021-02-17_13h42.51.343,exp11,2020.2.6,Win32,60,,,,,,,,,,,
,,,,,,,,,,,,,,p,1,1.465785,space,0.30072,0,34,34,96,1,15_dist_red/trial22.png,,,1,15,redHorizontal,p,30,20,Male,2021-02-17_13h42.51.343,exp11,2020.2.6,Win32,60,,,,,,,,,,,
,,,,,,,,,,,,,,a,1,1.592965,space,0.342395,0,35,35,196,1,0_targ_16_dist_red/trial22.png,,,0,16,redHorizontal,a,30,20,Male,2021-02-17_13h42.51.343,exp11,2020.2.6,Win32,60,,,,,,,,,,,
,,,,,,,,,,,,,,a,1,3.92805,space,0.30634,0,36,36,157,1,0_targ_10_dist_red/trial8.png,,,0,10,redHorizontal,a,30,20,Male,2021-02-17_13h42.51.343,exp11,2020.2.6,Win32,60,,,,,,,,,,,
,,,,,,,,,,,,,,p,1,1.773265,space,0.276865,0,37,37,38,1,3_dist_red/trial14.png,,,1,3,redHorizontal,p,30,20,Male,2021-02-17_13h42.51.343,exp11,2020.2.6,Win32,60,,,,,,,,,,,
,,,,,,,,,,,,,,a,1,1.859355,space,0.302585,0,38,38,178,1,0_targ_16_dist_red/trial4.png,,,0,16,redHorizontal,a,30,20,Male,2021-02-17_13h42.51.343,exp11,2020.2.6,Win32,60,,,,,,,,,,,
,,,,,,,,,,,,,,p,1,1.314895,space,0.23383,0,39,39,2,1,0_dist_red/trial3.png,,,1,0,redHorizontal,p,30,20,Male,2021-02-17_13h42.51.343,exp11,2020.2.6,Win32,60,,,,,,,,,,,
,,,,,,,,,,,,,,a,1,1.302565,space,0.21896,0,40,40,180,1,0_targ_16_dist_red/trial6.png,,,0,16,redHorizontal,a,30,20,Male,2021-02-17_13h42.51.343,exp11,2020.2.6,Win32,60,,,,,,,,,,,
,,,,,,,,,,,,,,a,1,1.380965,space,0.2638,0,41,41,139,1,0_targ_4_dist_red/trial15.png,,,0,4,redHorizontal,a,30,20,Male,2021-02-17_13h42.51.343,exp11,2020.2.6,Win32,60,,,,,,,,,,,
,,,,,,,,,,,,,,a,1,0.94498,space,0.317,0,42,42,140,1,0_targ_4_dist_red/trial6.png,,,0,4,redHorizontal,a,30,20,Male,2021-02-17_13h42.51.343,exp11,2020.2.6,Win32,60,,,,,,,,,,,
,,,,,,,,,,,,,,p,1,1.68259,space,0.210645,0,43,43,61,1,9_dist_red/trial12.png,,,1,9,redHorizontal,p,30,20,Male,2021-02-17_13h42.51.343,exp11,2020.2.6,Win32,60,,,,,,,,,,,
,,,,,,,,,,,,,,a,1,1.12197,space,0.250825,0,44,44,149,1,0_targ_4_dist_red/trial25.png,,,0,4,redHorizontal,a,30,20,Male,2021-02-17_13h42.51.343,exp11,2020.2.6,Win32,60,,,,,,,,,,,
,,,,,,,,,,,,,,a,1,1.37833,space,0.267295,0,45,45,183,1,0_targ_16_dist_red/trial9.png,,,0,16,redHorizontal,a,30,20,Male,2021-02-17_13h42.51.343,exp11,2020.2.6,Win32,60,,,,,,,,,,,
,,,,,,,,,,,,,,p,1,1.137605,space,0.232835,0,46,46,41,1,3_dist_red/trial17.png,,,1,3,redHorizontal,p,30,20,Male,2021-02-17_13h42.51.343,exp11,2020.2.6,Win32,60,,,,,,,,,,,
,,,,,,,,,,,,,,a,1,1.34656,space,0.203975,0,47,47,117,1,0_targ_1_dist_red/trial18.png,,,0,1,redHorizontal,a,30,20,Male,2021-02-17_13h42.51.343,exp11,2020.2.6,Win32,60,,,,,,,,,,,
,,,,,,,,,,,,,,p,1,0.907265,space,0.29141,0,48,48,11,1,0_dist_red/trial12.png,,,1,0,redHorizontal,p,30,20,Male,2021-02-17_13h42.51.343,exp11,2020.2.6,Win32,60,,,,,,,,,,,
,,,,,,,,,,,,,,a,1,1.46894,space,0.28576,0,49,49,112,1,0_targ_1_dist_red/trial13.png,,,0,1,redHorizontal,a,30,20,Male,2021-02-17_13h42.51.343,exp11,2020.2.6,Win32,60,,,,,,,,,,,
,,,,,,,,,,,,,,p,1,0.914935,space,0.261085,0,50,50,72,1,9_dist_red/trial23.png,,,1,9,redHorizontal,p,30,20,Male,2021-02-17_13h42.51.343,exp11,2020.2.6,Win32,60,,,,,,,,,,,
,,,,,,,,,,,,,,a,1,1.56152,space,0.217555,0,51,51,156,1,0_targ_10_dist_red/trial7.png,,,0,10,redHorizontal,a,30,20,Male,2021-02-17_13h42.51.343,exp11,2020.2.6,Win32,60,,,,,,,,,,,
,,,,,,,,,,,,,,p,1,0.966845,space,0.236675,0,52,52,22,1,0_dist_red/trial23.png,,,1,0,redHorizontal,p,30,20,Male,2021-02-17_13h42.51.343,exp11,2020.2.6,Win32,60,,,,,,,,,,,
,,,,,,,,,,,,,,a,1,1.056525,space,0.253565,0,53,53,126,1,0_targ_4_dist_red/trial2.png,,,0,4,redHorizontal,a,30,20,Male,2021-02-17_13h42.51.343,exp11,2020.2.6,Win32,60,,,,,,,,,,,
,,,,,,,,,,,,,,p,1,1.627955,space,0.27942,0,54,54,64,1,9_dist_red/trial15.png,,,1,9,redHorizontal,p,30,20,Male,2021-02-17_13h42.51.343,exp11,2020.2.6,Win32,60,,,,,,,,,,,
,,,,,,,,,,,,,,p,1,1.49464,space,0.26134,0,55,55,53,1,9_dist_red/trial4.png,,,1,9,redHorizontal,p,30,20,Male,2021-02-17_13h42.51.343,exp11,2020.2.6,Win32,60,,,,,,,,,,,
,,,,,,,,,,,,,,p,1,1.44002,space,0.24551,0,56,56,55,1,9_dist_red/trial6.png,,,1,9,redHorizontal,p,30,20,Male,2021-02-17_13h42.51.343,exp11,2020.2.6,Win32,60,,,,,,,,,,,
,,,,,,,,,,,,,,p,1,0.798565,space,0.23752,0,57,57,18,1,0_dist_red/trial19.png,,,1,0,redHorizontal,p,30,20,Male,2021-02-17_13h42.51.343,exp11,2020.2.6,Win32,60,,,,,,,,,,,
,,,,,,,,,,,,,,a,1,1.23971,space,0.495675,0,58,58,144,1,0_targ_4_dist_red/trial20.png,,,0,4,redHorizontal,a,30,20,Male,2021-02-17_13h42.51.343,exp11,2020.2.6,Win32,60,,,,,,,,,,,
,,,,,,,,,,,,,,p,1,1.280015,space,0.30224,0,59,59,94,1,15_dist_red/trial20.png,,,1,15,redHorizontal,p,30,20,Male,2021-02-17_13h42.51.343,exp11,2020.2.6,Win32,60,,,,,,,,,,,
,,,,,,,,,,,,,,a,1,1.311365,space,0.30444,0,60,60,167,1,0_targ_10_dist_red/trial18.png,,,0,10,redHorizontal,a,30,20,Male,2021-02-17_13h42.51.343,exp11,2020.2.6,Win32,60,,,,,,,,,,,
,,,,,,,,,,,,,,a,0,1.12266,space,3.34428,0,61,61,45,1,3_dist_red/trial21.png,,,1,3,redHorizontal,p,30,20,Male,2021-02-17_13h42.51.343,exp11,2020.2.6,Win32,60,,,,,,,,,,,
,,,,,,,,,,,,,,a,1,1.880855,space,1.094045,0,62,62,141,1,0_targ_4_dist_red/trial17.png,,,0,4,redHorizontal,a,30,20,Male,2021-02-17_13h42.51.343,exp11,2020.2.6,Win32,60,,,,,,,,,,,
,,,,,,,,,,,,,,p,1,1.877805,space,0.61891,0,63,63,60,1,9_dist_red/trial11.png,,,1,9,redHorizontal,p,30,20,Male,2021-02-17_13h42.51.343,exp11,2020.2.6,Win32,60,,,,,,,,,,,
,,,,,,,,,,,,,,a,1,4.74514,space,0.651055,0,64,64,197,1,0_targ_16_dist_red/trial23.png,,,0,16,redHorizontal,a,30,20,Male,2021-02-17_13h42.51.343,exp11,2020.2.6,Win32,60,,,,,,,,,,,
,,,,,,,,,,,,,,a,1,1.442735,space,0.367325,0,65,65,114,1,0_targ_1_dist_red/trial15.png,,,0,1,redHorizontal,a,30,20,Male,2021-02-17_13h42.51.343,exp11,2020.2.6,Win32,60,,,,,,,,,,,
,,,,,,,,,,,,,,p,1,1.158865,space,0.344225,0,66,66,5,1,0_dist_red/trial6.png,,,1,0,redHorizontal,p,30,20,Male,2021-02-17_13h42.51.343,exp11,2020.2.6,Win32,60,,,,,,,,,,,
,,,,,,,,,,,,,,p,1,1.27308,space,0.336315,0,67,67,59,1,9_dist_red/trial10.png,,,1,9,redHorizontal,p,30,20,Male,2021-02-17_13h42.51.343,exp11,2020.2.6,Win32,60,,,,,,,,,,,
,,,,,,,,,,,,,,p,1,1.20748,space,0.305185,0,68,68,68,1,9_dist_red/trial19.png,,,1,9,redHorizontal,p,30,20,Male,2021-02-17_13h42.51.343,exp11,2020.2.6,Win32,60,,,,,,,,,,,
,,,,,,,,,,,,,,p,1,0.86168,space,0.280245,0,69,69,16,1,0_dist_red/trial17.png,,,1,0,redHorizontal,p,30,20,Male,2021-02-17_13h42.51.343,exp11,2020.2.6,Win32,60,,,,,,,,,,,
,,,,,,,,,,,,,,p,1,1.555045,space,0.288725,0,70,70,75,1,15_dist_red/trial1.png,,,1,15,redHorizontal,p,30,20,Male,2021-02-17_13h42.51.343,exp11,2020.2.6,Win32,60,,,,,,,,,,,
,,,,,,,,,,,,,,p,1,0.82742,space,0.29105,0,71,71,1,1,0_dist_red/trial2.png,,,1,0,redHorizontal,p,30,20,Male,2021-02-17_13h42.51.343,exp11,2020.2.6,Win32,60,,,,,,,,,,,
,,,,,,,,,,,,,,p,1,1.42985,space,0.47126,0,72,72,47,1,3_dist_red/trial23.png,,,1,3,redHorizontal,p,30,20,Male,2021-02-17_13h42.51.343,exp11,2020.2.6,Win32,60,,,,,,,,,,,
,,,,,,,,,,,,,,a,1,1.104235,space,0.30852,0,73,73,111,1,0_targ_1_dist_red/trial12.png,,,0,1,redHorizontal,a,30,20,Male,2021-02-17_13h42.51.343,exp11,2020.2.6,Win32,60,,,,,,,,,,,
,,,,,,,,,,,,,,p,1,1.27942,space,0.25339,0,74,74,4,1,0_dist_red/trial5.png,,,1,0,redHorizontal,p,30,20,Male,2021-02-17_13h42.51.343,exp11,2020.2.6,Win32,60,,,,,,,,,,,
,,,,,,,,,,,,,,a,1,1.76096,space,0.36781,0,75,75,194,1,0_targ_16_dist_red/trial20.png,,,0,16,redHorizontal,a,30,20,Male,2021-02-17_13h42.51.343,exp11,2020.2.6,Win32,60,,,,,,,,,,,
,,,,,,,,,,,,,,a,1,2.347125,space,0.908915,0,76,76,168,1,0_targ_10_dist_red/trial19.png,,,0,10,redHorizontal,a,30,20,Male,2021-02-17_13h42.51.343,exp11,2020.2.6,Win32,60,,,,,,,,,,,
,,,,,,,,,,,,,,a,1,0.96104,space,0.29278,0,77,77,113,1,0_targ_1_dist_red/trial14.png,,,0,1,redHorizontal,a,30,20,Male,2021-02-17_13h42.51.343,exp11,2020.2.6,Win32,60,,,,,,,,,,,
,,,,,,,,,,,,,,a,1,2.32856,space,0.265625,0,78,78,136,1,0_targ_4_dist_red/trial12.png,,,0,4,redHorizontal,a,30,20,Male,2021-02-17_13h42.51.343,exp11,2020.2.6,Win32,60,,,,,,,,,,,
,,,,,,,,,,,,,,a,1,1.994595,space,0.28411,0,79,79,187,1,0_targ_16_dist_red/trial13.png,,,0,16,redHorizontal,a,30,20,Male,2021-02-17_13h42.51.343,exp11,2020.2.6,Win32,60,,,,,,,,,,,
,,,,,,,,,,,,,,a,1,1.442795,space,0.38848,0,80,80,130,1,0_targ_4_dist_red/trial6.png,,,0,4,redHorizontal,a,30,20,Male,2021-02-17_13h42.51.343,exp11,2020.2.6,Win32,60,,,,,,,,,,,
,,,,,,,,,,,,,,p,1,0.92204,space,0.301,0,81,81,3,1,0_dist_red/trial4.png,,,1,0,redHorizontal,p,30,20,Male,2021-02-17_13h42.51.343,exp11,2020.2.6,Win32,60,,,,,,,,,,,
,,,,,,,,,,,,,,a,1,2.21247,space,0.35875,0,82,82,181,1,0_targ_16_dist_red/trial7.png,,,0,16,redHorizontal,a,30,20,Male,2021-02-17_13h42.51.343,exp11,2020.2.6,Win32,60,,,,,,,,,,,
,,,,,,,,,,,,,,p,1,2.747905,space,0.23622,0,83,83,98,1,15_dist_red/trial24.png,,,1,15,redHorizontal,p,30,20,Male,2021-02-17_13h42.51.343,exp11,2020.2.6,Win32,60,,,,,,,,,,,
,,,,,,,,,,,,,,a,1,1.562755,space,0.26812,0,84,84,177,1,0_targ_16_dist_red/trial3.png,,,0,16,redHorizontal,a,30,20,Male,2021-02-17_13h42.51.343,exp11,2020.2.6,Win32,60,,,,,,,,,,,
,,,,,,,,,,,,,,a,1,2.42408,space,0.326405,0,85,85,171,1,0_targ_10_dist_red/trial22.png,,,0,10,redHorizontal,a,30,20,Male,2021-02-17_13h42.51.343,exp11,2020.2.6,Win32,60,,,,,,,,,,,
,,,,,,,,,,,,,,p,1,1.09497,space,0.218465,0,86,86,7,1,0_dist_red/trial8.png,,,1,0,redHorizontal,p,30,20,Male,2021-02-17_13h42.51.343,exp11,2020.2.6,Win32,60,,,,,,,,,,,
,,,,,,,,,,,,,,a,1,1.077885,space,0.31743,0,87,87,105,1,0_targ_1_dist_red/trial6.png,,,0,1,redHorizontal,a,30,20,Male,2021-02-17_13h42.51.343,exp11,2020.2.6,Win32,60,,,,,,,,,,,
,,,,,,,,,,,,,,p,1,1.68787,space,0.2768,0,88,88,95,1,15_dist_red/trial21.png,,,1,15,redHorizontal,p,30,20,Male,2021-02-17_13h42.51.343,exp11,2020.2.6,Win32,60,,,,,,,,,,,
,,,,,,,,,,,,,,a,1,1.811575,space,0.40125,0,89,89,190,1,0_targ_16_dist_red/trial16.png,,,0,16,redHorizontal,a,30,20,Male,2021-02-17_13h42.51.343,exp11,2020.2.6,Win32,60,,,,,,,,,,,
,,,,,,,,,,,,,,p,1,1.14283,space,0.29056,0,90,90,87,1,15_dist_red/trial13.png,,,1,15,redHorizontal,p,30,20,Male,2021-02-17_13h42.51.343,exp11,2020.2.6,Win32,60,,,,,,,,,,,
,,,,,,,,,,,,,,a,1,0.883325,space,0.291785,0,91,91,103,1,0_targ_1_dist_red/trial4.png,,,0,1,redHorizontal,a,30,20,Male,2021-02-17_13h42.51.343,exp11,2020.2.6,Win32,60,,,,,,,,,,,
,,,,,,,,,,,,,,p,1,1.284415,space,0.392585,0,92,92,80,1,15_dist_red/trial6.png,,,1,15,redHorizontal,p,30,20,Male,2021-02-17_13h42.51.343,exp11,2020.2.6,Win32,60,,,,,,,,,,,
,,,,,,,,,,,,,,a,1,1.184125,space,0.321145,0,93,93,132,1,0_targ_4_dist_red/trial8.png,,,0,4,redHorizontal,a,30,20,Male,2021-02-17_13h42.51.343,exp11,2020.2.6,Win32,60,,,,,,,,,,,
,,,,,,,,,,,,,,a,1,2.274355,space,0.462855,0,94,94,170,1,0_targ_10_dist_red/trial21.png,,,0,10,redHorizontal,a,30,20,Male,2021-02-17_13h42.51.343,exp11,2020.2.6,Win32,60,,,,,,,,,,,
,,,,,,,,,,,,,,a,1,1.62755,space,0.265465,0,95,95,186,1,0_targ_16_dist_red/trial12.png,,,0,16,redHorizontal,a,30,20,Male,2021-02-17_13h42.51.343,exp11,2020.2.6,Win32,60,,,,,,,,,,,
,,,,,,,,,,,,,,a,1,1.68141,space,0.313565,0,96,96,163,1,0_targ_10_dist_red/trial14.png,,,0,10,redHorizontal,a,30,20,Male,2021-02-17_13h42.51.343,exp11,2020.2.6,Win32,60,,,,,,,,,,,
,,,,,,,,,,,,,,p,1,1.13818,space,0.28431,0,97,97,79,1,15_dist_red/trial5.png,,,1,15,redHorizontal,p,30,20,Male,2021-02-17_13h42.51.343,exp11,2020.2.6,Win32,60,,,,,,,,,,,
,,,,,,,,,,,,,,p,1,1.52786,space,0.327765,0,98,98,71,1,9_dist_red/trial22.png,,,1,9,redHorizontal,p,30,20,Male,2021-02-17_13h42.51.343,exp11,2020.2.6,Win32,60,,,,,,,,,,,
,,,,,,,,,,,,,,p,1,0.977875,space,0.311985,0,99,99,21,1,0_dist_red/trial22.png,,,1,0,redHorizontal,p,30,20,Male,2021-02-17_13h42.51.343,exp11,2020.2.6,Win32,60,,,,,,,,,,,
,,,,,,,,,,,,,,a,1,1.54475,space,0.334445,0,100,100,184,1,0_targ_16_dist_red/trial10.png,,,0,16,redHorizontal,a,30,20,Male,2021-02-17_13h42.51.343,exp11,2020.2.6,Win32,60,,,,,,,,,,,
,,,,,,,,,,,,,,a,1,2.359845,space,0.42235,0,101,101,164,1,0_targ_10_dist_red/trial15.png,,,0,10,redHorizontal,a,30,20,Male,2021-02-17_13h42.51.343,exp11,2020.2.6,Win32,60,,,,,,,,,,,
,,,,,,,,,,,,,,a,1,1.028365,space,0.351165,0,102,102,122,1,0_targ_1_dist_red/trial23.png,,,0,1,redHorizontal,a,30,20,Male,2021-02-17_13h42.51.343,exp11,2020.2.6,Win32,60,,,,,,,,,,,
,,,,,,,,,,,,,,a,1,0.97814,space,0.341525,0,103,103,102,1,0_targ_1_dist_red/trial3.png,,,0,1,redHorizontal,a,30,20,Male,2021-02-17_13h42.51.343,exp11,2020.2.6,Win32,60,,,,,,,,,,,
,,,,,,,,,,,,,,a,1,1.22115,space,0.365785,0,104,104,172,1,0_targ_10_dist_red/trial23.png,,,0,10,redHorizontal,a,30,20,Male,2021-02-17_13h42.51.343,exp11,2020.2.6,Win32,60,,,,,,,,,,,
,,,,,,,,,,,,,,p,1,1.98044,space,0.35403,0,105,105,93,1,15_dist_red/trial19.png,,,1,15,redHorizontal,p,30,20,Male,2021-02-17_13h42.51.343,exp11,2020.2.6,Win32,60,,,,,,,,,,,
,,,,,,,,,,,,,,p,1,1.088825,space,0.30081,0,106,106,42,1,3_dist_red/trial18.png,,,1,3,redHorizontal,p,30,20,Male,2021-02-17_13h42.51.343,exp11,2020.2.6,Win32,60,,,,,,,,,,,
,,,,,,,,,,,,,,p,1,1.11165,space,0.375195,0,107,107,84,1,15_dist_red/trial10.png,,,1,15,redHorizontal,p,30,20,Male,2021-02-17_13h42.51.343,exp11,2020.2.6,Win32,60,,,,,,,,,,,
,,,,,,,,,,,,,,p,1,0.99623,space,0.335795,0,108,108,97,1,15_dist_red/trial23.png,,,1,15,redHorizontal,p,30,20,Male,2021-02-17_13h42.51.343,exp11,2020.2.6,Win32,60,,,,,,,,,,,
,,,,,,,,,,,,,,p,1,0.844895,space,0.334865,0,109,109,31,1,3_dist_red/trial7.png,,,1,3,redHorizontal,p,30,20,Male,2021-02-17_13h42.51.343,exp11,2020.2.6,Win32,60,,,,,,,,,,,
,,,,,,,,,,,,,,a,1,1.52799,space,0.29885,0,110,110,151,1,0_targ_10_dist_red/trial2.png,,,0,10,redHorizontal,a,30,20,Male,2021-02-17_13h42.51.343,exp11,2020.2.6,Win32,60,,,,,,,,,,,
,,,,,,,,,,,,,,a,1,1.77869,space,0.30092,0,111,111,198,1,0_targ_16_dist_red/trial24.png,,,0,16,redHorizontal,a,30,20,Male,2021-02-17_13h42.51.343,exp11,2020.2.6,Win32,60,,,,,,,,,,,
,,,,,,,,,,,,,,a,1,0.897775,space,0.279515,0,112,112,104,1,0_targ_1_dist_red/trial5.png,,,0,1,redHorizontal,a,30,20,Male,2021-02-17_13h42.51.343,exp11,2020.2.6,Win32,60,,,,,,,,,,,
,,,,,,,,,,,,,,a,1,0.945885,space,0.25962,0,113,113,142,1,0_targ_4_dist_red/trial18.png,,,0,4,redHorizontal,a,30,20,Male,2021-02-17_13h42.51.343,exp11,2020.2.6,Win32,60,,,,,,,,,,,
,,,,,,,,,,,,,,a,1,1.2653,space,0.23607,0,114,114,165,1,0_targ_10_dist_red/trial16.png,,,0,10,redHorizontal,a,30,20,Male,2021-02-17_13h42.51.343,exp11,2020.2.6,Win32,60,,,,,,,,,,,
,,,,,,,,,,,,,,a,1,0.927715,space,0.265595,0,115,115,131,1,0_targ_4_dist_red/trial7.png,,,0,4,redHorizontal,a,30,20,Male,2021-02-17_13h42.51.343,exp11,2020.2.6,Win32,60,,,,,,,,,,,
,,,,,,,,,,,,,,p,1,1.07781,space,0.249435,0,116,116,99,1,15_dist_red/trial25.png,,,1,15,redHorizontal,p,30,20,Male,2021-02-17_13h42.51.343,exp11,2020.2.6,Win32,60,,,,,,,,,,,
,,,,,,,,,,,,,,p,1,0.92779,space,0.250535,0,117,117,35,1,3_dist_red/trial11.png,,,1,3,redHorizontal,p,30,20,Male,2021-02-17_13h42.51.343,exp11,2020.2.6,Win32,60,,,,,,,,,,,
,,,,,,,,,,,,,,a,1,1.61109,space,0.267695,0,118,118,158,1,0_targ_10_dist_red/trial9.png,,,0,10,redHorizontal,a,30,20,Male,2021-02-17_13h42.51.343,exp11,2020.2.6,Win32,60,,,,,,,,,,,
,,,,,,,,,,,,,,p,1,0.85963,space,0.251175,0,119,119,9,1,0_dist_red/trial10.png,,,1,0,redHorizontal,p,30,20,Male,2021-02-17_13h42.51.343,exp11,2020.2.6,Win32,60,,,,,,,,,,,
,,,,,,,,,,,,,,p,1,1.95139,space,0.20595,0,120,120,85,1,15_dist_red/trial11.png,,,1,15,redHorizontal,p,30,20,Male,2021-02-17_13h42.51.343,exp11,2020.2.6,Win32,60,,,,,,,,,,,
,,,,,,,,,,,,,,a,1,0.97151,space,0.22737,0,121,121,110,1,0_targ_1_dist_red/trial11.png,,,0,1,redHorizontal,a,30,20,Male,2021-02-17_13h42.51.343,exp11,2020.2.6,Win32,60,,,,,,,,,,,
,,,,,,,,,,,,,,a,1,1.773705,space,0.276035,0,122,122,179,1,0_targ_16_dist_red/trial5.png,,,0,16,redHorizontal,a,30,20,Male,2021-02-17_13h42.51.343,exp11,2020.2.6,Win32,60,,,,,,,,,,,
,,,,,,,,,,,,,,a,1,1.94311,space,0.251205,0,123,123,199,1,0_targ_16_dist_red/trial25.png,,,0,16,redHorizontal,a,30,20,Male,2021-02-17_13h42.51.343,exp11,2020.2.6,Win32,60,,,,,,,,,,,
,,,,,,,,,,,,,,p,1,1.210445,space,0.36768,0,124,124,58,1,9_dist_red/trial9.png,,,1,9,redHorizontal,p,30,20,Male,2021-02-17_13h42.51.343,exp11,2020.2.6,Win32,60,,,,,,,,,,,
,,,,,,,,,,,,,,p,1,1.8873,space,0.21038,0,125,125,34,1,3_dist_red/trial10.png,,,1,3,redHorizontal,p,30,20,Male,2021-02-17_13h42.51.343,exp11,2020.2.6,Win32,60,,,,,,,,,,,
,,,,,,,,,,,,,,p,1,1.01479,space,0.266945,0,126,126,66,1,9_dist_red/trial17.png,,,1,9,redHorizontal,p,30,20,Male,2021-02-17_13h42.51.343,exp11,2020.2.6,Win32,60,,,,,,,,,,,
,,,,,,,,,,,,,,p,1,1.3275,space,0.25431,0,127,127,29,1,3_dist_red/trial5.png,,,1,3,redHorizontal,p,30,20,Male,2021-02-17_13h42.51.343,exp11,2020.2.6,Win32,60,,,,,,,,,,,
,,,,,,,,,,,,,,p,1,0.887395,space,0.32299,0,128,128,14,1,0_dist_red/trial15.png,,,1,0,redHorizontal,p,30,20,Male,2021-02-17_13h42.51.343,exp11,2020.2.6,Win32,60,,,,,,,,,,,
,,,,,,,,,,,,,,p,1,1.17062,space,0.28972,0,129,129,70,1,9_dist_red/trial21.png,,,1,9,redHorizontal,p,30,20,Male,2021-02-17_13h42.51.343,exp11,2020.2.6,Win32,60,,,,,,,,,,,
,,,,,,,,,,,,,,p,1,1.04419,space,0.3342,0,130,130,40,1,3_dist_red/trial16.png,,,1,3,redHorizontal,p,30,20,Male,2021-02-17_13h42.51.343,exp11,2020.2.6,Win32,60,,,,,,,,,,,
,,,,,,,,,,,,,,p,1,0.939705,space,0.30409,0,131,131,50,1,9_dist_red/trial1.png,,,1,9,redHorizontal,p,30,20,Male,2021-02-17_13h42.51.343,exp11,2020.2.6,Win32,60,,,,,,,,,,,
,,,,,,,,,,,,,,a,1,1.44356,space,0.32939,0,132,132,195,1,0_targ_16_dist_red/trial21.png,,,0,16,redHorizontal,a,30,20,Male,2021-02-17_13h42.51.343,exp11,2020.2.6,Win32,60,,,,,,,,,,,
,,,,,,,,,,,,,,p,1,0.936025,space,0.385875,0,133,133,63,1,9_dist_red/trial14.png,,,1,9,redHorizontal,p,30,20,Male,2021-02-17_13h42.51.343,exp11,2020.2.6,Win32,60,,,,,,,,,,,
,,,,,,,,,,,,,,p,1,0.928835,space,0.36867,0,134,134,26,1,3_dist_red/trial2.png,,,1,3,redHorizontal,p,30,20,Male,2021-02-17_13h42.51.343,exp11,2020.2.6,Win32,60,,,,,,,,,,,
,,,,,,,,,,,,,,a,1,1.22069,space,0.474425,0,135,135,189,1,0_targ_16_dist_red/trial15.png,,,0,16,redHorizontal,a,30,20,Male,2021-02-17_13h42.51.343,exp11,2020.2.6,Win32,60,,,,,,,,,,,
,,,,,,,,,,,,,,p,1,1.082365,space,0.395945,0,136,136,49,1,3_dist_red/trial25.png,,,1,3,redHorizontal,p,30,20,Male,2021-02-17_13h42.51.343,exp11,2020.2.6,Win32,60,,,,,,,,,,,
,,,,,,,,,,,,,,a,1,1.40953,space,0.34909,0,137,137,118,1,0_targ_1_dist_red/trial19.png,,,0,1,redHorizontal,a,30,20,Male,2021-02-17_13h42.51.343,exp11,2020.2.6,Win32,60,,,,,,,,,,,
,,,,,,,,,,,,,,p,1,1.02778,space,0.32476,0,138,138,69,1,9_dist_red/trial20.png,,,1,9,redHorizontal,p,30,20,Male,2021-02-17_13h42.51.343,exp11,2020.2.6,Win32,60,,,,,,,,,,,
,,,,,,,,,,,,,,a,1,0.91438,space,0.36084,0,139,139,106,1,0_targ_1_dist_red/trial7.png,,,0,1,redHorizontal,a,30,20,Male,2021-02-17_13h42.51.343,exp11,2020.2.6,Win32,60,,,,,,,,,,,
,,,,,,,,,,,,,,p,1,1.04557,space,0.41956,0,140,140,52,1,9_dist_red/trial3.png,,,1,9,redHorizontal,p,30,20,Male,2021-02-17_13h42.51.343,exp11,2020.2.6,Win32,60,,,,,,,,,,,
,,,,,,,,,,,,,,a,1,1.24372,space,0.46179,0,141,141,159,1,0_targ_10_dist_red/trial10.png,,,0,10,redHorizontal,a,30,20,Male,2021-02-17_13h42.51.343,exp11,2020.2.6,Win32,60,,,,,,,,,,,
,,,,,,,,,,,,,,a,1,1.079725,space,0.313555,0,142,142,138,1,0_targ_4_dist_red/trial14.png,,,0,4,redHorizontal,a,30,20,Male,2021-02-17_13h42.51.343,exp11,2020.2.6,Win32,60,,,,,,,,,,,
,,,,,,,,,,,,,,p,1,0.895545,space,0.367565,0,143,143,13,1,0_dist_red/trial14.png,,,1,0,redHorizontal,p,30,20,Male,2021-02-17_13h42.51.343,exp11,2020.2.6,Win32,60,,,,,,,,,,,
,,,,,,,,,,,,,,a,1,1.295735,space,0.33422,0,144,144,166,1,0_targ_10_dist_red/trial17.png,,,0,10,redHorizontal,a,30,20,Male,2021-02-17_13h42.51.343,exp11,2020.2.6,Win32,60,,,,,,,,,,,
,,,,,,,,,,,,,,p,1,0.889095,space,0.32468,0,145,145,36,1,3_dist_red/trial12.png,,,1,3,redHorizontal,p,30,20,Male,2021-02-17_13h42.51.343,exp11,2020.2.6,Win32,60,,,,,,,,,,,
,,,,,,,,,,,,,,p,1,1.166915,space,0.34485,0,146,146,89,1,15_dist_red/trial15.png,,,1,15,redHorizontal,p,30,20,Male,2021-02-17_13h42.51.343,exp11,2020.2.6,Win32,60,,,,,,,,,,,
,,,,,,,,,,,,,,a,1,0.88823,space,0.40952,0,147,147,119,1,0_targ_1_dist_red/trial20.png,,,0,1,redHorizontal,a,30,20,Male,2021-02-17_13h42.51.343,exp11,2020.2.6,Win32,60,,,,,,,,,,,
,,,,,,,,,,,,,,p,1,1.67148,space,0.412325,0,148,148,77,1,15_dist_red/trial3.png,,,1,15,redHorizontal,p,30,20,Male,2021-02-17_13h42.51.343,exp11,2020.2.6,Win32,60,,,,,,,,,,,
,,,,,,,,,,,,,,a,1,1.310865,space,0.38436,0,149,149,101,1,0_targ_1_dist_red/trial2.png,,,0,1,redHorizontal,a,30,20,Male,2021-02-17_13h42.51.343,exp11,2020.2.6,Win32,60,,,,,,,,,,,
,,,,,,,,,,,,,,p,1,0.78641,space,0.382235,0,150,150,19,1,0_dist_red/trial20.png,,,1,0,redHorizontal,p,30,20,Male,2021-02-17_13h42.51.343,exp11,2020.2.6,Win32,60,,,,,,,,,,,
,,,,,,,,,,,,,,p,1,0.933835,space,0.382455,0,151,151,56,1,9_dist_red/trial7.png,,,1,9,redHorizontal,p,30,20,Male,2021-02-17_13h42.51.343,exp11,2020.2.6,Win32,60,,,,,,,,,,,
,,,,,,,,,,,,,,p,1,0.76666,space,0.33916,0,152,152,15,1,0_dist_red/trial16.png,,,1,0,redHorizontal,p,30,20,Male,2021-02-17_13h42.51.343,exp11,2020.2.6,Win32,60,,,,,,,,,,,
,,,,,,,,,,,,,,p,1,0.92807,space,0.376145,0,153,153,44,1,3_dist_red/trial20.png,,,1,3,redHorizontal,p,30,20,Male,2021-02-17_13h42.51.343,exp11,2020.2.6,Win32,60,,,,,,,,,,,
,,,,,,,,,,,,,,p,1,0.844025,space,0.34604,0,154,154,33,1,3_dist_red/trial9.png,,,1,3,redHorizontal,p,30,20,Male,2021-02-17_13h42.51.343,exp11,2020.2.6,Win32,60,,,,,,,,,,,
,,,,,,,,,,,,,,a,1,1.0434,space,0.319155,0,155,155,173,1,0_targ_10_dist_red/trial24.png,,,0,10,redHorizontal,a,30,20,Male,2021-02-17_13h42.51.343,exp11,2020.2.6,Win32,60,,,,,,,,,,,
,,,,,,,,,,,,,,a,1,0.893435,space,0.31665,0,156,156,143,1,0_targ_4_dist_red/trial19.png,,,0,4,redHorizontal,a,30,20,Male,2021-02-17_13h42.51.343,exp11,2020.2.6,Win32,60,,,,,,,,,,,
,,,,,,,,,,,,,,a,0,1.182265,space,1.0511,0,157,157,57,1,9_dist_red/trial8.png,,,1,9,redHorizontal,p,30,20,Male,2021-02-17_13h42.51.343,exp11,2020.2.6,Win32,60,,,,,,,,,,,
,,,,,,,,,,,,,,a,1,1.91552,space,1.0783,0,158,158,145,1,0_targ_4_dist_red/trial21.png,,,0,4,redHorizontal,a,30,20,Male,2021-02-17_13h42.51.343,exp11,2020.2.6,Win32,60,,,,,,,,,,,
,,,,,,,,,,,,,,p,1,1.352825,space,1.09084,0,159,159,76,1,15_dist_red/trial2.png,,,1,15,redHorizontal,p,30,20,Male,2021-02-17_13h42.51.343,exp11,2020.2.6,Win32,60,,,,,,,,,,,
,,,,,,,,,,,,,,a,1,1.99777,space,0.62967,0,160,160,161,1,0_targ_10_dist_red/trial12.png,,,0,10,redHorizontal,a,30,20,Male,2021-02-17_13h42.51.343,exp11,2020.2.6,Win32,60,,,,,,,,,,,
,,,,,,,,,,,,,,a,0,0.986055,space,0.04058,0,161,161,51,1,9_dist_red/trial2.png,,,1,9,redHorizontal,p,30,20,Male,2021-02-17_13h42.51.343,exp11,2020.2.6,Win32,60,,,,,,,,,,,
,,,,,,,,,,,,,,a,1,3.106005,space,0.63427,0,162,162,137,1,0_targ_4_dist_red/trial13.png,,,0,4,redHorizontal,a,30,20,Male,2021-02-17_13h42.51.343,exp11,2020.2.6,Win32,60,,,,,,,,,,,
,,,,,,,,,,,,,,a,1,0.779335,space,0.38762,0,163,163,124,1,0_targ_1_dist_red/trial25.png,,,0,1,redHorizontal,a,30,20,Male,2021-02-17_13h42.51.343,exp11,2020.2.6,Win32,60,,,,,,,,,,,
,,,,,,,,,,,,,,a,1,1.64685,space,0.46188,0,164,164,153,1,0_targ_10_dist_red/trial4.png,,,0,10,redHorizontal,a,30,20,Male,2021-02-17_13h42.51.343,exp11,2020.2.6,Win32,60,,,,,,,,,,,
,,,,,,,,,,,,,,p,1,0.9207,space,0.469565,0,165,165,32,1,3_dist_red/trial8.png,,,1,3,redHorizontal,p,30,20,Male,2021-02-17_13h42.51.343,exp11,2020.2.6,Win32,60,,,,,,,,,,,
,,,,,,,,,,,,,,a,1,1.46859,space,0.47689,0,166,166,127,1,0_targ_4_dist_red/trial3.png,,,0,4,redHorizontal,a,30,20,Male,2021-02-17_13h42.51.343,exp11,2020.2.6,Win32,60,,,,,,,,,,,
,,,,,,,,,,,,,,p,1,1.073715,space,0.36943,0,167,167,82,1,15_dist_red/trial8.png,,,1,15,redHorizontal,p,30,20,Male,2021-02-17_13h42.51.343,exp11,2020.2.6,Win32,60,,,,,,,,,,,
,,,,,,,,,,,,,,a,1,2.778595,space,0.500525,0,168,168,193,1,0_targ_16_dist_red/trial19.png,,,0,16,redHorizontal,a,30,20,Male,2021-02-17_13h42.51.343,exp11,2020.2.6,Win32,60,,,,,,,,,,,
,,,,,,,,,,,,,,p,1,0.78362,space,0.40302,0,169,169,37,1,3_dist_red/trial13.png,,,1,3,redHorizontal,p,30,20,Male,2021-02-17_13h42.51.343,exp11,2020.2.6,Win32,60,,,,,,,,,,,
,,,,,,,,,,,,,,p,1,1.62997,space,0.551425,0,170,170,90,1,15_dist_red/trial16.png,,,1,15,redHorizontal,p,30,20,Male,2021-02-17_13h42.51.343,exp11,2020.2.6,Win32,60,,,,,,,,,,,
,,,,,,,,,,,,,,p,1,0.94198,space,0.45611,0,171,171,27,1,3_dist_red/trial3.png,,,1,3,redHorizontal,p,30,20,Male,2021-02-17_13h42.51.343,exp11,2020.2.6,Win32,60,,,,,,,,,,,
,,,,,,,,,,,,,,p,1,0.716145,space,0.34861,0,172,172,6,1,0_dist_red/trial7.png,,,1,0,redHorizontal,p,30,20,Male,2021-02-17_13h42.51.343,exp11,2020.2.6,Win32,60,,,,,,,,,,,
,,,,,,,,,,,,,,a,1,0.99503,space,0.38347,0,173,173,133,1,0_targ_4_dist_red/trial9.png,,,0,4,redHorizontal,a,30,20,Male,2021-02-17_13h42.51.343,exp11,2020.2.6,Win32,60,,,,,,,,,,,
,,,,,,,,,,,,,,p,1,0.92735,space,0.43517,0,174,174,28,1,3_dist_red/trial4.png,,,1,3,redHorizontal,p,30,20,Male,2021-02-17_13h42.51.343,exp11,2020.2.6,Win32,60,,,,,,,,,,,
,,,,,,,,,,,,,,p,1,1.37821,space,0.38416,0,175,175,65,1,9_dist_red/trial16.png,,,1,9,redHorizontal,p,30,20,Male,2021-02-17_13h42.51.343,exp11,2020.2.6,Win32,60,,,,,,,,,,,
,,,,,,,,,,,,,,p,1,0.86443,space,0.40145,0,176,176,83,1,15_dist_red/trial9.png,,,1,15,redHorizontal,p,30,20,Male,2021-02-17_13h42.51.343,exp11,2020.2.6,Win32,60,,,,,,,,,,,
,,,,,,,,,,,,,,p,1,0.713385,space,0.41647,0,177,177,17,1,0_dist_red/trial18.png,,,1,0,redHorizontal,p,30,20,Male,2021-02-17_13h42.51.343,exp11,2020.2.6,Win32,60,,,,,,,,,,,
,,,,,,,,,,,,,,p,1,0.872555,space,0.35452,0,178,178,20,1,0_dist_red/trial21.png,,,1,0,redHorizontal,p,30,20,Male,2021-02-17_13h42.51.343,exp11,2020.2.6,Win32,60,,,,,,,,,,,
,,,,,,,,,,,,,,a,1,1.129685,space,0.38905,0,179,179,129,1,0_targ_4_dist_red/trial5.png,,,0,4,redHorizontal,a,30,20,Male,2021-02-17_13h42.51.343,exp11,2020.2.6,Win32,60,,,,,,,,,,,
,,,,,,,,,,,,,,a,1,1.006445,space,0.48458,0,180,180,108,1,0_targ_1_dist_red/trial9.png,,,0,1,redHorizontal,a,30,20,Male,2021-02-17_13h42.51.343,exp11,2020.2.6,Win32,60,,,,,,,,,,,
,,,,,,,,,,,,,,a,1,1.273815,space,0.588445,0,181,181,116,1,0_targ_1_dist_red/trial17.png,,,0,1,redHorizontal,a,30,20,Male,2021-02-17_13h42.51.343,exp11,2020.2.6,Win32,60,,,,,,,,,,,
,,,,,,,,,,,,,,p,1,1.228335,space,0.384735,0,182,182,0,1,0_dist_red/trial1.png,,,1,0,redHorizontal,p,30,20,Male,2021-02-17_13h42.51.343,exp11,2020.2.6,Win32,60,,,,,,,,,,,
,,,,,,,,,,,,,,p,1,0.85483,space,0.4158,0,183,183,12,1,0_dist_red/trial13.png,,,1,0,redHorizontal,p,30,20,Male,2021-02-17_13h42.51.343,exp11,2020.2.6,Win32,60,,,,,,,,,,,
,,,,,,,,,,,,,,p,1,1.628525,space,0.34987,0,184,184,78,1,15_dist_red/trial4.png,,,1,15,redHorizontal,p,30,20,Male,2021-02-17_13h42.51.343,exp11,2020.2.6,Win32,60,,,,,,,,,,,
,,,,,,,,,,,,,,p,1,1.07036,space,0.351795,0,185,185,74,1,9_dist_red/trial25.png,,,1,9,redHorizontal,p,30,20,Male,2021-02-17_13h42.51.343,exp11,2020.2.6,Win32,60,,,,,,,,,,,
,,,,,,,,,,,,,,a,1,1.468775,space,0.37187,0,186,186,182,1,0_targ_16_dist_red/trial8.png,,,0,16,redHorizontal,a,30,20,Male,2021-02-17_13h42.51.343,exp11,2020.2.6,Win32,60,,,,,,,,,,,
,,,,,,,,,,,,,,p,1,1.035045,space,0.350965,0,187,187,8,1,0_dist_red/trial9.png,,,1,0,redHorizontal,p,30,20,Male,2021-02-17_13h42.51.343,exp11,2020.2.6,Win32,60,,,,,,,,,,,
,,,,,,,,,,,,,,p,1,1.0542,space,0.37513,0,188,188,81,1,15_dist_red/trial7.png,,,1,15,redHorizontal,p,30,20,Male,2021-02-17_13h42.51.343,exp11,2020.2.6,Win32,60,,,,,,,,,,,
,,,,,,,,,,,,,,a,1,1.01179,space,0.338115,0,189,189,148,1,0_targ_4_dist_red/trial24.png,,,0,4,redHorizontal,a,30,20,Male,2021-02-17_13h42.51.343,exp11,2020.2.6,Win32,60,,,,,,,,,,,
,,,,,,,,,,,,,,a,1,1.00148,space,0.32219,0,190,190,128,1,0_targ_4_dist_red/trial4.png,,,0,4,redHorizontal,a,30,20,Male,2021-02-17_13h42.51.343,exp11,2020.2.6,Win32,60,,,,,,,,,,,
,,,,,,,,,,,,,,p,1,0.78755,space,0.358695,0,191,191,10,1,0_dist_red/trial11.png,,,1,0,redHorizontal,p,30,20,Male,2021-02-17_13h42.51.343,exp11,2020.2.6,Win32,60,,,,,,,,,,,
,,,,,,,,,,,,,,p,1,1.693085,space,0.37237,0,192,192,25,1,3_dist_red/trial1.png,,,1,3,redHorizontal,p,30,20,Male,2021-02-17_13h42.51.343,exp11,2020.2.6,Win32,60,,,,,,,,,,,
,,,,,,,,,,,,,,p,1,0.796275,space,0.499995,0,193,193,23,1,0_dist_red/trial24.png,,,1,0,redHorizontal,p,30,20,Male,2021-02-17_13h42.51.343,exp11,2020.2.6,Win32,60,,,,,,,,,,,
,,,,,,,,,,,,,,a,1,1.193695,space,0.35099,0,194,194,107,1,0_targ_1_dist_red/trial8.png,,,0,1,redHorizontal,a,30,20,Male,2021-02-17_13h42.51.343,exp11,2020.2.6,Win32,60,,,,,,,,,,,
,,,,,,,,,,,,,,a,1,1.621255,space,0.341825,0,195,195,192,1,0_targ_16_dist_red/trial18.png,,,0,16,redHorizontal,a,30,20,Male,2021-02-17_13h42.51.343,exp11,2020.2.6,Win32,60,,,,,,,,,,,
,,,,,,,,,,,,,,a,1,1.016055,space,0.41767,0,196,196,134,1,0_targ_4_dist_red/trial10.png,,,0,4,redHorizontal,a,30,20,Male,2021-02-17_13h42.51.343,exp11,2020.2.6,Win32,60,,,,,,,,,,,
,,,,,,,,,,,,,,p,1,1.377065,space,0.35089,0,197,197,39,1,3_dist_red/trial15.png,,,1,3,redHorizontal,p,30,20,Male,2021-02-17_13h42.51.343,exp11,2020.2.6,Win32,60,,,,,,,,,,,
,,,,,,,,,,,,,,a,1,2.3345,space,0.40924,0,198,198,191,1,0_targ_16_dist_red/trial17.png,,,0,16,redHorizontal,a,30,20,Male,2021-02-17_13h42.51.343,exp11,2020.2.6,Win32,60,,,,,,,,,,,
,,,,,,,,,,,,,,p,1,1.81677,space,0.44386,0,199,199,46,1,3_dist_red/trial22.png,,,1,3,redHorizontal,p,30,20,Male,2021-02-17_13h42.51.343,exp11,2020.2.6,Win32,60,,,,,,,,,,,
,,,,,,,,,,,,,,,,,,,,,,,,,,,,,,,30,20,Male,2021-02-17_13h42.51.343,exp11,2020.2.6,Win32,60,0,0,0,1,1,conRed.xlsx,red horizontal,Look for red horizontal bar (target) and indicate if it is present or absent in the array. If red horizontal target is present press 'p' and if absent press 'a'. Press SPACE to start.,,,
,,,,,,,,,,space,15.83935,space,6.18614,a,1,2.80814,space,0.63637,0,0,0,186,1,0_targ_16_dist_green/trial12.png,,,0,16,greenverival,a,30,20,Male,2021-02-17_13h42.51.343,exp11,2020.2.6,Win32,60,,,,,,,,,,,
,,,,,,,,,,,,,,p,1,0.782095,space,0.549185,0,1,1,37,1,3_dist_green/trial13.png,,,1,3,greenverival,p,30,20,Male,2021-02-17_13h42.51.343,exp11,2020.2.6,Win32,60,,,,,,,,,,,
,,,,,,,,,,,,,,a,1,2.62834,space,0.634285,0,2,2,194,1,0_targ_16_dist_green/trial20.png,,,0,16,greenverival,a,30,20,Male,2021-02-17_13h42.51.343,exp11,2020.2.6,Win32,60,,,,,,,,,,,
,,,,,,,,,,,,,,p,1,0.90443,space,0.50184,0,3,3,64,1,9_dist_green/trial15.png,,,1,9,greenverival,p,30,20,Male,2021-02-17_13h42.51.343,exp11,2020.2.6,Win32,60,,,,,,,,,,,
,,,,,,,,,,,,,,p,1,0.817065,space,0.50537,0,4,4,14,1,0_dist_green/trial15.png,,,1,0,greenverival,p,30,20,Male,2021-02-17_13h42.51.343,exp11,2020.2.6,Win32,60,,,,,,,,,,,
,,,,,,,,,,,,,,a,1,1.1821,space,0.584965,0,5,5,148,1,0_targ_4_dist_green/trial24.png,,,0,4,greenverival,a,30,20,Male,2021-02-17_13h42.51.343,exp11,2020.2.6,Win32,60,,,,,,,,,,,
,,,,,,,,,,,,,,p,1,1.14016,space,0.48259,0,6,6,49,1,3_dist_green/trial25.png,,,1,3,greenverival,p,30,20,Male,2021-02-17_13h42.51.343,exp11,2020.2.6,Win32,60,,,,,,,,,,,
,,,,,,,,,,,,,,a,1,1.69509,space,0.300945,0,7,7,183,1,0_targ_16_dist_green/trial9.png,,,0,16,greenverival,a,30,20,Male,2021-02-17_13h42.51.343,exp11,2020.2.6,Win32,60,,,,,,,,,,,
,,,,,,,,,,,,,,p,1,0.809655,space,0.353745,0,8,8,20,1,0_dist_green/trial21.png,,,1,0,greenverival,p,30,20,Male,2021-02-17_13h42.51.343,exp11,2020.2.6,Win32,60,,,,,,,,,,,
,,,,,,,,,,,,,,a,1,1.064875,space,0.468155,0,9,9,117,1,0_targ_1_dist_green/trial18.png,,,0,1,greenverival,a,30,20,Male,2021-02-17_13h42.51.343,exp11,2020.2.6,Win32,60,,,,,,,,,,,
,,,,,,,,,,,,,,a,1,0.955605,space,0.55673,0,10,10,145,1,0_targ_4_dist_green/trial21.png,,,0,4,greenverival,a,30,20,Male,2021-02-17_13h42.51.343,exp11,2020.2.6,Win32,60,,,,,,,,,,,
,,,,,,,,,,,,,,a,1,1.17411,space,0.537855,0,11,11,109,1,0_targ_1_dist_green/trial10.png,,,0,1,greenverival,a,30,20,Male,2021-02-17_13h42.51.343,exp11,2020.2.6,Win32,60,,,,,,,,,,,
,,,,,,,,,,,,,,a,1,1.24938,space,0.47854,0,12,12,191,1,0_targ_16_dist_green/trial17.png,,,0,16,greenverival,a,30,20,Male,2021-02-17_13h42.51.343,exp11,2020.2.6,Win32,60,,,,,,,,,,,
,,,,,,,,,,,,,,p,1,1.406945,space,0.291885,0,13,13,90,1,15_dist_green/trial16.png,,,1,15,greenverival,p,30,20,Male,2021-02-17_13h42.51.343,exp11,2020.2.6,Win32,60,,,,,,,,,,,
,,,,,,,,,,,,,,p,1,0.89156,space,0.340645,0,14,14,86,1,15_dist_green/trial12.png,,,1,15,greenverival,p,30,20,Male,2021-02-17_13h42.51.343,exp11,2020.2.6,Win32,60,,,,,,,,,,,
,,,,,,,,,,,,,,a,1,1.16383,space,0.308585,0,15,15,185,1,0_targ_16_dist_green/trial11.png,,,0,16,greenverival,a,30,20,Male,2021-02-17_13h42.51.343,exp11,2020.2.6,Win32,60,,,,,,,,,,,
,,,,,,,,,,,,,,p,1,0.97389,space,0.315575,0,16,16,35,1,3_dist_green/trial11.png,,,1,3,greenverival,p,30,20,Male,2021-02-17_13h42.51.343,exp11,2020.2.6,Win32,60,,,,,,,,,,,
,,,,,,,,,,,,,,a,1,1.061465,space,0.444315,0,17,17,190,1,0_targ_16_dist_green/trial16.png,,,0,16,greenverival,a,30,20,Male,2021-02-17_13h42.51.343,exp11,2020.2.6,Win32,60,,,,,,,,,,,
,,,,,,,,,,,,,,p,1,1.515005,space,0.246725,0,18,18,99,1,15_dist_green/trial25.png,,,1,15,greenverival,p,30,20,Male,2021-02-17_13h42.51.343,exp11,2020.2.6,Win32,60,,,,,,,,,,,
,,,,,,,,,,,,,,p,1,0.784975,space,0.28273,0,19,19,12,1,0_dist_green/trial13.png,,,1,0,greenverival,p,30,20,Male,2021-02-17_13h42.51.343,exp11,2020.2.6,Win32,60,,,,,,,,,,,
,,,,,,,,,,,,,,a,1,1.17912,space,0.50084,0,20,20,167,1,0_targ_10_dist_green/trial18.png,,,0,10,greenverival,a,30,20,Male,2021-02-17_13h42.51.343,exp11,2020.2.6,Win32,60,,,,,,,,,,,
,,,,,,,,,,,,,,p,1,0.749755,space,0.294705,0,21,21,0,1,0_dist_green/trial1.png,,,1,0,greenverival,p,30,20,Male,2021-02-17_13h42.51.343,exp11,2020.2.6,Win32,60,,,,,,,,,,,
,,,,,,,,,,,,,,p,1,1.03021,space,0.251585,0,22,22,69,1,9_dist_green/trial20.png,,,1,9,greenverival,p,30,20,Male,2021-02-17_13h42.51.343,exp11,2020.2.6,Win32,60,,,,,,,,,,,
,,,,,,,,,,,,,,a,1,0.82889,space,0.372685,0,23,23,133,1,0_targ_4_dist_green/trial9.png,,,0,4,greenverival,a,30,20,Male,2021-02-17_13h42.51.343,exp11,2020.2.6,Win32,60,,,,,,,,,,,
,,,,,,,,,,,,,,a,1,0.94524,space,0.375365,0,24,24,160,1,0_targ_10_dist_green/trial11.png,,,0,10,greenverival,a,30,20,Male,2021-02-17_13h42.51.343,exp11,2020.2.6,Win32,60,,,,,,,,,,,
,,,,,,,,,,,,,,p,1,1.04799,space,0.348635,0,25,25,25,1,3_dist_green/trial1.png,,,1,3,greenverival,p,30,20,Male,2021-02-17_13h42.51.343,exp11,2020.2.6,Win32,60,,,,,,,,,,,
,,,,,,,,,,,,,,p,1,1.166435,space,0.349165,0,26,26,78,1,15_dist_green/trial4.png,,,1,15,greenverival,p,30,20,Male,2021-02-17_13h42.51.343,exp11,2020.2.6,Win32,60,,,,,,,,,,,
,,,,,,,,,,,,,,a,1,0.78942,space,0.39327,0,27,27,106,1,0_targ_1_dist_green/trial7.png,,,0,1,greenverival,a,30,20,Male,2021-02-17_13h42.51.343,exp11,2020.2.6,Win32,60,,,,,,,,,,,
,,,,,,,,,,,,,,a,1,0.992845,space,0.35129,0,28,28,174,1,0_targ_10_dist_green/trial25.png,,,0,10,greenverival,a,30,20,Male,2021-02-17_13h42.51.343,exp11,2020.2.6,Win32,60,,,,,,,,,,,
,,,,,,,,,,,,,,a,1,0.833025,space,0.3117,0,29,29,102,1,0_targ_1_dist_green/trial3.png,,,0,1,greenverival,a,30,20,Male,2021-02-17_13h42.51.343,exp11,2020.2.6,Win32,60,,,,,,,,,,,
,,,,,,,,,,,,,,a,1,1.221015,space,0.332315,0,30,30,179,1,0_targ_16_dist_green/trial5.png,,,0,16,greenverival,a,30,20,Male,2021-02-17_13h42.51.343,exp11,2020.2.6,Win32,60,,,,,,,,,,,
,,,,,,,,,,,,,,p,1,0.80626,space,0.31576,0,31,31,29,1,3_dist_green/trial5.png,,,1,3,greenverival,p,30,20,Male,2021-02-17_13h42.51.343,exp11,2020.2.6,Win32,60,,,,,,,,,,,
,,,,,,,,,,,,,,p,1,0.799215,space,0.35914,0,32,32,5,1,0_dist_green/trial6.png,,,1,0,greenverival,p,30,20,Male,2021-02-17_13h42.51.343,exp11,2020.2.6,Win32,60,,,,,,,,,,,
,,,,,,,,,,,,,,a,1,0.696275,space,0.385445,0,33,33,121,1,0_targ_1_dist_green/trial22.png,,,0,1,greenverival,a,30,20,Male,2021-02-17_13h42.51.343,exp11,2020.2.6,Win32,60,,,,,,,,,,,
,,,,,,,,,,,,,,a,1,0.985775,space,0.319905,0,34,34,184,1,0_targ_16_dist_green/trial10.png,,,0,16,greenverival,a,30,20,Male,2021-02-17_13h42.51.343,exp11,2020.2.6,Win32,60,,,,,,,,,,,
,,,,,,,,,,,,,,a,1,1.08375,space,0.31769,0,35,35,189,1,0_targ_16_dist_green/trial15.png,,,0,16,greenverival,a,30,20,Male,2021-02-17_13h42.51.343,exp11,2020.2.6,Win32,60,,,,,,,,,,,
,,,,,,,,,,,,,,a,1,0.81337,space,0.32854,0,36,36,143,1,0_targ_4_dist_green/trial19.png,,,0,4,greenverival,a,30,20,Male,2021-02-17_13h42.51.343,exp11,2020.2.6,Win32,60,,,,,,,,,,,
,,,,,,,,,,,,,,p,1,1.045935,space,0.292225,0,37,37,38,1,3_dist_green/trial14.png,,,1,3,greenverival,p,30,20,Male,2021-02-17_13h42.51.343,exp11,2020.2.6,Win32,60,,,,,,,,,,,
,,,,,,,,,,,,,,p,1,0.878165,space,0.292665,0,38,38,48,1,3_dist_green/trial24.png,,,1,3,greenverival,p,30,20,Male,2021-02-17_13h42.51.343,exp11,2020.2.6,Win32,60,,,,,,,,,,,
,,,,,,,,,,,,,,a,1,0.74466,space,0.31956,0,39,39,141,1,0_targ_4_dist_green/trial17.png,,,0,4,greenverival,a,30,20,Male,2021-02-17_13h42.51.343,exp11,2020.2.6,Win32,60,,,,,,,,,,,
,,,,,,,,,,,,,,p,1,1.08384,space,0.324955,0,40,40,98,1,15_dist_green/trial24.png,,,1,15,greenverival,p,30,20,Male,2021-02-17_13h42.51.343,exp11,2020.2.6,Win32,60,,,,,,,,,,,
,,,,,,,,,,,,,,p,1,0.810585,space,0.33914,0,41,41,31,1,3_dist_green/trial7.png,,,1,3,greenverival,p,30,20,Male,2021-02-17_13h42.51.343,exp11,2020.2.6,Win32,60,,,,,,,,,,,
,,,,,,,,,,,,,,a,1,1.761425,space,0.38414,0,42,42,146,1,0_targ_4_dist_green/trial22.png,,,0,4,greenverival,a,30,20,Male,2021-02-17_13h42.51.343,exp11,2020.2.6,Win32,60,,,,,,,,,,,
,,,,,,,,,,,,,,a,1,0.72573,space,0.36756,0,43,43,130,1,0_targ_4_dist_green/trial6.png,,,0,4,greenverival,a,30,20,Male,2021-02-17_13h42.51.343,exp11,2020.2.6,Win32,60,,,,,,,,,,,
,,,,,,,,,,,,,,a,1,1.09713,space,0.359035,0,44,44,181,1,0_targ_16_dist_green/trial7.png,,,0,16,greenverival,a,30,20,Male,2021-02-17_13h42.51.343,exp11,2020.2.6,Win32,60,,,,,,,,,,,
,,,,,,,,,,,,,,p,1,0.83135,space,0.35345,0,45,45,74,1,9_dist_green/trial25.png,,,1,9,greenverival,p,30,20,Male,2021-02-17_13h42.51.343,exp11,2020.2.6,Win32,60,,,,,,,,,,,
,,,,,,,,,,,,,,a,1,0.92876,space,0.35854,0,46,46,193,1,0_targ_16_dist_green/trial19.png,,,0,16,greenverival,a,30,20,Male,2021-02-17_13h42.51.343,exp11,2020.2.6,Win32,60,,,,,,,,,,,
,,,,,,,,,,,,,,a,1,1.34561,space,0.37512,0,47,47,147,1,0_targ_4_dist_green/trial23.png,,,0,4,greenverival,a,30,20,Male,2021-02-17_13h42.51.343,exp11,2020.2.6,Win32,60,,,,,,,,,,,
,,,,,,,,,,,,,,a,1,0.970765,space,0.34531,0,48,48,155,1,0_targ_10_dist_green/trial6.png,,,0,10,greenverival,a,30,20,Male,2021-02-17_13h42.51.343,exp11,2020.2.6,Win32,60,,,,,,,,,,,
,,,,,,,,,,,,,,a,1,1.244455,space,0.417645,0,49,49,180,1,0_targ_16_dist_green/trial6.png,,,0,16,greenverival,a,30,20,Male,2021-02-17_13h42.51.343,exp11,2020.2.6,Win32,60,,,,,,,,,,,
,,,,,,,,,,,,,,p,1,0.97597,space,0.300775,0,50,50,3,1,0_dist_green/trial4.png,,,1,0,greenverival,p,30,20,Male,2021-02-17_13h42.51.343,exp11,2020.2.6,Win32,60,,,,,,,,,,,
,,,,,,,,,,,,,,a,1,0.895875,space,0.35003,0,51,51,124,1,0_targ_1_dist_green/trial25.png,,,0,1,greenverival,a,30,20,Male,2021-02-17_13h42.51.343,exp11,2020.2.6,Win32,60,,,,,,,,,,,
,,,,,,,,,,,,,,a,1,0.695385,space,0.325075,0,52,52,137,1,0_targ_4_dist_green/trial13.png,,,0,4,greenverival,a,30,20,Male,2021-02-17_13h42.51.343,exp11,2020.2.6,Win32,60,,,,,,,,,,,
,,,,,,,,,,,,,,a,1,2.38861,space,0.36932,0,53,53,114,1,0_targ_1_dist_green/trial15.png,,,0,1,greenverival,a,30,20,Male,2021-02-17_13h42.51.343,exp11,2020.2.6,Win32,60,,,,,,,,,,,
,,,,,,,,,,,,,,p,1,2.462955,space,0.46759,0,54,54,56,1,9_dist_green/trial7.png,,,1,9,greenverival,p,30,20,Male,2021-02-17_13h42.51.343,exp11,2020.2.6,Win32,60,,,,,,,,,,,
,,,,,,,,,,,,,,p,1,0.821505,space,0.327095,0,55,55,83,1,15_dist_green/trial9.png,,,1,15,greenverival,p,30,20,Male,2021-02-17_13h42.51.343,exp11,2020.2.6,Win32,60,,,,,,,,,,,
,,,,,,,,,,,,,,p,1,0.7073,space,0.385715,0,56,56,21,1,0_dist_green/trial22.png,,,1,0,greenverival,p,30,20,Male,2021-02-17_13h42.51.343,exp11,2020.2.6,Win32,60,,,,,,,,,,,
,,,,,,,,,,,,,,a,1,1.93377,space,0.54003,0,57,57,196,1,0_targ_16_dist_green/trial22.png,,,0,16,greenverival,a,30,20,Male,2021-02-17_13h42.51.343,exp11,2020.2.6,Win32,60,,,,,,,,,,,
,,,,,,,,,,,,,,a,1,0.764665,space,0.322585,0,58,58,164,1,0_targ_10_dist_green/trial15.png,,,0,10,greenverival,a,30,20,Male,2021-02-17_13h42.51.343,exp11,2020.2.6,Win32,60,,,,,,,,,,,
,,,,,,,,,,,,,,p,1,0.82281,space,0.38409,0,59,59,68,1,9_dist_green/trial19.png,,,1,9,greenverival,p,30,20,Male,2021-02-17_13h42.51.343,exp11,2020.2.6,Win32,60,,,,,,,,,,,
,,,,,,,,,,,,,,a,1,0.80373,space,0.60306,0,60,60,104,1,0_targ_1_dist_green/trial5.png,,,0,1,greenverival,a,30,20,Male,2021-02-17_13h42.51.343,exp11,2020.2.6,Win32,60,,,,,,,,,,,
,,,,,,,,,,,,,,a,1,1.043355,space,1.33466,0,61,61,127,1,0_targ_4_dist_green/trial3.png,,,0,4,greenverival,a,30,20,Male,2021-02-17_13h42.51.343,exp11,2020.2.6,Win32,60,,,,,,,,,,,
,,,,,,,,,,,,,,p,1,0.80548,space,0.3332,0,62,62,63,1,9_dist_green/trial14.png,,,1,9,greenverival,p,30,20,Male,2021-02-17_13h42.51.343,exp11,2020.2.6,Win32,60,,,,,,,,,,,
,,,,,,,,,,,,,,a,1,0.74473,space,0.462695,0,63,63,154,1,0_targ_10_dist_green/trial5.png,,,0,10,greenverival,a,30,20,Male,2021-02-17_13h42.51.343,exp11,2020.2.6,Win32,60,,,,,,,,,,,
,,,,,,,,,,,,,,p,1,1.09921,space,0.409205,0,64,64,54,1,9_dist_green/trial5.png,,,1,9,greenverival,p,30,20,Male,2021-02-17_13h42.51.343,exp11,2020.2.6,Win32,60,,,,,,,,,,,
,,,,,,,,,,,,,,a,1,0.98179,space,0.559225,0,65,65,199,1,0_targ_16_dist_green/trial25.png,,,0,16,greenverival,a,30,20,Male,2021-02-17_13h42.51.343,exp11,2020.2.6,Win32,60,,,,,,,,,,,
,,,,,,,,,,,,,,p,1,0.932845,space,0.37373,0,66,66,50,1,9_dist_green/trial1.png,,,1,9,greenverival,p,30,20,Male,2021-02-17_13h42.51.343,exp11,2020.2.6,Win32,60,,,,,,,,,,,
,,,,,,,,,,,,,,a,1,0.70359,space,0.559525,0,67,67,140,1,0_targ_4_dist_green/trial6.png,,,0,4,greenverival,a,30,20,Male,2021-02-17_13h42.51.343,exp11,2020.2.6,Win32,60,,,,,,,,,,,
,,,,,,,,,,,,,,a,1,1.02001,space,0.302735,0,68,68,132,1,0_targ_4_dist_green/trial8.png,,,0,4,greenverival,a,30,20,Male,2021-02-17_13h42.51.343,exp11,2020.2.6,Win32,60,,,,,,,,,,,
,,,,,,,,,,,,,,a,1,0.98309,space,0.400435,0,69,69,192,1,0_targ_16_dist_green/trial18.png,,,0,16,greenverival,a,30,20,Male,2021-02-17_13h42.51.343,exp11,2020.2.6,Win32,60,,,,,,,,,,,
,,,,,,,,,,,,,,a,1,0.752505,space,0.410675,0,70,70,128,1,0_targ_4_dist_green/trial4.png,,,0,4,greenverival,a,30,20,Male,2021-02-17_13h42.51.343,exp11,2020.2.6,Win32,60,,,,,,,,,,,
,,,,,,,,,,,,,,p,1,1.05149,space,0.421815,0,71,71,59,1,9_dist_green/trial10.png,,,1,9,greenverival,p,30,20,Male,2021-02-17_13h42.51.343,exp11,2020.2.6,Win32,60,,,,,,,,,,,
,,,,,,,,,,,,,,a,1,1.46158,space,0.469235,0,72,72,159,1,0_targ_10_dist_green/trial10.png,,,0,10,greenverival,a,30,20,Male,2021-02-17_13h42.51.343,exp11,2020.2.6,Win32,60,,,,,,,,,,,
,,,,,,,,,,,,,,p,1,0.985755,space,0.4108,0,73,73,72,1,9_dist_green/trial23.png,,,1,9,greenverival,p,30,20,Male,2021-02-17_13h42.51.343,exp11,2020.2.6,Win32,60,,,,,,,,,,,
,,,,,,,,,,,,,,p,1,1.184725,space,0.39632,0,74,74,42,1,3_dist_green/trial18.png,,,1,3,greenverival,p,30,20,Male,2021-02-17_13h42.51.343,exp11,2020.2.6,Win32,60,,,,,,,,,,,
,,,,,,,,,,,,,,p,1,0.892605,space,0.39433,0,75,75,28,1,3_dist_green/trial4.png,,,1,3,greenverival,p,30,20,Male,2021-02-17_13h42.51.343,exp11,2020.2.6,Win32,60,,,,,,,,,,,
,,,,,,,,,,,,,,p,1,1.382625,space,0.485955,0,76,76,73,1,9_dist_green/trial24.png,,,1,9,greenverival,p,30,20,Male,2021-02-17_13h42.51.343,exp11,2020.2.6,Win32,60,,,,,,,,,,,
,,,,,,,,,,,,,,a,1,2.094475,space,0.372755,0,77,77,177,1,0_targ_16_dist_green/trial3.png,,,0,16,greenverival,a,30,20,Male,2021-02-17_13h42.51.343,exp11,2020.2.6,Win32,60,,,,,,,,,,,
,,,,,,,,,,,,,,a,1,0.951935,space,0.4034,0,78,78,176,1,0_targ_16_dist_green/trial2.png,,,0,16,greenverival,a,30,20,Male,2021-02-17_13h42.51.343,exp11,2020.2.6,Win32,60,,,,,,,,,,,
,,,,,,,,,,,,,,a,1,0.860595,space,0.309515,0,79,79,122,1,0_targ_1_dist_green/trial23.png,,,0,1,greenverival,a,30,20,Male,2021-02-17_13h42.51.343,exp11,2020.2.6,Win32,60,,,,,,,,,,,
,,,,,,,,,,,,,,a,1,0.704755,space,0.31988,0,80,80,103,1,0_targ_1_dist_green/trial4.png,,,0,1,greenverival,a,30,20,Male,2021-02-17_13h42.51.343,exp11,2020.2.6,Win32,60,,,,,,,,,,,
,,,,,,,,,,,,,,a,1,0.950065,space,0.334405,0,81,81,182,1,0_targ_16_dist_green/trial8.png,,,0,16,greenverival,a,30,20,Male,2021-02-17_13h42.51.343,exp11,2020.2.6,Win32,60,,,,,,,,,,,
,,,,,,,,,,,,,,p,1,0.719235,space,0.329285,0,82,82,6,1,0_dist_green/trial7.png,,,1,0,greenverival,p,30,20,Male,2021-02-17_13h42.51.343,exp11,2020.2.6,Win32,60,,,,,,,,,,,
,,,,,,,,,,,,,,a,1,1.202135,space,0.295855,0,83,83,156,1,0_targ_10_dist_green/trial7.png,,,0,10,greenverival,a,30,20,Male,2021-02-17_13h42.51.343,exp11,2020.2.6,Win32,60,,,,,,,,,,,
,,,,,,,,,,,,,,p,1,0.810855,space,0.286775,0,84,84,58,1,9_dist_green/trial9.png,,,1,9,greenverival,p,30,20,Male,2021-02-17_13h42.51.343,exp11,2020.2.6,Win32,60,,,,,,,,,,,
,,,,,,,,,,,,,,a,1,0.548675,space,0.34904,0,85,85,119,1,0_targ_1_dist_green/trial20.png,,,0,1,greenverival,a,30,20,Male,2021-02-17_13h42.51.343,exp11,2020.2.6,Win32,60,,,,,,,,,,,
,,,,,,,,,,,,,,p,1,0.804195,space,0.31584,0,86,86,51,1,9_dist_green/trial2.png,,,1,9,greenverival,p,30,20,Male,2021-02-17_13h42.51.343,exp11,2020.2.6,Win32,60,,,,,,,,,,,
,,,,,,,,,,,,,,a,1,0.8404,space,0.40437,0,87,87,110,1,0_targ_1_dist_green/trial11.png,,,0,1,greenverival,a,30,20,Male,2021-02-17_13h42.51.343,exp11,2020.2.6,Win32,60,,,,,,,,,,,
,,,,,,,,,,,,,,p,1,0.849045,space,0.36743,0,88,88,40,1,3_dist_green/trial16.png,,,1,3,greenverival,p,30,20,Male,2021-02-17_13h42.51.343,exp11,2020.2.6,Win32,60,,,,,,,,,,,
,,,,,,,,,,,,,,a,1,0.69237,space,0.68978,0,89,89,157,1,0_targ_10_dist_green/trial8.png,,,0,10,greenverival,a,30,20,Male,2021-02-17_13h42.51.343,exp11,2020.2.6,Win32,60,,,,,,,,,,,
,,,,,,,,,,,,,,p,1,0.820405,space,0.34925,0,90,90,85,1,15_dist_green/trial11.png,,,1,15,greenverival,p,30,20,Male,2021-02-17_13h42.51.343,exp11,2020.2.6,Win32,60,,,,,,,,,,,
,,,,,,,,,,,,,,p,1,0.79373,space,0.31615,0,91,91,13,1,0_dist_green/trial14.png,,,1,0,greenverival,p,30,20,Male,2021-02-17_13h42.51.343,exp11,2020.2.6,Win32,60,,,,,,,,,,,
,,,,,,,,,,,,,,a,1,0.571975,space,0.38223,0,92,92,105,1,0_targ_1_dist_green/trial6.png,,,0,1,greenverival,a,30,20,Male,2021-02-17_13h42.51.343,exp11,2020.2.6,Win32,60,,,,,,,,,,,
,,,,,,,,,,,,,,a,1,0.599355,space,0.393585,0,93,93,116,1,0_targ_1_dist_green/trial17.png,,,0,1,greenverival,a,30,20,Male,2021-02-17_13h42.51.343,exp11,2020.2.6,Win32,60,,,,,,,,,,,
,,,,,,,,,,,,,,p,1,0.714105,space,0.325495,0,94,94,43,1,3_dist_green/trial19.png,,,1,3,greenverival,p,30,20,Male,2021-02-17_13h42.51.343,exp11,2020.2.6,Win32,60,,,,,,,,,,,
,,,,,,,,,,,,,,p,1,0.67302,space,0.27897,0,95,95,18,1,0_dist_green/trial19.png,,,1,0,greenverival,p,30,20,Male,2021-02-17_13h42.51.343,exp11,2020.2.6,Win32,60,,,,,,,,,,,
,,,,,,,,,,,,,,p,1,1.13515,space,0.27181,0,96,96,94,1,15_dist_green/trial20.png,,,1,15,greenverival,p,30,20,Male,2021-02-17_13h42.51.343,exp11,2020.2.6,Win32,60,,,,,,,,,,,
,,,,,,,,,,,,,,p,1,0.912245,space,0.302445,0,97,97,45,1,3_dist_green/trial21.png,,,1,3,greenverival,p,30,20,Male,2021-02-17_13h42.51.343,exp11,2020.2.6,Win32,60,,,,,,,,,,,
,,,,,,,,,,,,,,p,1,0.766025,space,0.312565,0,98,98,17,1,0_dist_green/trial18.png,,,1,0,greenverival,p,30,20,Male,2021-02-17_13h42.51.343,exp11,2020.2.6,Win32,60,,,,,,,,,,,
,,,,,,,,,,,,,,a,1,0.582495,space,0.366135,0,99,99,108,1,0_targ_1_dist_green/trial9.png,,,0,1,greenverival,a,30,20,Male,2021-02-17_13h42.51.343,exp11,2020.2.6,Win32,60,,,,,,,,,,,
,,,,,,,,,,,,,,p,1,1.039725,space,0.31181,0,100,100,87,1,15_dist_green/trial13.png,,,1,15,greenverival,p,30,20,Male,2021-02-17_13h42.51.343,exp11,2020.2.6,Win32,60,,,,,,,,,,,
,,,,,,,,,,,,,,a,1,1.208875,space,0.34913,0,101,101,169,1,0_targ_10_dist_green/trial20.png,,,0,10,greenverival,a,30,20,Male,2021-02-17_13h42.51.343,exp11,2020.2.6,Win32,60,,,,,,,,,,,
,,,,,,,,,,,,,,a,1,0.74533,space,0.30036,0,102,102,153,1,0_targ_10_dist_green/trial4.png,,,0,10,greenverival,a,30,20,Male,2021-02-17_13h42.51.343,exp11,2020.2.6,Win32,60,,,,,,,,,,,
,,,,,,,,,,,,,,p,1,1.38513,space,0.30393,0,103,103,53,1,9_dist_green/trial4.png,,,1,9,greenverival,p,30,20,Male,2021-02-17_13h42.51.343,exp11,2020.2.6,Win32,60,,,,,,,,,,,
,,,,,,,,,,,,,,a,1,0.74346,space,0.367375,0,104,104,149,1,0_targ_4_dist_green/trial25.png,,,0,4,greenverival,a,30,20,Male,2021-02-17_13h42.51.343,exp11,2020.2.6,Win32,60,,,,,,,,,,,
,,,,,,,,,,,,,,p,1,0.76279,space,0.333915,0,105,105,22,1,0_dist_green/trial23.png,,,1,0,greenverival,p,30,20,Male,2021-02-17_13h42.51.343,exp11,2020.2.6,Win32,60,,,,,,,,,,,
,,,,,,,,,,,,,,p,1,1.074615,space,0.352965,0,106,106,57,1,9_dist_green/trial8.png,,,1,9,greenverival,p,30,20,Male,2021-02-17_13h42.51.343,exp11,2020.2.6,Win32,60,,,,,,,,,,,
,,,,,,,,,,,,,,a,1,0.90474,space,0.436025,0,107,107,178,1,0_targ_16_dist_green/trial4.png,,,0,16,greenverival,a,30,20,Male,2021-02-17_13h42.51.343,exp11,2020.2.6,Win32,60,,,,,,,,,,,
,,,,,,,,,,,,,,p,1,0.72863,space,0.349,0,108,108,19,1,0_dist_green/trial20.png,,,1,0,greenverival,p,30,20,Male,2021-02-17_13h42.51.343,exp11,2020.2.6,Win32,60,,,,,,,,,,,
,,,,,,,,,,,,,,p,1,1.669685,space,0.36163,0,109,109,62,1,9_dist_green/trial13.png,,,1,9,greenverival,p,30,20,Male,2021-02-17_13h42.51.343,exp11,2020.2.6,Win32,60,,,,,,,,,,,
,,,,,,,,,,,,,,a,1,0.65555,space,0.41582,0,110,110,163,1,0_targ_10_dist_green/trial14.png,,,0,10,greenverival,a,30,20,Male,2021-02-17_13h42.51.343,exp11,2020.2.6,Win32,60,,,,,,,,,,,
,,,,,,,,,,,,,,a,1,1.86103,space,0.33423,0,111,111,150,1,0_targ_10_dist_green/trial1.png,,,0,10,greenverival,a,30,20,Male,2021-02-17_13h42.51.343,exp11,2020.2.6,Win32,60,,,,,,,,,,,
,,,,,,,,,,,,,,a,1,0.92281,space,0.384225,0,112,112,162,1,0_targ_10_dist_green/trial13.png,,,0,10,greenverival,a,30,20,Male,2021-02-17_13h42.51.343,exp11,2020.2.6,Win32,60,,,,,,,,,,,
,,,,,,,,,,,,,,p,1,0.914885,space,0.36674,0,113,113,46,1,3_dist_green/trial22.png,,,1,3,greenverival,p,30,20,Male,2021-02-17_13h42.51.343,exp11,2020.2.6,Win32,60,,,,,,,,,,,
,,,,,,,,,,,,,,a,1,1.702275,space,0.376765,0,114,114,161,1,0_targ_10_dist_green/trial12.png,,,0,10,greenverival,a,30,20,Male,2021-02-17_13h42.51.343,exp11,2020.2.6,Win32,60,,,,,,,,,,,
,,,,,,,,,,,,,,a,1,0.86973,space,0.60531,0,115,115,142,1,0_targ_4_dist_green/trial18.png,,,0,4,greenverival,a,30,20,Male,2021-02-17_13h42.51.343,exp11,2020.2.6,Win32,60,,,,,,,,,,,
,,,,,,,,,,,,,,p,1,0.89583,space,0.34289,0,116,116,60,1,9_dist_green/trial11.png,,,1,9,greenverival,p,30,20,Male,2021-02-17_13h42.51.343,exp11,2020.2.6,Win32,60,,,,,,,,,,,
,,,,,,,,,,,,,,p,1,0.8829,space,0.3995,0,117,117,82,1,15_dist_green/trial8.png,,,1,15,greenverival,p,30,20,Male,2021-02-17_13h42.51.343,exp11,2020.2.6,Win32,60,,,,,,,,,,,
,,,,,,,,,,,,,,p,1,0.89583,space,0.368855,0,118,118,61,1,9_dist_green/trial12.png,,,1,9,greenverival,p,30,20,Male,2021-02-17_13h42.51.343,exp11,2020.2.6,Win32,60,,,,,,,,,,,
,,,,,,,,,,,,,,p,1,1.34661,space,0.328425,0,119,119,84,1,15_dist_green/trial10.png,,,1,15,greenverival,p,30,20,Male,2021-02-17_13h42.51.343,exp11,2020.2.6,Win32,60,,,,,,,,,,,
,,,,,,,,,,,,,,a,1,1.08203,space,0.789745,0,120,120,100,1,0_targ_1_dist_green/trial1.png,,,0,1,greenverival,a,30,20,Male,2021-02-17_13h42.51.343,exp11,2020.2.6,Win32,60,,,,,,,,,,,
,,,,,,,,,,,,,,p,1,0.711475,space,0.382315,0,121,121,41,1,3_dist_green/trial17.png,,,1,3,greenverival,p,30,20,Male,2021-02-17_13h42.51.343,exp11,2020.2.6,Win32,60,,,,,,,,,,,
,,,,,,,,,,,,,,a,1,0.76582,space,0.618655,0,122,122,112,1,0_targ_1_dist_green/trial13.png,,,0,1,greenverival,a,30,20,Male,2021-02-17_13h42.51.343,exp11,2020.2.6,Win32,60,,,,,,,,,,,
,,,,,,,,,,,,,,p,1,0.946465,space,0.408285,0,123,123,89,1,15_dist_green/trial15.png,,,1,15,greenverival,p,30,20,Male,2021-02-17_13h42.51.343,exp11,2020.2.6,Win32,60,,,,,,,,,,,
,,,,,,,,,,,,,,a,1,0.78235,space,0.368325,0,124,124,151,1,0_targ_10_dist_green/trial2.png,,,0,10,greenverival,a,30,20,Male,2021-02-17_13h42.51.343,exp11,2020.2.6,Win32,60,,,,,,,,,,,
,,,,,,,,,,,,,,p,1,1.390715,space,0.302485,0,125,125,79,1,15_dist_green/trial5.png,,,1,15,greenverival,p,30,20,Male,2021-02-17_13h42.51.343,exp11,2020.2.6,Win32,60,,,,,,,,,,,
,,,,,,,,,,,,,,p,1,0.977445,space,0.33831,0,126,126,75,1,15_dist_green/trial1.png,,,1,15,greenverival,p,30,20,Male,2021-02-17_13h42.51.343,exp11,2020.2.6,Win32,60,,,,,,,,,,,
,,,,,,,,,,,,,,p,1,1.03584,space,0.33435,0,127,127,65,1,9_dist_green/trial16.png,,,1,9,greenverival,p,30,20,Male,2021-02-17_13h42.51.343,exp11,2020.2.6,Win32,60,,,,,,,,,,,
,,,,,,,,,,,,,,a,1,0.929865,space,0.437555,0,128,128,171,1,0_targ_10_dist_green/trial22.png,,,0,10,greenverival,a,30,20,Male,2021-02-17_13h42.51.343,exp11,2020.2.6,Win32,60,,,,,,,,,,,
,,,,,,,,,,,,,,p,1,0.88693,space,0.349265,0,129,129,34,1,3_dist_green/trial10.png,,,1,3,greenverival,p,30,20,Male,2021-02-17_13h42.51.343,exp11,2020.2.6,Win32,60,,,,,,,,,,,
,,,,,,,,,,,,,,a,1,1.327785,space,0.4285,0,130,130,168,1,0_targ_10_dist_green/trial19.png,,,0,10,greenverival,a,30,20,Male,2021-02-17_13h42.51.343,exp11,2020.2.6,Win32,60,,,,,,,,,,,
,,,,,,,,,,,,,,a,1,1.946395,space,0.35804,0,131,131,115,1,0_targ_1_dist_green/trial6.png,,,0,1,greenverival,a,30,20,Male,2021-02-17_13h42.51.343,exp11,2020.2.6,Win32,60,,,,,,,,,,,
,,,,,,,,,,,,,,p,1,0.75962,space,0.36932,0,132,132,26,1,3_dist_green/trial2.png,,,1,3,greenverival,p,30,20,Male,2021-02-17_13h42.51.343,exp11,2020.2.6,Win32,60,,,,,,,,,,,
,,,,,,,,,,,,,,p,1,0.827095,space,0.346815,0,133,133,52,1,9_dist_green/trial3.png,,,1,9,greenverival,p,30,20,Male,2021-02-17_13h42.51.343,exp11,2020.2.6,Win32,60,,,,,,,,,,,
,,,,,,,,,,,,,,p,1,0.87215,space,0.371795,0,134,134,66,1,9_dist_green/trial17.png,,,1,9,greenverival,p,30,20,Male,2021-02-17_13h42.51.343,exp11,2020.2.6,Win32,60,,,,,,,,,,,
,,,,,,,,,,,,,,a,1,0.80675,space,0.42113,0,135,135,125,1,0_targ_4_dist_green/trial1.png,,,0,4,greenverival,a,30,20,Male,2021-02-17_13h42.51.343,exp11,2020.2.6,Win32,60,,,,,,,,,,,
,,,,,,,,,,,,,,a,1,1.077945,space,0.454615,0,136,136,188,1,0_targ_16_dist_green/trial14.png,,,0,16,greenverival,a,30,20,Male,2021-02-17_13h42.51.343,exp11,2020.2.6,Win32,60,,,,,,,,,,,
,,,,,,,,,,,,,,p,1,0.854465,space,0.34908,0,137,137,71,1,9_dist_green/trial22.png,,,1,9,greenverival,p,30,20,Male,2021-02-17_13h42.51.343,exp11,2020.2.6,Win32,60,,,,,,,,,,,
,,,,,,,,,,,,,,a,1,0.55745,space,0.41565,0,138,138,101,1,0_targ_1_dist_green/trial2.png,,,0,1,greenverival,a,30,20,Male,2021-02-17_13h42.51.343,exp11,2020.2.6,Win32,60,,,,,,,,,,,
,,,,,,,,,,,,,,p,1,0.634065,space,0.3908,0,139,139,7,1,0_dist_green/trial8.png,,,1,0,greenverival,p,30,20,Male,2021-02-17_13h42.51.343,exp11,2020.2.6,Win32,60,,,,,,,,,,,
,,,,,,,,,,,,,,p,1,0.915745,space,0.3155,0,140,140,67,1,9_dist_green/trial18.png,,,1,9,greenverival,p,30,20,Male,2021-02-17_13h42.51.343,exp11,2020.2.6,Win32,60,,,,,,,,,,,
,,,,,,,,,,,,,,a,1,1.113545,space,0.423545,0,141,141,198,1,0_targ_16_dist_green/trial24.png,,,0,16,greenverival,a,30,20,Male,2021-02-17_13h42.51.343,exp11,2020.2.6,Win32,60,,,,,,,,,,,
,,,,,,,,,,,,,,p,1,0.907595,space,0.35897,0,142,142,55,1,9_dist_green/trial6.png,,,1,9,greenverival,p,30,20,Male,2021-02-17_13h42.51.343,exp11,2020.2.6,Win32,60,,,,,,,,,,,
,,,,,,,,,,,,,,p,1,0.71998,space,0.332435,0,143,143,1,1,0_dist_green/trial2.png,,,1,0,greenverival,p,30,20,Male,2021-02-17_13h42.51.343,exp11,2020.2.6,Win32,60,,,,,,,,,,,
,,,,,,,,,,,,,,p,1,0.894145,space,0.337485,0,144,144,47,1,3_dist_green/trial23.png,,,1,3,greenverival,p,30,20,Male,2021-02-17_13h42.51.343,exp11,2020.2.6,Win32,60,,,,,,,,,,,
,,,,,,,,,,,,,,p,1,0.821395,space,0.349035,0,145,145,27,1,3_dist_green/trial3.png,,,1,3,greenverival,p,30,20,Male,2021-02-17_13h42.51.343,exp11,2020.2.6,Win32,60,,,,,,,,,,,
,,,,,,,,,,,,,,a,1,0.75461,space,0.367975,0,146,146,144,1,0_targ_4_dist_green/trial20.png,,,0,4,greenverival,a,30,20,Male,2021-02-17_13h42.51.343,exp11,2020.2.6,Win32,60,,,,,,,,,,,
,,,,,,,,,,,,,,a,1,0.797925,space,0.28189,0,147,147,172,1,0_targ_10_dist_green/trial23.png,,,0,10,greenverival,a,30,20,Male,2021-02-17_13h42.51.343,exp11,2020.2.6,Win32,60,,,,,,,,,,,
,,,,,,,,,,,,,,a,1,0.77231,space,0.33251,0,148,148,111,1,0_targ_1_dist_green/trial12.png,,,0,1,greenverival,a,30,20,Male,2021-02-17_13h42.51.343,exp11,2020.2.6,Win32,60,,,,,,,,,,,
,,,,,,,,,,,,,,a,1,0.914695,space,0.32615,0,149,149,126,1,0_targ_4_dist_green/trial2.png,,,0,4,greenverival,a,30,20,Male,2021-02-17_13h42.51.343,exp11,2020.2.6,Win32,60,,,,,,,,,,,
,,,,,,,,,,,,,,a,1,1.163665,space,0.26686,0,150,150,187,1,0_targ_16_dist_green/trial13.png,,,0,16,greenverival,a,30,20,Male,2021-02-17_13h42.51.343,exp11,2020.2.6,Win32,60,,,,,,,,,,,
,,,,,,,,,,,,,,p,1,0.67975,space,0.288525,0,151,151,11,1,0_dist_green/trial12.png,,,1,0,greenverival,p,30,20,Male,2021-02-17_13h42.51.343,exp11,2020.2.6,Win32,60,,,,,,,,,,,
,,,,,,,,,,,,,,p,1,0.88412,space,0.26121,0,152,152,92,1,15_dist_green/trial18.png,,,1,15,greenverival,p,30,20,Male,2021-02-17_13h42.51.343,exp11,2020.2.6,Win32,60,,,,,,,,,,,
,,,,,,,,,,,,,,a,1,1.139265,space,0.41589,0,153,153,173,1,0_targ_10_dist_green/trial24.png,,,0,10,greenverival,a,30,20,Male,2021-02-17_13h42.51.343,exp11,2020.2.6,Win32,60,,,,,,,,,,,
,,,,,,,,,,,,,,p,1,0.76196,space,0.287345,0,154,154,39,1,3_dist_green/trial15.png,,,1,3,greenverival,p,30,20,Male,2021-02-17_13h42.51.343,exp11,2020.2.6,Win32,60,,,,,,,,,,,
,,,,,,,,,,,,,,p,1,0.717695,space,0.312905,0,155,155,9,1,0_dist_green/trial10.png,,,1,0,greenverival,p,30,20,Male,2021-02-17_13h42.51.343,exp11,2020.2.6,Win32,60,,,,,,,,,,,
,,,,,,,,,,,,,,a,1,0.63475,space,0.3756,0,156,156,123,1,0_targ_1_dist_green/trial24.png,,,0,1,greenverival,a,30,20,Male,2021-02-17_13h42.51.343,exp11,2020.2.6,Win32,60,,,,,,,,,,,
,,,,,,,,,,,,,,a,1,0.573585,space,0.367155,0,157,157,118,1,0_targ_1_dist_green/trial19.png,,,0,1,greenverival,a,30,20,Male,2021-02-17_13h42.51.343,exp11,2020.2.6,Win32,60,,,,,,,,,,,
,,,,,,,,,,,,,,p,1,0.785785,space,0.36661,0,158,158,32,1,3_dist_green/trial8.png,,,1,3,greenverival,p,30,20,Male,2021-02-17_13h42.51.343,exp11,2020.2.6,Win32,60,,,,,,,,,,,
,,,,,,,,,,,,,,p,1,0.78586,space,0.328045,0,159,159,36,1,3_dist_green/trial12.png,,,1,3,greenverival,p,30,20,Male,2021-02-17_13h42.51.343,exp11,2020.2.6,Win32,60,,,,,,,,,,,
,,,,,,,,,,,,,,p,1,1.03979,space,0.31746,0,160,160,97,1,15_dist_green/trial23.png,,,1,15,greenverival,p,30,20,Male,2021-02-17_13h42.51.343,exp11,2020.2.6,Win32,60,,,,,,,,,,,
,,,,,,,,,,,,,,p,1,0.70947,space,0.2572,0,161,161,33,1,3_dist_green/trial9.png,,,1,3,greenverival,p,30,20,Male,2021-02-17_13h42.51.343,exp11,2020.2.6,Win32,60,,,,,,,,,,,
,,,,,,,,,,,,,,p,1,0.743055,space,0.30075,0,162,162,23,1,0_dist_green/trial24.png,,,1,0,greenverival,p,30,20,Male,2021-02-17_13h42.51.343,exp11,2020.2.6,Win32,60,,,,,,,,,,,
,,,,,,,,,,,,,,p,1,0.778905,space,0.304995,0,163,163,44,1,3_dist_green/trial20.png,,,1,3,greenverival,p,30,20,Male,2021-02-17_13h42.51.343,exp11,2020.2.6,Win32,60,,,,,,,,,,,
,,,,,,,,,,,,,,p,1,0.71185,space,0.274115,0,164,164,2,1,0_dist_green/trial3.png,,,1,0,greenverival,p,30,20,Male,2021-02-17_13h42.51.343,exp11,2020.2.6,Win32,60,,,,,,,,,,,
,,,,,,,,,,,,,,a,1,0.79973,space,0.365685,0,165,165,136,1,0_targ_4_dist_green/trial12.png,,,0,4,greenverival,a,30,20,Male,2021-02-17_13h42.51.343,exp11,2020.2.6,Win32,60,,,,,,,,,,,
,,,,,,,,,,,,,,p,1,0.81551,space,0.30022,0,166,166,88,1,15_dist_green/trial14.png,,,1,15,greenverival,p,30,20,Male,2021-02-17_13h42.51.343,exp11,2020.2.6,Win32,60,,,,,,,,,,,
,,,,,,,,,,,,,,a,1,0.766285,space,0.365595,0,167,167,165,1,0_targ_10_dist_green/trial16.png,,,0,10,greenverival,a,30,20,Male,2021-02-17_13h42.51.343,exp11,2020.2.6,Win32,60,,,,,,,,,,,
,,,,,,,,,,,,,,a,1,1.27783,space,0.26036,0,168,168,134,1,0_targ_4_dist_green/trial10.png,,,0,4,greenverival,a,30,20,Male,2021-02-17_13h42.51.343,exp11,2020.2.6,Win32,60,,,,,,,,,,,
,,,,,,,,,,,,,,p,1,1.021825,space,0.30014,0,169,169,80,1,15_dist_green/trial6.png,,,1,15,greenverival,p,30,20,Male,2021-02-17_13h42.51.343,exp11,2020.2.6,Win32,60,,,,,,,,,,,
,,,,,,,,,,,,,,a,1,0.96019,space,0.28422,0,170,170,131,1,0_targ_4_dist_green/trial7.png,,,0,4,greenverival,a,30,20,Male,2021-02-17_13h42.51.343,exp11,2020.2.6,Win32,60,,,,,,,,,,,
,,,,,,,,,,,,,,p,1,1.02498,space,0.31856,0,171,171,77,1,15_dist_green/trial3.png,,,1,15,greenverival,p,30,20,Male,2021-02-17_13h42.51.343,exp11,2020.2.6,Win32,60,,,,,,,,,,,
,,,,,,,,,,,,,,p,1,1.007185,space,0.31647,0,172,172,93,1,15_dist_green/trial19.png,,,1,15,greenverival,p,30,20,Male,2021-02-17_13h42.51.343,exp11,2020.2.6,Win32,60,,,,,,,,,,,
,,,,,,,,,,,,,,a,1,0.705585,space,0.30916,0,173,173,152,1,0_targ_10_dist_green/trial3.png,,,0,10,greenverival,a,30,20,Male,2021-02-17_13h42.51.343,exp11,2020.2.6,Win32,60,,,,,,,,,,,
,,,,,,,,,,,,,,a,1,0.8022,space,0.30861,0,174,174,135,1,0_targ_4_dist_green/trial11.png,,,0,4,greenverival,a,30,20,Male,2021-02-17_13h42.51.343,exp11,2020.2.6,Win32,60,,,,,,,,,,,
,,,,,,,,,,,,,,a,1,0.77963,space,0.358295,0,175,175,175,1,0_targ_16_dist_green/trial1.png,,,0,16,greenverival,a,30,20,Male,2021-02-17_13h42.51.343,exp11,2020.2.6,Win32,60,,,,,,,,,,,
,,,,,,,,,,,,,,p,1,1.22902,space,0.323605,0,176,176,96,1,15_dist_green/trial22.png,,,1,15,greenverival,p,30,20,Male,2021-02-17_13h42.51.343,exp11,2020.2.6,Win32,60,,,,,,,,,,,
,,,,,,,,,,,,,,p,1,0.978105,space,0.310685,0,177,177,81,1,15_dist_green/trial7.png,,,1,15,greenverival,p,30,20,Male,2021-02-17_13h42.51.343,exp11,2020.2.6,Win32,60,,,,,,,,,,,
,,,,,,,,,,,,,,p,1,0.76034,space,0.318785,0,178,178,8,1,0_dist_green/trial9.png,,,1,0,greenverival,p,30,20,Male,2021-02-17_13h42.51.343,exp11,2020.2.6,Win32,60,,,,,,,,,,,
,,,,,,,,,,,,,,a,1,0.622065,space,0.37536,0,179,179,129,1,0_targ_4_dist_green/trial5.png,,,0,4,greenverival,a,30,20,Male,2021-02-17_13h42.51.343,exp11,2020.2.6,Win32,60,,,,,,,,,,,
,,,,,,,,,,,,,,a,1,1.078095,space,0.292155,0,180,180,195,1,0_targ_16_dist_green/trial21.png,,,0,16,greenverival,a,30,20,Male,2021-02-17_13h42.51.343,exp11,2020.2.6,Win32,60,,,,,,,,,,,
,,,,,,,,,,,,,,p,1,0.80377,space,0.31578,0,181,181,30,1,3_dist_green/trial6.png,,,1,3,greenverival,p,30,20,Male,2021-02-17_13h42.51.343,exp11,2020.2.6,Win32,60,,,,,,,,,,,
,,,,,,,,,,,,,,a,1,0.646745,space,0.33576,0,182,182,107,1,0_targ_1_dist_green/trial8.png,,,0,1,greenverival,a,30,20,Male,2021-02-17_13h42.51.343,exp11,2020.2.6,Win32,60,,,,,,,,,,,
,,,,,,,,,,,,,,a,1,0.86186,space,0.40293,0,183,183,158,1,0_targ_10_dist_green/trial9.png,,,0,10,greenverival,a,30,20,Male,2021-02-17_13h42.51.343,exp11,2020.2.6,Win32,60,,,,,,,,,,,
,,,,,,,,,,,,,,p,1,0.71205,space,0.333885,0,184,184,16,1,0_dist_green/trial17.png,,,1,0,greenverival,p,30,20,Male,2021-02-17_13h42.51.343,exp11,2020.2.6,Win32,60,,,,,,,,,,,
,,,,,,,,,,,,,,p,1,0.650785,space,0.344145,0,185,185,10,1,0_dist_green/trial11.png,,,1,0,greenverival,p,30,20,Male,2021-02-17_13h42.51.343,exp11,2020.2.6,Win32,60,,,,,,,,,,,
,,,,,,,,,,,,,,a,0,0.61341,space,0.17697,0,186,186,70,1,9_dist_green/trial21.png,,,1,9,greenverival,p,30,20,Male,2021-02-17_13h42.51.343,exp11,2020.2.6,Win32,60,,,,,,,,,,,
,,,,,,,,,,,,,,p,1,0.8008,space,0.994665,0,187,187,95,1,15_dist_green/trial21.png,,,1,15,greenverival,p,30,20,Male,2021-02-17_13h42.51.343,exp11,2020.2.6,Win32,60,,,,,,,,,,,
,,,,,,,,,,,,,,a,1,1.20189,space,0.770925,0,188,188,170,1,0_targ_10_dist_green/trial21.png,,,0,10,greenverival,a,30,20,Male,2021-02-17_13h42.51.343,exp11,2020.2.6,Win32,60,,,,,,,,,,,
,,,,,,,,,,,,,,p,1,0.861155,space,0.402135,0,189,189,91,1,15_dist_green/trial17.png,,,1,15,greenverival,p,30,20,Male,2021-02-17_13h42.51.343,exp11,2020.2.6,Win32,60,,,,,,,,,,,
,,,,,,,,,,,,,,a,1,0.627715,space,0.332615,0,190,190,120,1,0_targ_1_dist_green/trial21.png,,,0,1,greenverival,a,30,20,Male,2021-02-17_13h42.51.343,exp11,2020.2.6,Win32,60,,,,,,,,,,,
,,,,,,,,,,,,,,a,1,0.7227,space,0.4319,0,191,191,166,1,0_targ_10_dist_green/trial17.png,,,0,10,greenverival,a,30,20,Male,2021-02-17_13h42.51.343,exp11,2020.2.6,Win32,60,,,,,,,,,,,
,,,,,,,,,,,,,,p,1,0.878205,space,0.35116,0,192,192,4,1,0_dist_green/trial5.png,,,1,0,greenverival,p,30,20,Male,2021-02-17_13h42.51.343,exp11,2020.2.6,Win32,60,,,,,,,,,,,
,,,,,,,,,,,,,,a,1,0.6183,space,0.35387,0,193,193,113,1,0_targ_1_dist_green/trial14.png,,,0,1,greenverival,a,30,20,Male,2021-02-17_13h42.51.343,exp11,2020.2.6,Win32,60,,,,,,,,,,,
,,,,,,,,,,,,,,a,1,1.03421,space,0.410275,0,194,194,139,1,0_targ_4_dist_green/trial15.png,,,0,4,greenverival,a,30,20,Male,2021-02-17_13h42.51.343,exp11,2020.2.6,Win32,60,,,,,,,,,,,
,,,,,,,,,,,,,,a,1,0.612095,space,0.388735,0,195,195,138,1,0_targ_4_dist_green/trial14.png,,,0,4,greenverival,a,30,20,Male,2021-02-17_13h42.51.343,exp11,2020.2.6,Win32,60,,,,,,,,,,,
,,,,,,,,,,,,,,p,1,0.8824,space,0.377835,0,196,196,76,1,15_dist_green/trial2.png,,,1,15,greenverival,p,30,20,Male,2021-02-17_13h42.51.343,exp11,2020.2.6,Win32,60,,,,,,,,,,,
,,,,,,,,,,,,,,p,1,0.749635,space,0.337895,0,197,197,24,1,0_dist_green/trial25.png,,,1,0,greenverival,p,30,20,Male,2021-02-17_13h42.51.343,exp11,2020.2.6,Win32,60,,,,,,,,,,,
,,,,,,,,,,,,,,a,1,1.39321,space,0.34412,0,198,198,197,1,0_targ_16_dist_green/trial23.png,,,0,16,greenverival,a,30,20,Male,2021-02-17_13h42.51.343,exp11,2020.2.6,Win32,60,,,,,,,,,,,
,,,,,,,,,,,,,,p,1,0.71302,space,0.416725,0,199,199,15,1,0_dist_green/trial16.png,,,1,0,greenverival,p,30,20,Male,2021-02-17_13h42.51.343,exp11,2020.2.6,Win32,60,,,,,,,,,,,
,,,,,,,,,,,,,,,,,,,,,,,,,,,,,,,30,20,Male,2021-02-17_13h42.51.343,exp11,2020.2.6,Win32,60,0,1,1,0,1,conGreen.xlsx,green vertical,Look for green vertical bar (target) and indicate if it is present or absent in the array. If green vertical target is present press 'p' and if absent press 'a'. Press SPACE to start.,,,
