key_resp_6.keys,key_resp_6.rt,key_resp_7.keys,key_resp_7.rt,key_resp_8.keys,key_resp_8.rt,key_resp_10.keys,key_resp_10.rt,key_resp_9.keys,key_resp_9.rt,key_resp_3.keys,key_resp_3.rt,key_resp_5.keys,key_resp_5.rt,key_resp.keys,key_resp.corr,key_resp.rt,key_resp_4.keys,key_resp_4.rt,trials.thisRepN,trials.thisTrialN,trials.thisN,trials.thisIndex,trials.ran,ImageFile,tarPos,tarSize,targPres,numDist,targetName,correctAns,participant,age,sex,date,expName,psychopyVersion,OS,frameRate,trials_2.thisRepN,trials_2.thisTrialN,trials_2.thisN,trials_2.thisIndex,trials_2.ran,condsFile,targName,instructionText,colTarget,sizeTarg,posit
space,5.595905,space,12.44224,space,3.01034,space,15.275915,space,7.354065,space,8.479665,space,7.01786,p,1,0.33684,space,3.534105,0,0,0,14,1,0_dist_green/trial15.png,,,1,0,greenverival,p,31,21,female,2021-02-21_22h11.45.560,exp11,2020.2.6,Win32,60,,,,,,,,,,,
,,,,,,,,,,,,,,p,1,0.78623,space,0.850935,0,1,1,79,1,15_dist_green/trial5.png,,,1,15,greenverival,p,31,21,female,2021-02-21_22h11.45.560,exp11,2020.2.6,Win32,60,,,,,,,,,,,
,,,,,,,,,,,,,,a,1,2.168915,space,0.5531,0,2,2,172,1,0_targ_10_dist_green/trial23.png,,,0,10,greenverival,a,31,21,female,2021-02-21_22h11.45.560,exp11,2020.2.6,Win32,60,,,,,,,,,,,
,,,,,,,,,,,,,,a,1,0.723595,space,0.359635,0,3,3,103,1,0_targ_1_dist_green/trial4.png,,,0,1,greenverival,a,31,21,female,2021-02-21_22h11.45.560,exp11,2020.2.6,Win32,60,,,,,,,,,,,
,,,,,,,,,,,,,,p,1,0.663065,space,0.400815,0,4,4,32,1,3_dist_green/trial8.png,,,1,3,greenverival,p,31,21,female,2021-02-21_22h11.45.560,exp11,2020.2.6,Win32,60,,,,,,,,,,,
,,,,,,,,,,,,,,a,1,1.954905,space,0.55201,0,5,5,197,1,0_targ_16_dist_green/trial23.png,,,0,16,greenverival,a,31,21,female,2021-02-21_22h11.45.560,exp11,2020.2.6,Win32,60,,,,,,,,,,,
,,,,,,,,,,,,,,a,1,1.083535,space,0.357405,0,6,6,183,1,0_targ_16_dist_green/trial9.png,,,0,16,greenverival,a,31,21,female,2021-02-21_22h11.45.560,exp11,2020.2.6,Win32,60,,,,,,,,,,,
,,,,,,,,,,,,,,p,1,0.45983,space,0.5495,0,7,7,5,1,0_dist_green/trial6.png,,,1,0,greenverival,p,31,21,female,2021-02-21_22h11.45.560,exp11,2020.2.6,Win32,60,,,,,,,,,,,
,,,,,,,,,,,,,,a,1,0.75634,space,0.368555,0,8,8,123,1,0_targ_1_dist_green/trial24.png,,,0,1,greenverival,a,31,21,female,2021-02-21_22h11.45.560,exp11,2020.2.6,Win32,60,,,,,,,,,,,
,,,,,,,,,,,,,,a,1,1.532445,space,0.338015,0,9,9,190,1,0_targ_16_dist_green/trial16.png,,,0,16,greenverival,a,31,21,female,2021-02-21_22h11.45.560,exp11,2020.2.6,Win32,60,,,,,,,,,,,
,,,,,,,,,,,,,,a,1,0.645085,space,0.243005,0,10,10,113,1,0_targ_1_dist_green/trial14.png,,,0,1,greenverival,a,31,21,female,2021-02-21_22h11.45.560,exp11,2020.2.6,Win32,60,,,,,,,,,,,
,,,,,,,,,,,,,,p,1,0.70874,space,0.411885,0,11,11,27,1,3_dist_green/trial3.png,,,1,3,greenverival,p,31,21,female,2021-02-21_22h11.45.560,exp11,2020.2.6,Win32,60,,,,,,,,,,,
,,,,,,,,,,,,,,a,1,1.5684,space,0.366145,0,12,12,189,1,0_targ_16_dist_green/trial15.png,,,0,16,greenverival,a,31,21,female,2021-02-21_22h11.45.560,exp11,2020.2.6,Win32,60,,,,,,,,,,,
,,,,,,,,,,,,,,p,1,0.96434,space,0.34538,0,13,13,52,1,9_dist_green/trial3.png,,,1,9,greenverival,p,31,21,female,2021-02-21_22h11.45.560,exp11,2020.2.6,Win32,60,,,,,,,,,,,
,,,,,,,,,,,,,,p,1,0.65303,space,0.32949,0,14,14,89,1,15_dist_green/trial15.png,,,1,15,greenverival,p,31,21,female,2021-02-21_22h11.45.560,exp11,2020.2.6,Win32,60,,,,,,,,,,,
,,,,,,,,,,,,,,a,1,0.63411,space,0.243275,0,15,15,114,1,0_targ_1_dist_green/trial15.png,,,0,1,greenverival,a,31,21,female,2021-02-21_22h11.45.560,exp11,2020.2.6,Win32,60,,,,,,,,,,,
,,,,,,,,,,,,,,p,1,0.85822,space,0.40465,0,16,16,66,1,9_dist_green/trial17.png,,,1,9,greenverival,p,31,21,female,2021-02-21_22h11.45.560,exp11,2020.2.6,Win32,60,,,,,,,,,,,
,,,,,,,,,,,,,,a,1,1.0168,space,0.416525,0,17,17,158,1,0_targ_10_dist_green/trial9.png,,,0,10,greenverival,a,31,21,female,2021-02-21_22h11.45.560,exp11,2020.2.6,Win32,60,,,,,,,,,,,
,,,,,,,,,,,,,,a,1,1.27664,space,0.32243,0,18,18,159,1,0_targ_10_dist_green/trial10.png,,,0,10,greenverival,a,31,21,female,2021-02-21_22h11.45.560,exp11,2020.2.6,Win32,60,,,,,,,,,,,
,,,,,,,,,,,,,,a,1,1.30989,space,0.340515,0,19,19,194,1,0_targ_16_dist_green/trial20.png,,,0,16,greenverival,a,31,21,female,2021-02-21_22h11.45.560,exp11,2020.2.6,Win32,60,,,,,,,,,,,
,,,,,,,,,,,,,,p,1,0.406745,space,0.33566,0,20,20,18,1,0_dist_green/trial19.png,,,1,0,greenverival,p,31,21,female,2021-02-21_22h11.45.560,exp11,2020.2.6,Win32,60,,,,,,,,,,,
,,,,,,,,,,,,,,a,1,0.61023,space,0.33863,0,21,21,170,1,0_targ_10_dist_green/trial21.png,,,0,10,greenverival,a,31,21,female,2021-02-21_22h11.45.560,exp11,2020.2.6,Win32,60,,,,,,,,,,,
,,,,,,,,,,,,,,a,1,0.64268,space,0.30161,0,22,22,107,1,0_targ_1_dist_green/trial8.png,,,0,1,greenverival,a,31,21,female,2021-02-21_22h11.45.560,exp11,2020.2.6,Win32,60,,,,,,,,,,,
,,,,,,,,,,,,,,a,1,1.04636,space,0.316615,0,23,23,179,1,0_targ_16_dist_green/trial5.png,,,0,16,greenverival,a,31,21,female,2021-02-21_22h11.45.560,exp11,2020.2.6,Win32,60,,,,,,,,,,,
,,,,,,,,,,,,,,a,1,0.791755,space,0.285295,0,24,24,147,1,0_targ_4_dist_green/trial23.png,,,0,4,greenverival,a,31,21,female,2021-02-21_22h11.45.560,exp11,2020.2.6,Win32,60,,,,,,,,,,,
,,,,,,,,,,,,,,p,1,0.64797,space,0.33476,0,25,25,59,1,9_dist_green/trial10.png,,,1,9,greenverival,p,31,21,female,2021-02-21_22h11.45.560,exp11,2020.2.6,Win32,60,,,,,,,,,,,
,,,,,,,,,,,,,,p,1,0.51581,space,0.288395,0,26,26,8,1,0_dist_green/trial9.png,,,1,0,greenverival,p,31,21,female,2021-02-21_22h11.45.560,exp11,2020.2.6,Win32,60,,,,,,,,,,,
,,,,,,,,,,,,,,a,1,0.52039,space,0.325395,0,27,27,100,1,0_targ_1_dist_green/trial1.png,,,0,1,greenverival,a,31,21,female,2021-02-21_22h11.45.560,exp11,2020.2.6,Win32,60,,,,,,,,,,,
,,,,,,,,,,,,,,a,1,0.781695,space,0.25924,0,28,28,141,1,0_targ_4_dist_green/trial17.png,,,0,4,greenverival,a,31,21,female,2021-02-21_22h11.45.560,exp11,2020.2.6,Win32,60,,,,,,,,,,,
,,,,,,,,,,,,,,p,1,0.6432,space,0.351645,0,29,29,37,1,3_dist_green/trial13.png,,,1,3,greenverival,p,31,21,female,2021-02-21_22h11.45.560,exp11,2020.2.6,Win32,60,,,,,,,,,,,
,,,,,,,,,,,,,,a,1,0.83262,space,0.33494,0,30,30,156,1,0_targ_10_dist_green/trial7.png,,,0,10,greenverival,a,31,21,female,2021-02-21_22h11.45.560,exp11,2020.2.6,Win32,60,,,,,,,,,,,
,,,,,,,,,,,,,,a,1,1.04688,space,0.274275,0,31,31,186,1,0_targ_16_dist_green/trial12.png,,,0,16,greenverival,a,31,21,female,2021-02-21_22h11.45.560,exp11,2020.2.6,Win32,60,,,,,,,,,,,
,,,,,,,,,,,,,,a,1,0.832035,space,0.307025,0,32,32,164,1,0_targ_10_dist_green/trial15.png,,,0,10,greenverival,a,31,21,female,2021-02-21_22h11.45.560,exp11,2020.2.6,Win32,60,,,,,,,,,,,
,,,,,,,,,,,,,,a,1,0.680085,space,0.317875,0,33,33,153,1,0_targ_10_dist_green/trial4.png,,,0,10,greenverival,a,31,21,female,2021-02-21_22h11.45.560,exp11,2020.2.6,Win32,60,,,,,,,,,,,
,,,,,,,,,,,,,,p,1,0.74319,space,0.23594,0,34,34,44,1,3_dist_green/trial20.png,,,1,3,greenverival,p,31,21,female,2021-02-21_22h11.45.560,exp11,2020.2.6,Win32,60,,,,,,,,,,,
,,,,,,,,,,,,,,a,1,0.659065,space,0.256905,0,35,35,105,1,0_targ_1_dist_green/trial6.png,,,0,1,greenverival,a,31,21,female,2021-02-21_22h11.45.560,exp11,2020.2.6,Win32,60,,,,,,,,,,,
,,,,,,,,,,,,,,a,1,1.109865,space,0.244895,0,36,36,167,1,0_targ_10_dist_green/trial18.png,,,0,10,greenverival,a,31,21,female,2021-02-21_22h11.45.560,exp11,2020.2.6,Win32,60,,,,,,,,,,,
,,,,,,,,,,,,,,a,1,0.825305,space,0.258425,0,37,37,129,1,0_targ_4_dist_green/trial5.png,,,0,4,greenverival,a,31,21,female,2021-02-21_22h11.45.560,exp11,2020.2.6,Win32,60,,,,,,,,,,,
,,,,,,,,,,,,,,p,1,0.59708,space,0.22954,0,38,38,3,1,0_dist_green/trial4.png,,,1,0,greenverival,p,31,21,female,2021-02-21_22h11.45.560,exp11,2020.2.6,Win32,60,,,,,,,,,,,
,,,,,,,,,,,,,,p,1,1.04482,space,0.211305,0,39,39,77,1,15_dist_green/trial3.png,,,1,15,greenverival,p,31,21,female,2021-02-21_22h11.45.560,exp11,2020.2.6,Win32,60,,,,,,,,,,,
,,,,,,,,,,,,,,a,1,0.61236,space,0.34058,0,40,40,143,1,0_targ_4_dist_green/trial19.png,,,0,4,greenverival,a,31,21,female,2021-02-21_22h11.45.560,exp11,2020.2.6,Win32,60,,,,,,,,,,,
,,,,,,,,,,,,,,a,1,0.854635,space,0.38567,0,41,41,168,1,0_targ_10_dist_green/trial19.png,,,0,10,greenverival,a,31,21,female,2021-02-21_22h11.45.560,exp11,2020.2.6,Win32,60,,,,,,,,,,,
,,,,,,,,,,,,,,a,1,0.596925,space,0.32427,0,42,42,120,1,0_targ_1_dist_green/trial21.png,,,0,1,greenverival,a,31,21,female,2021-02-21_22h11.45.560,exp11,2020.2.6,Win32,60,,,,,,,,,,,
,,,,,,,,,,,,,,p,1,0.52029,space,0.287965,0,43,43,33,1,3_dist_green/trial9.png,,,1,3,greenverival,p,31,21,female,2021-02-21_22h11.45.560,exp11,2020.2.6,Win32,60,,,,,,,,,,,
,,,,,,,,,,,,,,p,1,0.831495,space,0.301285,0,44,44,75,1,15_dist_green/trial1.png,,,1,15,greenverival,p,31,21,female,2021-02-21_22h11.45.560,exp11,2020.2.6,Win32,60,,,,,,,,,,,
,,,,,,,,,,,,,,p,1,0.683695,space,0.285865,0,45,45,0,1,0_dist_green/trial1.png,,,1,0,greenverival,p,31,21,female,2021-02-21_22h11.45.560,exp11,2020.2.6,Win32,60,,,,,,,,,,,
,,,,,,,,,,,,,,p,1,0.740675,space,0.29441,0,46,46,57,1,9_dist_green/trial8.png,,,1,9,greenverival,p,31,21,female,2021-02-21_22h11.45.560,exp11,2020.2.6,Win32,60,,,,,,,,,,,
,,,,,,,,,,,,,,p,1,0.64466,space,0.278535,0,47,47,41,1,3_dist_green/trial17.png,,,1,3,greenverival,p,31,21,female,2021-02-21_22h11.45.560,exp11,2020.2.6,Win32,60,,,,,,,,,,,
,,,,,,,,,,,,,,a,1,0.60376,space,0.263565,0,48,48,109,1,0_targ_1_dist_green/trial10.png,,,0,1,greenverival,a,31,21,female,2021-02-21_22h11.45.560,exp11,2020.2.6,Win32,60,,,,,,,,,,,
,,,,,,,,,,,,,,a,1,1.36743,space,0.328015,0,49,49,182,1,0_targ_16_dist_green/trial8.png,,,0,16,greenverival,a,31,21,female,2021-02-21_22h11.45.560,exp11,2020.2.6,Win32,60,,,,,,,,,,,
,,,,,,,,,,,,,,p,1,0.72932,space,0.232875,0,50,50,55,1,9_dist_green/trial6.png,,,1,9,greenverival,p,31,21,female,2021-02-21_22h11.45.560,exp11,2020.2.6,Win32,60,,,,,,,,,,,
,,,,,,,,,,,,,,a,1,0.55189,space,0.36935,0,51,51,104,1,0_targ_1_dist_green/trial5.png,,,0,1,greenverival,a,31,21,female,2021-02-21_22h11.45.560,exp11,2020.2.6,Win32,60,,,,,,,,,,,
,,,,,,,,,,,,,,p,1,0.79043,space,0.27801,0,52,52,70,1,9_dist_green/trial21.png,,,1,9,greenverival,p,31,21,female,2021-02-21_22h11.45.560,exp11,2020.2.6,Win32,60,,,,,,,,,,,
,,,,,,,,,,,,,,a,1,0.996685,space,0.384165,0,53,53,198,1,0_targ_16_dist_green/trial24.png,,,0,16,greenverival,a,31,21,female,2021-02-21_22h11.45.560,exp11,2020.2.6,Win32,60,,,,,,,,,,,
,,,,,,,,,,,,,,a,1,0.632465,space,0.341515,0,54,54,133,1,0_targ_4_dist_green/trial9.png,,,0,4,greenverival,a,31,21,female,2021-02-21_22h11.45.560,exp11,2020.2.6,Win32,60,,,,,,,,,,,
,,,,,,,,,,,,,,a,1,0.746965,space,0.278005,0,55,55,108,1,0_targ_1_dist_green/trial9.png,,,0,1,greenverival,a,31,21,female,2021-02-21_22h11.45.560,exp11,2020.2.6,Win32,60,,,,,,,,,,,
,,,,,,,,,,,,,,p,1,0.580965,space,0.420425,0,56,56,76,1,15_dist_green/trial2.png,,,1,15,greenverival,p,31,21,female,2021-02-21_22h11.45.560,exp11,2020.2.6,Win32,60,,,,,,,,,,,
,,,,,,,,,,,,,,a,1,0.682795,space,0.412685,0,57,57,155,1,0_targ_10_dist_green/trial6.png,,,0,10,greenverival,a,31,21,female,2021-02-21_22h11.45.560,exp11,2020.2.6,Win32,60,,,,,,,,,,,
,,,,,,,,,,,,,,p,1,0.506545,space,0.28568,0,58,58,13,1,0_dist_green/trial14.png,,,1,0,greenverival,p,31,21,female,2021-02-21_22h11.45.560,exp11,2020.2.6,Win32,60,,,,,,,,,,,
,,,,,,,,,,,,,,a,1,0.855825,space,0.460195,0,59,59,165,1,0_targ_10_dist_green/trial16.png,,,0,10,greenverival,a,31,21,female,2021-02-21_22h11.45.560,exp11,2020.2.6,Win32,60,,,,,,,,,,,
,,,,,,,,,,,,,,a,1,0.794295,space,0.376175,0,60,60,135,1,0_targ_4_dist_green/trial11.png,,,0,4,greenverival,a,31,21,female,2021-02-21_22h11.45.560,exp11,2020.2.6,Win32,60,,,,,,,,,,,
,,,,,,,,,,,,,,a,1,1.076585,space,0.309515,0,61,61,187,1,0_targ_16_dist_green/trial13.png,,,0,16,greenverival,a,31,21,female,2021-02-21_22h11.45.560,exp11,2020.2.6,Win32,60,,,,,,,,,,,
,,,,,,,,,,,,,,p,1,0.497755,space,0.31007,0,62,62,38,1,3_dist_green/trial14.png,,,1,3,greenverival,p,31,21,female,2021-02-21_22h11.45.560,exp11,2020.2.6,Win32,60,,,,,,,,,,,
,,,,,,,,,,,,,,p,1,0.94211,space,0.2515,0,63,63,97,1,15_dist_green/trial23.png,,,1,15,greenverival,p,31,21,female,2021-02-21_22h11.45.560,exp11,2020.2.6,Win32,60,,,,,,,,,,,
,,,,,,,,,,,,,,a,0,0.489745,space,0.56672,0,64,64,23,1,0_dist_green/trial24.png,,,1,0,greenverival,p,31,21,female,2021-02-21_22h11.45.560,exp11,2020.2.6,Win32,60,,,,,,,,,,,
,,,,,,,,,,,,,,p,1,0.605035,space,0.238345,0,65,65,48,1,3_dist_green/trial24.png,,,1,3,greenverival,p,31,21,female,2021-02-21_22h11.45.560,exp11,2020.2.6,Win32,60,,,,,,,,,,,
,,,,,,,,,,,,,,a,1,0.88793,space,0.33669,0,66,66,199,1,0_targ_16_dist_green/trial25.png,,,0,16,greenverival,a,31,21,female,2021-02-21_22h11.45.560,exp11,2020.2.6,Win32,60,,,,,,,,,,,
,,,,,,,,,,,,,,p,1,0.501415,space,0.273515,0,67,67,21,1,0_dist_green/trial22.png,,,1,0,greenverival,p,31,21,female,2021-02-21_22h11.45.560,exp11,2020.2.6,Win32,60,,,,,,,,,,,
,,,,,,,,,,,,,,p,1,0.632065,space,0.27307,0,68,68,36,1,3_dist_green/trial12.png,,,1,3,greenverival,p,31,21,female,2021-02-21_22h11.45.560,exp11,2020.2.6,Win32,60,,,,,,,,,,,
,,,,,,,,,,,,,,a,1,0.94835,space,0.267965,0,69,69,128,1,0_targ_4_dist_green/trial4.png,,,0,4,greenverival,a,31,21,female,2021-02-21_22h11.45.560,exp11,2020.2.6,Win32,60,,,,,,,,,,,
,,,,,,,,,,,,,,p,1,0.688055,space,0.251715,0,70,70,45,1,3_dist_green/trial21.png,,,1,3,greenverival,p,31,21,female,2021-02-21_22h11.45.560,exp11,2020.2.6,Win32,60,,,,,,,,,,,
,,,,,,,,,,,,,,p,1,1.01592,space,0.302955,0,71,71,53,1,9_dist_green/trial4.png,,,1,9,greenverival,p,31,21,female,2021-02-21_22h11.45.560,exp11,2020.2.6,Win32,60,,,,,,,,,,,
,,,,,,,,,,,,,,p,1,0.583565,space,0.24593,0,72,72,22,1,0_dist_green/trial23.png,,,1,0,greenverival,p,31,21,female,2021-02-21_22h11.45.560,exp11,2020.2.6,Win32,60,,,,,,,,,,,
,,,,,,,,,,,,,,p,1,0.64915,space,0.168105,0,73,73,92,1,15_dist_green/trial18.png,,,1,15,greenverival,p,31,21,female,2021-02-21_22h11.45.560,exp11,2020.2.6,Win32,60,,,,,,,,,,,
,,,,,,,,,,,,,,a,1,0.5963,space,0.353545,0,74,74,125,1,0_targ_4_dist_green/trial1.png,,,0,4,greenverival,a,31,21,female,2021-02-21_22h11.45.560,exp11,2020.2.6,Win32,60,,,,,,,,,,,
,,,,,,,,,,,,,,a,1,1.09461,space,0.31783,0,75,75,160,1,0_targ_10_dist_green/trial11.png,,,0,10,greenverival,a,31,21,female,2021-02-21_22h11.45.560,exp11,2020.2.6,Win32,60,,,,,,,,,,,
,,,,,,,,,,,,,,p,1,0.55058,space,0.33743,0,76,76,43,1,3_dist_green/trial19.png,,,1,3,greenverival,p,31,21,female,2021-02-21_22h11.45.560,exp11,2020.2.6,Win32,60,,,,,,,,,,,
,,,,,,,,,,,,,,a,1,0.696165,space,0.328145,0,77,77,130,1,0_targ_4_dist_green/trial6.png,,,0,4,greenverival,a,31,21,female,2021-02-21_22h11.45.560,exp11,2020.2.6,Win32,60,,,,,,,,,,,
,,,,,,,,,,,,,,a,1,0.57756,space,0.308755,0,78,78,111,1,0_targ_1_dist_green/trial12.png,,,0,1,greenverival,a,31,21,female,2021-02-21_22h11.45.560,exp11,2020.2.6,Win32,60,,,,,,,,,,,
,,,,,,,,,,,,,,p,1,0.511995,space,0.327675,0,79,79,85,1,15_dist_green/trial11.png,,,1,15,greenverival,p,31,21,female,2021-02-21_22h11.45.560,exp11,2020.2.6,Win32,60,,,,,,,,,,,
,,,,,,,,,,,,,,p,1,0.515055,space,0.27552,0,80,80,24,1,0_dist_green/trial25.png,,,1,0,greenverival,p,31,21,female,2021-02-21_22h11.45.560,exp11,2020.2.6,Win32,60,,,,,,,,,,,
,,,,,,,,,,,,,,a,1,0.76221,space,0.38565,0,81,81,169,1,0_targ_10_dist_green/trial20.png,,,0,10,greenverival,a,31,21,female,2021-02-21_22h11.45.560,exp11,2020.2.6,Win32,60,,,,,,,,,,,
,,,,,,,,,,,,,,a,1,0.61122,space,0.33567,0,82,82,132,1,0_targ_4_dist_green/trial8.png,,,0,4,greenverival,a,31,21,female,2021-02-21_22h11.45.560,exp11,2020.2.6,Win32,60,,,,,,,,,,,
,,,,,,,,,,,,,,a,1,0.88487,space,0.30344,0,83,83,195,1,0_targ_16_dist_green/trial21.png,,,0,16,greenverival,a,31,21,female,2021-02-21_22h11.45.560,exp11,2020.2.6,Win32,60,,,,,,,,,,,
,,,,,,,,,,,,,,p,1,0.62762,space,0.342075,0,84,84,63,1,9_dist_green/trial14.png,,,1,9,greenverival,p,31,21,female,2021-02-21_22h11.45.560,exp11,2020.2.6,Win32,60,,,,,,,,,,,
,,,,,,,,,,,,,,a,1,0.8171,space,0.351155,0,85,85,173,1,0_targ_10_dist_green/trial24.png,,,0,10,greenverival,a,31,21,female,2021-02-21_22h11.45.560,exp11,2020.2.6,Win32,60,,,,,,,,,,,
,,,,,,,,,,,,,,a,1,0.62302,space,0.29263,0,86,86,149,1,0_targ_4_dist_green/trial25.png,,,0,4,greenverival,a,31,21,female,2021-02-21_22h11.45.560,exp11,2020.2.6,Win32,60,,,,,,,,,,,
,,,,,,,,,,,,,,a,1,1.159,space,0.184715,0,87,87,119,1,0_targ_1_dist_green/trial20.png,,,0,1,greenverival,a,31,21,female,2021-02-21_22h11.45.560,exp11,2020.2.6,Win32,60,,,,,,,,,,,
,,,,,,,,,,,,,,a,1,0.75341,space,0.186315,0,88,88,146,1,0_targ_4_dist_green/trial22.png,,,0,4,greenverival,a,31,21,female,2021-02-21_22h11.45.560,exp11,2020.2.6,Win32,60,,,,,,,,,,,
,,,,,,,,,,,,,,p,1,0.73211,space,0.28769,0,89,89,80,1,15_dist_green/trial6.png,,,1,15,greenverival,p,31,21,female,2021-02-21_22h11.45.560,exp11,2020.2.6,Win32,60,,,,,,,,,,,
,,,,,,,,,,,,,,p,1,0.555815,space,0.229935,0,90,90,46,1,3_dist_green/trial22.png,,,1,3,greenverival,p,31,21,female,2021-02-21_22h11.45.560,exp11,2020.2.6,Win32,60,,,,,,,,,,,
,,,,,,,,,,,,,,p,1,0.492515,space,0.324945,0,91,91,96,1,15_dist_green/trial22.png,,,1,15,greenverival,p,31,21,female,2021-02-21_22h11.45.560,exp11,2020.2.6,Win32,60,,,,,,,,,,,
,,,,,,,,,,,,,,a,1,0.745425,space,0.30194,0,92,92,154,1,0_targ_10_dist_green/trial5.png,,,0,10,greenverival,a,31,21,female,2021-02-21_22h11.45.560,exp11,2020.2.6,Win32,60,,,,,,,,,,,
,,,,,,,,,,,,,,a,1,0.81854,space,0.29166,0,93,93,139,1,0_targ_4_dist_green/trial15.png,,,0,4,greenverival,a,31,21,female,2021-02-21_22h11.45.560,exp11,2020.2.6,Win32,60,,,,,,,,,,,
,,,,,,,,,,,,,,a,0,0.76968,space,0.174965,0,94,94,50,1,9_dist_green/trial1.png,,,1,9,greenverival,p,31,21,female,2021-02-21_22h11.45.560,exp11,2020.2.6,Win32,60,,,,,,,,,,,
,,,,,,,,,,,,,,p,1,0.86334,space,0.318155,0,95,95,74,1,9_dist_green/trial25.png,,,1,9,greenverival,p,31,21,female,2021-02-21_22h11.45.560,exp11,2020.2.6,Win32,60,,,,,,,,,,,
,,,,,,,,,,,,,,p,1,0.683265,space,0.28765,0,96,96,64,1,9_dist_green/trial15.png,,,1,9,greenverival,p,31,21,female,2021-02-21_22h11.45.560,exp11,2020.2.6,Win32,60,,,,,,,,,,,
,,,,,,,,,,,,,,p,1,1.13276,space,0.26832,0,97,97,90,1,15_dist_green/trial16.png,,,1,15,greenverival,p,31,21,female,2021-02-21_22h11.45.560,exp11,2020.2.6,Win32,60,,,,,,,,,,,
,,,,,,,,,,,,,,p,1,0.65903,space,0.30254,0,98,98,73,1,9_dist_green/trial24.png,,,1,9,greenverival,p,31,21,female,2021-02-21_22h11.45.560,exp11,2020.2.6,Win32,60,,,,,,,,,,,
,,,,,,,,,,,,,,p,1,0.50946,space,0.385,0,99,99,11,1,0_dist_green/trial12.png,,,1,0,greenverival,p,31,21,female,2021-02-21_22h11.45.560,exp11,2020.2.6,Win32,60,,,,,,,,,,,
,,,,,,,,,,,,,,a,1,0.6452,space,0.316915,0,100,100,126,1,0_targ_4_dist_green/trial2.png,,,0,4,greenverival,a,31,21,female,2021-02-21_22h11.45.560,exp11,2020.2.6,Win32,60,,,,,,,,,,,
,,,,,,,,,,,,,,p,1,0.631695,space,0.287805,0,101,101,39,1,3_dist_green/trial15.png,,,1,3,greenverival,p,31,21,female,2021-02-21_22h11.45.560,exp11,2020.2.6,Win32,60,,,,,,,,,,,
,,,,,,,,,,,,,,p,1,0.938695,space,0.329375,0,102,102,54,1,9_dist_green/trial5.png,,,1,9,greenverival,p,31,21,female,2021-02-21_22h11.45.560,exp11,2020.2.6,Win32,60,,,,,,,,,,,
,,,,,,,,,,,,,,p,1,0.94546,space,0.30535,0,103,103,16,1,0_dist_green/trial17.png,,,1,0,greenverival,p,31,21,female,2021-02-21_22h11.45.560,exp11,2020.2.6,Win32,60,,,,,,,,,,,
,,,,,,,,,,,,,,a,0,0.703715,space,0.70605,0,104,104,82,1,15_dist_green/trial8.png,,,1,15,greenverival,p,31,21,female,2021-02-21_22h11.45.560,exp11,2020.2.6,Win32,60,,,,,,,,,,,
,,,,,,,,,,,,,,a,1,0.955225,space,0.43207,0,105,105,148,1,0_targ_4_dist_green/trial24.png,,,0,4,greenverival,a,31,21,female,2021-02-21_22h11.45.560,exp11,2020.2.6,Win32,60,,,,,,,,,,,
,,,,,,,,,,,,,,a,1,1.81948,space,0.289165,0,106,106,180,1,0_targ_16_dist_green/trial6.png,,,0,16,greenverival,a,31,21,female,2021-02-21_22h11.45.560,exp11,2020.2.6,Win32,60,,,,,,,,,,,
,,,,,,,,,,,,,,a,1,0.479095,space,0.350835,0,107,107,115,1,0_targ_1_dist_green/trial6.png,,,0,1,greenverival,a,31,21,female,2021-02-21_22h11.45.560,exp11,2020.2.6,Win32,60,,,,,,,,,,,
,,,,,,,,,,,,,,a,1,0.76721,space,0.35273,0,108,108,112,1,0_targ_1_dist_green/trial13.png,,,0,1,greenverival,a,31,21,female,2021-02-21_22h11.45.560,exp11,2020.2.6,Win32,60,,,,,,,,,,,
,,,,,,,,,,,,,,p,1,0.51671,space,0.31766,0,109,109,26,1,3_dist_green/trial2.png,,,1,3,greenverival,p,31,21,female,2021-02-21_22h11.45.560,exp11,2020.2.6,Win32,60,,,,,,,,,,,
,,,,,,,,,,,,,,a,1,0.542315,space,0.306215,0,110,110,131,1,0_targ_4_dist_green/trial7.png,,,0,4,greenverival,a,31,21,female,2021-02-21_22h11.45.560,exp11,2020.2.6,Win32,60,,,,,,,,,,,
,,,,,,,,,,,,,,p,1,0.549245,space,0.30142,0,111,111,72,1,9_dist_green/trial23.png,,,1,9,greenverival,p,31,21,female,2021-02-21_22h11.45.560,exp11,2020.2.6,Win32,60,,,,,,,,,,,
,,,,,,,,,,,,,,a,1,0.674455,space,0.387715,0,112,112,137,1,0_targ_4_dist_green/trial13.png,,,0,4,greenverival,a,31,21,female,2021-02-21_22h11.45.560,exp11,2020.2.6,Win32,60,,,,,,,,,,,
,,,,,,,,,,,,,,a,1,1.10518,space,0.263495,0,113,113,157,1,0_targ_10_dist_green/trial8.png,,,0,10,greenverival,a,31,21,female,2021-02-21_22h11.45.560,exp11,2020.2.6,Win32,60,,,,,,,,,,,
,,,,,,,,,,,,,,p,1,0.81083,space,0.28759,0,114,114,51,1,9_dist_green/trial2.png,,,1,9,greenverival,p,31,21,female,2021-02-21_22h11.45.560,exp11,2020.2.6,Win32,60,,,,,,,,,,,
,,,,,,,,,,,,,,p,1,0.62317,space,0.371345,0,115,115,29,1,3_dist_green/trial5.png,,,1,3,greenverival,p,31,21,female,2021-02-21_22h11.45.560,exp11,2020.2.6,Win32,60,,,,,,,,,,,
,,,,,,,,,,,,,,a,1,0.568715,space,0.40133,0,116,116,145,1,0_targ_4_dist_green/trial21.png,,,0,4,greenverival,a,31,21,female,2021-02-21_22h11.45.560,exp11,2020.2.6,Win32,60,,,,,,,,,,,
,,,,,,,,,,,,,,p,1,0.567945,space,0.345115,0,117,117,69,1,9_dist_green/trial20.png,,,1,9,greenverival,p,31,21,female,2021-02-21_22h11.45.560,exp11,2020.2.6,Win32,60,,,,,,,,,,,
,,,,,,,,,,,,,,p,1,0.70014,space,0.2277,0,118,118,28,1,3_dist_green/trial4.png,,,1,3,greenverival,p,31,21,female,2021-02-21_22h11.45.560,exp11,2020.2.6,Win32,60,,,,,,,,,,,
,,,,,,,,,,,,,,p,1,0.517175,space,0.210065,0,119,119,47,1,3_dist_green/trial23.png,,,1,3,greenverival,p,31,21,female,2021-02-21_22h11.45.560,exp11,2020.2.6,Win32,60,,,,,,,,,,,
,,,,,,,,,,,,,,a,1,0.627545,space,0.27769,0,120,120,134,1,0_targ_4_dist_green/trial10.png,,,0,4,greenverival,a,31,21,female,2021-02-21_22h11.45.560,exp11,2020.2.6,Win32,60,,,,,,,,,,,
,,,,,,,,,,,,,,p,1,0.586835,space,0.25998,0,121,121,86,1,15_dist_green/trial12.png,,,1,15,greenverival,p,31,21,female,2021-02-21_22h11.45.560,exp11,2020.2.6,Win32,60,,,,,,,,,,,
,,,,,,,,,,,,,,a,1,1.170525,space,0.29418,0,122,122,188,1,0_targ_16_dist_green/trial14.png,,,0,16,greenverival,a,31,21,female,2021-02-21_22h11.45.560,exp11,2020.2.6,Win32,60,,,,,,,,,,,
,,,,,,,,,,,,,,a,1,0.74804,space,0.31802,0,123,123,117,1,0_targ_1_dist_green/trial18.png,,,0,1,greenverival,a,31,21,female,2021-02-21_22h11.45.560,exp11,2020.2.6,Win32,60,,,,,,,,,,,
,,,,,,,,,,,,,,a,1,0.8645,space,0.294865,0,124,124,174,1,0_targ_10_dist_green/trial25.png,,,0,10,greenverival,a,31,21,female,2021-02-21_22h11.45.560,exp11,2020.2.6,Win32,60,,,,,,,,,,,
,,,,,,,,,,,,,,p,1,0.420925,space,0.311935,0,125,125,12,1,0_dist_green/trial13.png,,,1,0,greenverival,p,31,21,female,2021-02-21_22h11.45.560,exp11,2020.2.6,Win32,60,,,,,,,,,,,
,,,,,,,,,,,,,,p,1,0.706845,space,0.254835,0,126,126,68,1,9_dist_green/trial19.png,,,1,9,greenverival,p,31,21,female,2021-02-21_22h11.45.560,exp11,2020.2.6,Win32,60,,,,,,,,,,,
,,,,,,,,,,,,,,a,1,0.531,space,0.386595,0,127,127,163,1,0_targ_10_dist_green/trial14.png,,,0,10,greenverival,a,31,21,female,2021-02-21_22h11.45.560,exp11,2020.2.6,Win32,60,,,,,,,,,,,
,,,,,,,,,,,,,,a,1,0.611885,space,0.345555,0,128,128,102,1,0_targ_1_dist_green/trial3.png,,,0,1,greenverival,a,31,21,female,2021-02-21_22h11.45.560,exp11,2020.2.6,Win32,60,,,,,,,,,,,
,,,,,,,,,,,,,,a,1,0.628345,space,0.33935,0,129,129,116,1,0_targ_1_dist_green/trial17.png,,,0,1,greenverival,a,31,21,female,2021-02-21_22h11.45.560,exp11,2020.2.6,Win32,60,,,,,,,,,,,
,,,,,,,,,,,,,,p,1,1.021765,space,0.27342,0,130,130,84,1,15_dist_green/trial10.png,,,1,15,greenverival,p,31,21,female,2021-02-21_22h11.45.560,exp11,2020.2.6,Win32,60,,,,,,,,,,,
,,,,,,,,,,,,,,p,1,0.73111,space,0.29335,0,131,131,61,1,9_dist_green/trial12.png,,,1,9,greenverival,p,31,21,female,2021-02-21_22h11.45.560,exp11,2020.2.6,Win32,60,,,,,,,,,,,
,,,,,,,,,,,,,,a,1,0.559765,space,0.326065,0,132,132,138,1,0_targ_4_dist_green/trial14.png,,,0,4,greenverival,a,31,21,female,2021-02-21_22h11.45.560,exp11,2020.2.6,Win32,60,,,,,,,,,,,
,,,,,,,,,,,,,,a,1,0.8777,space,0.284855,0,133,133,171,1,0_targ_10_dist_green/trial22.png,,,0,10,greenverival,a,31,21,female,2021-02-21_22h11.45.560,exp11,2020.2.6,Win32,60,,,,,,,,,,,
,,,,,,,,,,,,,,a,1,1.38331,space,0.30536,0,134,134,185,1,0_targ_16_dist_green/trial11.png,,,0,16,greenverival,a,31,21,female,2021-02-21_22h11.45.560,exp11,2020.2.6,Win32,60,,,,,,,,,,,
,,,,,,,,,,,,,,p,1,0.42531,space,0.30104,0,135,135,19,1,0_dist_green/trial20.png,,,1,0,greenverival,p,31,21,female,2021-02-21_22h11.45.560,exp11,2020.2.6,Win32,60,,,,,,,,,,,
,,,,,,,,,,,,,,p,1,0.68765,space,0.268835,0,136,136,81,1,15_dist_green/trial7.png,,,1,15,greenverival,p,31,21,female,2021-02-21_22h11.45.560,exp11,2020.2.6,Win32,60,,,,,,,,,,,
,,,,,,,,,,,,,,p,1,0.381585,space,0.27097,0,137,137,7,1,0_dist_green/trial8.png,,,1,0,greenverival,p,31,21,female,2021-02-21_22h11.45.560,exp11,2020.2.6,Win32,60,,,,,,,,,,,
,,,,,,,,,,,,,,p,1,0.733055,space,0.20961,0,138,138,94,1,15_dist_green/trial20.png,,,1,15,greenverival,p,31,21,female,2021-02-21_22h11.45.560,exp11,2020.2.6,Win32,60,,,,,,,,,,,
,,,,,,,,,,,,,,a,1,0.473605,space,0.2244,0,139,139,127,1,0_targ_4_dist_green/trial3.png,,,0,4,greenverival,a,31,21,female,2021-02-21_22h11.45.560,exp11,2020.2.6,Win32,60,,,,,,,,,,,
,,,,,,,,,,,,,,p,1,0.62872,space,0.239275,0,140,140,65,1,9_dist_green/trial16.png,,,1,9,greenverival,p,31,21,female,2021-02-21_22h11.45.560,exp11,2020.2.6,Win32,60,,,,,,,,,,,
,,,,,,,,,,,,,,p,1,0.59901,space,0.243485,0,141,141,30,1,3_dist_green/trial6.png,,,1,3,greenverival,p,31,21,female,2021-02-21_22h11.45.560,exp11,2020.2.6,Win32,60,,,,,,,,,,,
,,,,,,,,,,,,,,p,1,0.59016,space,0.205225,0,142,142,31,1,3_dist_green/trial7.png,,,1,3,greenverival,p,31,21,female,2021-02-21_22h11.45.560,exp11,2020.2.6,Win32,60,,,,,,,,,,,
,,,,,,,,,,,,,,a,1,0.821505,space,0.323855,0,143,143,161,1,0_targ_10_dist_green/trial12.png,,,0,10,greenverival,a,31,21,female,2021-02-21_22h11.45.560,exp11,2020.2.6,Win32,60,,,,,,,,,,,
,,,,,,,,,,,,,,a,1,0.62827,space,0.258385,0,144,144,121,1,0_targ_1_dist_green/trial22.png,,,0,1,greenverival,a,31,21,female,2021-02-21_22h11.45.560,exp11,2020.2.6,Win32,60,,,,,,,,,,,
,,,,,,,,,,,,,,a,1,0.638025,space,0.73012,0,145,145,110,1,0_targ_1_dist_green/trial11.png,,,0,1,greenverival,a,31,21,female,2021-02-21_22h11.45.560,exp11,2020.2.6,Win32,60,,,,,,,,,,,
,,,,,,,,,,,,,,a,1,0.94259,space,0.36137,0,146,146,151,1,0_targ_10_dist_green/trial2.png,,,0,10,greenverival,a,31,21,female,2021-02-21_22h11.45.560,exp11,2020.2.6,Win32,60,,,,,,,,,,,
,,,,,,,,,,,,,,p,1,0.688155,space,0.368725,0,147,147,10,1,0_dist_green/trial11.png,,,1,0,greenverival,p,31,21,female,2021-02-21_22h11.45.560,exp11,2020.2.6,Win32,60,,,,,,,,,,,
,,,,,,,,,,,,,,a,1,0.852885,space,0.928555,0,148,148,178,1,0_targ_16_dist_green/trial4.png,,,0,16,greenverival,a,31,21,female,2021-02-21_22h11.45.560,exp11,2020.2.6,Win32,60,,,,,,,,,,,
,,,,,,,,,,,,,,a,1,1.168265,space,0.376915,0,149,149,191,1,0_targ_16_dist_green/trial17.png,,,0,16,greenverival,a,31,21,female,2021-02-21_22h11.45.560,exp11,2020.2.6,Win32,60,,,,,,,,,,,
,,,,,,,,,,,,,,a,1,1.071725,space,0.35377,0,150,150,193,1,0_targ_16_dist_green/trial19.png,,,0,16,greenverival,a,31,21,female,2021-02-21_22h11.45.560,exp11,2020.2.6,Win32,60,,,,,,,,,,,
,,,,,,,,,,,,,,p,1,0.46526,space,0.328045,0,151,151,56,1,9_dist_green/trial7.png,,,1,9,greenverival,p,31,21,female,2021-02-21_22h11.45.560,exp11,2020.2.6,Win32,60,,,,,,,,,,,
,,,,,,,,,,,,,,a,1,0.939225,space,0.32065,0,152,152,175,1,0_targ_16_dist_green/trial1.png,,,0,16,greenverival,a,31,21,female,2021-02-21_22h11.45.560,exp11,2020.2.6,Win32,60,,,,,,,,,,,
,,,,,,,,,,,,,,p,1,0.4627,space,0.319975,0,153,153,20,1,0_dist_green/trial21.png,,,1,0,greenverival,p,31,21,female,2021-02-21_22h11.45.560,exp11,2020.2.6,Win32,60,,,,,,,,,,,
,,,,,,,,,,,,,,a,0,0.546015,space,0.15305,0,154,154,4,1,0_dist_green/trial5.png,,,1,0,greenverival,p,31,21,female,2021-02-21_22h11.45.560,exp11,2020.2.6,Win32,60,,,,,,,,,,,
,,,,,,,,,,,,,,p,1,0.99107,space,0.29834,0,155,155,95,1,15_dist_green/trial21.png,,,1,15,greenverival,p,31,21,female,2021-02-21_22h11.45.560,exp11,2020.2.6,Win32,60,,,,,,,,,,,
,,,,,,,,,,,,,,p,1,0.407665,space,0.35433,0,156,156,17,1,0_dist_green/trial18.png,,,1,0,greenverival,p,31,21,female,2021-02-21_22h11.45.560,exp11,2020.2.6,Win32,60,,,,,,,,,,,
,,,,,,,,,,,,,,p,1,0.56985,space,0.268225,0,157,157,60,1,9_dist_green/trial11.png,,,1,9,greenverival,p,31,21,female,2021-02-21_22h11.45.560,exp11,2020.2.6,Win32,60,,,,,,,,,,,
,,,,,,,,,,,,,,p,1,0.665575,space,0.25388,0,158,158,42,1,3_dist_green/trial18.png,,,1,3,greenverival,p,31,21,female,2021-02-21_22h11.45.560,exp11,2020.2.6,Win32,60,,,,,,,,,,,
,,,,,,,,,,,,,,a,1,0.576935,space,0.30564,0,159,159,136,1,0_targ_4_dist_green/trial12.png,,,0,4,greenverival,a,31,21,female,2021-02-21_22h11.45.560,exp11,2020.2.6,Win32,60,,,,,,,,,,,
,,,,,,,,,,,,,,p,1,0.708225,space,0.41988,0,160,160,49,1,3_dist_green/trial25.png,,,1,3,greenverival,p,31,21,female,2021-02-21_22h11.45.560,exp11,2020.2.6,Win32,60,,,,,,,,,,,
,,,,,,,,,,,,,,a,0,0.775135,space,0.401595,0,161,161,9,1,0_dist_green/trial10.png,,,1,0,greenverival,p,31,21,female,2021-02-21_22h11.45.560,exp11,2020.2.6,Win32,60,,,,,,,,,,,
,,,,,,,,,,,,,,a,1,1.697125,space,0.312125,0,162,162,162,1,0_targ_10_dist_green/trial13.png,,,0,10,greenverival,a,31,21,female,2021-02-21_22h11.45.560,exp11,2020.2.6,Win32,60,,,,,,,,,,,
,,,,,,,,,,,,,,a,1,1.5837,space,0.360375,0,163,163,150,1,0_targ_10_dist_green/trial1.png,,,0,10,greenverival,a,31,21,female,2021-02-21_22h11.45.560,exp11,2020.2.6,Win32,60,,,,,,,,,,,
,,,,,,,,,,,,,,a,1,0.942305,space,0.325135,0,164,164,152,1,0_targ_10_dist_green/trial3.png,,,0,10,greenverival,a,31,21,female,2021-02-21_22h11.45.560,exp11,2020.2.6,Win32,60,,,,,,,,,,,
,,,,,,,,,,,,,,p,1,0.586415,space,0.30304,0,165,165,25,1,3_dist_green/trial1.png,,,1,3,greenverival,p,31,21,female,2021-02-21_22h11.45.560,exp11,2020.2.6,Win32,60,,,,,,,,,,,
,,,,,,,,,,,,,,p,1,0.53634,space,0.27767,0,166,166,35,1,3_dist_green/trial11.png,,,1,3,greenverival,p,31,21,female,2021-02-21_22h11.45.560,exp11,2020.2.6,Win32,60,,,,,,,,,,,
,,,,,,,,,,,,,,p,1,0.60268,space,0.286045,0,167,167,6,1,0_dist_green/trial7.png,,,1,0,greenverival,p,31,21,female,2021-02-21_22h11.45.560,exp11,2020.2.6,Win32,60,,,,,,,,,,,
,,,,,,,,,,,,,,p,1,0.480145,space,0.28484,0,168,168,2,1,0_dist_green/trial3.png,,,1,0,greenverival,p,31,21,female,2021-02-21_22h11.45.560,exp11,2020.2.6,Win32,60,,,,,,,,,,,
,,,,,,,,,,,,,,p,1,0.99102,space,0.224625,0,169,169,99,1,15_dist_green/trial25.png,,,1,15,greenverival,p,31,21,female,2021-02-21_22h11.45.560,exp11,2020.2.6,Win32,60,,,,,,,,,,,
,,,,,,,,,,,,,,p,1,0.53563,space,0.236605,0,170,170,67,1,9_dist_green/trial18.png,,,1,9,greenverival,p,31,21,female,2021-02-21_22h11.45.560,exp11,2020.2.6,Win32,60,,,,,,,,,,,
,,,,,,,,,,,,,,p,1,0.711245,space,0.195795,0,171,171,62,1,9_dist_green/trial13.png,,,1,9,greenverival,p,31,21,female,2021-02-21_22h11.45.560,exp11,2020.2.6,Win32,60,,,,,,,,,,,
,,,,,,,,,,,,,,p,1,0.39475,space,0.228905,0,172,172,15,1,0_dist_green/trial16.png,,,1,0,greenverival,p,31,21,female,2021-02-21_22h11.45.560,exp11,2020.2.6,Win32,60,,,,,,,,,,,
,,,,,,,,,,,,,,p,1,0.466215,space,0.17683,0,173,173,1,1,0_dist_green/trial2.png,,,1,0,greenverival,p,31,21,female,2021-02-21_22h11.45.560,exp11,2020.2.6,Win32,60,,,,,,,,,,,
,,,,,,,,,,,,,,a,1,0.74742,space,0.290375,0,174,174,176,1,0_targ_16_dist_green/trial2.png,,,0,16,greenverival,a,31,21,female,2021-02-21_22h11.45.560,exp11,2020.2.6,Win32,60,,,,,,,,,,,
,,,,,,,,,,,,,,p,1,0.673445,space,0.2728,0,175,175,71,1,9_dist_green/trial22.png,,,1,9,greenverival,p,31,21,female,2021-02-21_22h11.45.560,exp11,2020.2.6,Win32,60,,,,,,,,,,,
,,,,,,,,,,,,,,a,1,0.70667,space,0.353845,0,176,176,122,1,0_targ_1_dist_green/trial23.png,,,0,1,greenverival,a,31,21,female,2021-02-21_22h11.45.560,exp11,2020.2.6,Win32,60,,,,,,,,,,,
,,,,,,,,,,,,,,p,1,0.60531,space,0.279065,0,177,177,34,1,3_dist_green/trial10.png,,,1,3,greenverival,p,31,21,female,2021-02-21_22h11.45.560,exp11,2020.2.6,Win32,60,,,,,,,,,,,
,,,,,,,,,,,,,,p,1,0.52341,space,0.272285,0,178,178,93,1,15_dist_green/trial19.png,,,1,15,greenverival,p,31,21,female,2021-02-21_22h11.45.560,exp11,2020.2.6,Win32,60,,,,,,,,,,,
,,,,,,,,,,,,,,a,0,0.881685,space,0.612315,0,179,179,87,1,15_dist_green/trial13.png,,,1,15,greenverival,p,31,21,female,2021-02-21_22h11.45.560,exp11,2020.2.6,Win32,60,,,,,,,,,,,
,,,,,,,,,,,,,,a,1,1.539985,space,0.50793,0,180,180,196,1,0_targ_16_dist_green/trial22.png,,,0,16,greenverival,a,31,21,female,2021-02-21_22h11.45.560,exp11,2020.2.6,Win32,60,,,,,,,,,,,
,,,,,,,,,,,,,,a,1,0.459015,space,0.368925,0,181,181,106,1,0_targ_1_dist_green/trial7.png,,,0,1,greenverival,a,31,21,female,2021-02-21_22h11.45.560,exp11,2020.2.6,Win32,60,,,,,,,,,,,
,,,,,,,,,,,,,,p,1,0.623285,space,0.32278,0,182,182,98,1,15_dist_green/trial24.png,,,1,15,greenverival,p,31,21,female,2021-02-21_22h11.45.560,exp11,2020.2.6,Win32,60,,,,,,,,,,,
,,,,,,,,,,,,,,p,1,0.79378,space,0.35158,0,183,183,78,1,15_dist_green/trial4.png,,,1,15,greenverival,p,31,21,female,2021-02-21_22h11.45.560,exp11,2020.2.6,Win32,60,,,,,,,,,,,
,,,,,,,,,,,,,,a,1,0.672005,space,0.294305,0,184,184,124,1,0_targ_1_dist_green/trial25.png,,,0,1,greenverival,a,31,21,female,2021-02-21_22h11.45.560,exp11,2020.2.6,Win32,60,,,,,,,,,,,
,,,,,,,,,,,,,,a,1,1.07655,space,0.300965,0,185,185,184,1,0_targ_16_dist_green/trial10.png,,,0,16,greenverival,a,31,21,female,2021-02-21_22h11.45.560,exp11,2020.2.6,Win32,60,,,,,,,,,,,
,,,,,,,,,,,,,,a,1,0.661135,space,0.27913,0,186,186,144,1,0_targ_4_dist_green/trial20.png,,,0,4,greenverival,a,31,21,female,2021-02-21_22h11.45.560,exp11,2020.2.6,Win32,60,,,,,,,,,,,
,,,,,,,,,,,,,,p,1,0.580285,space,0.402295,0,187,187,91,1,15_dist_green/trial17.png,,,1,15,greenverival,p,31,21,female,2021-02-21_22h11.45.560,exp11,2020.2.6,Win32,60,,,,,,,,,,,
,,,,,,,,,,,,,,p,1,0.57031,space,0.251975,0,188,188,83,1,15_dist_green/trial9.png,,,1,15,greenverival,p,31,21,female,2021-02-21_22h11.45.560,exp11,2020.2.6,Win32,60,,,,,,,,,,,
,,,,,,,,,,,,,,a,1,0.5573,space,0.281725,0,189,189,118,1,0_targ_1_dist_green/trial19.png,,,0,1,greenverival,a,31,21,female,2021-02-21_22h11.45.560,exp11,2020.2.6,Win32,60,,,,,,,,,,,
,,,,,,,,,,,,,,a,1,0.953365,space,0.288605,0,190,190,166,1,0_targ_10_dist_green/trial17.png,,,0,10,greenverival,a,31,21,female,2021-02-21_22h11.45.560,exp11,2020.2.6,Win32,60,,,,,,,,,,,
,,,,,,,,,,,,,,a,1,1.55364,space,0.289465,0,191,191,177,1,0_targ_16_dist_green/trial3.png,,,0,16,greenverival,a,31,21,female,2021-02-21_22h11.45.560,exp11,2020.2.6,Win32,60,,,,,,,,,,,
,,,,,,,,,,,,,,p,1,0.64036,space,0.2516,0,192,192,58,1,9_dist_green/trial9.png,,,1,9,greenverival,p,31,21,female,2021-02-21_22h11.45.560,exp11,2020.2.6,Win32,60,,,,,,,,,,,
,,,,,,,,,,,,,,a,1,0.70632,space,0.3378,0,193,193,101,1,0_targ_1_dist_green/trial2.png,,,0,1,greenverival,a,31,21,female,2021-02-21_22h11.45.560,exp11,2020.2.6,Win32,60,,,,,,,,,,,
,,,,,,,,,,,,,,a,1,0.88565,space,0.284845,0,194,194,142,1,0_targ_4_dist_green/trial18.png,,,0,4,greenverival,a,31,21,female,2021-02-21_22h11.45.560,exp11,2020.2.6,Win32,60,,,,,,,,,,,
,,,,,,,,,,,,,,p,1,0.598315,space,0.291335,0,195,195,40,1,3_dist_green/trial16.png,,,1,3,greenverival,p,31,21,female,2021-02-21_22h11.45.560,exp11,2020.2.6,Win32,60,,,,,,,,,,,
,,,,,,,,,,,,,,p,1,0.61565,space,0.352655,0,196,196,88,1,15_dist_green/trial14.png,,,1,15,greenverival,p,31,21,female,2021-02-21_22h11.45.560,exp11,2020.2.6,Win32,60,,,,,,,,,,,
,,,,,,,,,,,,,,a,1,1.175435,space,0.361045,0,197,197,192,1,0_targ_16_dist_green/trial18.png,,,0,16,greenverival,a,31,21,female,2021-02-21_22h11.45.560,exp11,2020.2.6,Win32,60,,,,,,,,,,,
,,,,,,,,,,,,,,a,1,1.55463,space,0.33488,0,198,198,181,1,0_targ_16_dist_green/trial7.png,,,0,16,greenverival,a,31,21,female,2021-02-21_22h11.45.560,exp11,2020.2.6,Win32,60,,,,,,,,,,,
,,,,,,,,,,,,,,a,1,0.680725,space,0.317915,0,199,199,140,1,0_targ_4_dist_green/trial6.png,,,0,4,greenverival,a,31,21,female,2021-02-21_22h11.45.560,exp11,2020.2.6,Win32,60,,,,,,,,,,,
,,,,,,,,,,,,,,,,,,,,,,,,,,,,,,,31,21,female,2021-02-21_22h11.45.560,exp11,2020.2.6,Win32,60,0,0,0,0,1,conGreen.xlsx,green vertical,Look for green vertical bar (target) and indicate if it is present or absent in the array. If green vertical target is present press 'p' and if absent press 'a'. Press SPACE to start.,,,
,,,,,,,,,,space,7.88734,space,2.38591,p,1,0.866775,space,0.25154,0,0,0,66,1,9_dist_red/trial17.png,,,1,9,redHorizontal,p,31,21,female,2021-02-21_22h11.45.560,exp11,2020.2.6,Win32,60,,,,,,,,,,,
,,,,,,,,,,,,,,p,1,0.48897,space,0.26837,0,1,1,33,1,3_dist_red/trial9.png,,,1,3,redHorizontal,p,31,21,female,2021-02-21_22h11.45.560,exp11,2020.2.6,Win32,60,,,,,,,,,,,
,,,,,,,,,,,,,,a,1,0.65468,space,0.30588,0,2,2,134,1,0_targ_4_dist_red/trial10.png,,,0,4,redHorizontal,a,31,21,female,2021-02-21_22h11.45.560,exp11,2020.2.6,Win32,60,,,,,,,,,,,
,,,,,,,,,,,,,,a,1,0.814415,space,0.362945,0,3,3,118,1,0_targ_1_dist_red/trial19.png,,,0,1,redHorizontal,a,31,21,female,2021-02-21_22h11.45.560,exp11,2020.2.6,Win32,60,,,,,,,,,,,
,,,,,,,,,,,,,,p,1,1.0967,space,0.39604,0,4,4,96,1,15_dist_red/trial22.png,,,1,15,redHorizontal,p,31,21,female,2021-02-21_22h11.45.560,exp11,2020.2.6,Win32,60,,,,,,,,,,,
,,,,,,,,,,,,,,p,1,0.815365,space,0.24526,0,5,5,89,1,15_dist_red/trial15.png,,,1,15,redHorizontal,p,31,21,female,2021-02-21_22h11.45.560,exp11,2020.2.6,Win32,60,,,,,,,,,,,
,,,,,,,,,,,,,,p,1,1.044865,space,0.28432,0,6,6,26,1,3_dist_red/trial2.png,,,1,3,redHorizontal,p,31,21,female,2021-02-21_22h11.45.560,exp11,2020.2.6,Win32,60,,,,,,,,,,,
,,,,,,,,,,,,,,a,1,0.61306,space,0.261025,0,7,7,115,1,0_targ_1_dist_red/trial6.png,,,0,1,redHorizontal,a,31,21,female,2021-02-21_22h11.45.560,exp11,2020.2.6,Win32,60,,,,,,,,,,,
,,,,,,,,,,,,,,p,1,0.66919,space,0.336955,0,8,8,25,1,3_dist_red/trial1.png,,,1,3,redHorizontal,p,31,21,female,2021-02-21_22h11.45.560,exp11,2020.2.6,Win32,60,,,,,,,,,,,
,,,,,,,,,,,,,,p,1,1.048915,space,0.235105,0,9,9,97,1,15_dist_red/trial23.png,,,1,15,redHorizontal,p,31,21,female,2021-02-21_22h11.45.560,exp11,2020.2.6,Win32,60,,,,,,,,,,,
,,,,,,,,,,,,,,a,1,0.78337,space,0.292645,0,10,10,139,1,0_targ_4_dist_red/trial15.png,,,0,4,redHorizontal,a,31,21,female,2021-02-21_22h11.45.560,exp11,2020.2.6,Win32,60,,,,,,,,,,,
,,,,,,,,,,,,,,a,1,1.0035,space,0.308575,0,11,11,194,1,0_targ_16_dist_red/trial20.png,,,0,16,redHorizontal,a,31,21,female,2021-02-21_22h11.45.560,exp11,2020.2.6,Win32,60,,,,,,,,,,,
,,,,,,,,,,,,,,a,1,0.72801,space,0.25136,0,12,12,110,1,0_targ_1_dist_red/trial11.png,,,0,1,redHorizontal,a,31,21,female,2021-02-21_22h11.45.560,exp11,2020.2.6,Win32,60,,,,,,,,,,,
,,,,,,,,,,,,,,a,0,1.053335,space,0.12568,0,13,13,75,1,15_dist_red/trial1.png,,,1,15,redHorizontal,p,31,21,female,2021-02-21_22h11.45.560,exp11,2020.2.6,Win32,60,,,,,,,,,,,
,,,,,,,,,,,,,,p,1,1.12403,space,0.26432,0,14,14,69,1,9_dist_red/trial20.png,,,1,9,redHorizontal,p,31,21,female,2021-02-21_22h11.45.560,exp11,2020.2.6,Win32,60,,,,,,,,,,,
,,,,,,,,,,,,,,p,1,0.565845,space,0.25184,0,15,15,27,1,3_dist_red/trial3.png,,,1,3,redHorizontal,p,31,21,female,2021-02-21_22h11.45.560,exp11,2020.2.6,Win32,60,,,,,,,,,,,
,,,,,,,,,,,,,,p,1,0.793195,space,0.262345,0,16,16,76,1,15_dist_red/trial2.png,,,1,15,redHorizontal,p,31,21,female,2021-02-21_22h11.45.560,exp11,2020.2.6,Win32,60,,,,,,,,,,,
,,,,,,,,,,,,,,a,1,1.06613,space,0.317405,0,17,17,181,1,0_targ_16_dist_red/trial7.png,,,0,16,redHorizontal,a,31,21,female,2021-02-21_22h11.45.560,exp11,2020.2.6,Win32,60,,,,,,,,,,,
,,,,,,,,,,,,,,a,1,1.720855,space,0.402025,0,18,18,162,1,0_targ_10_dist_red/trial13.png,,,0,10,redHorizontal,a,31,21,female,2021-02-21_22h11.45.560,exp11,2020.2.6,Win32,60,,,,,,,,,,,
,,,,,,,,,,,,,,p,1,0.52243,space,0.29306,0,19,19,12,1,0_dist_red/trial13.png,,,1,0,redHorizontal,p,31,21,female,2021-02-21_22h11.45.560,exp11,2020.2.6,Win32,60,,,,,,,,,,,
,,,,,,,,,,,,,,p,1,0.66239,space,0.284745,0,20,20,49,1,3_dist_red/trial25.png,,,1,3,redHorizontal,p,31,21,female,2021-02-21_22h11.45.560,exp11,2020.2.6,Win32,60,,,,,,,,,,,
,,,,,,,,,,,,,,p,1,0.56372,space,0.237895,0,21,21,35,1,3_dist_red/trial11.png,,,1,3,redHorizontal,p,31,21,female,2021-02-21_22h11.45.560,exp11,2020.2.6,Win32,60,,,,,,,,,,,
,,,,,,,,,,,,,,a,1,0.950475,space,0.25585,0,22,22,184,1,0_targ_16_dist_red/trial10.png,,,0,16,redHorizontal,a,31,21,female,2021-02-21_22h11.45.560,exp11,2020.2.6,Win32,60,,,,,,,,,,,
,,,,,,,,,,,,,,a,1,0.8273,space,0.301805,0,23,23,125,1,0_targ_4_dist_red/trial1.png,,,0,4,redHorizontal,a,31,21,female,2021-02-21_22h11.45.560,exp11,2020.2.6,Win32,60,,,,,,,,,,,
,,,,,,,,,,,,,,p,1,0.54445,space,0.2591,0,24,24,1,1,0_dist_red/trial2.png,,,1,0,redHorizontal,p,31,21,female,2021-02-21_22h11.45.560,exp11,2020.2.6,Win32,60,,,,,,,,,,,
,,,,,,,,,,,,,,p,1,0.610205,space,0.245645,0,25,25,83,1,15_dist_red/trial9.png,,,1,15,redHorizontal,p,31,21,female,2021-02-21_22h11.45.560,exp11,2020.2.6,Win32,60,,,,,,,,,,,
,,,,,,,,,,,,,,a,1,1.180615,space,0.45187,0,26,26,192,1,0_targ_16_dist_red/trial18.png,,,0,16,redHorizontal,a,31,21,female,2021-02-21_22h11.45.560,exp11,2020.2.6,Win32,60,,,,,,,,,,,
,,,,,,,,,,,,,,a,1,0.96775,space,0.28475,0,27,27,198,1,0_targ_16_dist_red/trial24.png,,,0,16,redHorizontal,a,31,21,female,2021-02-21_22h11.45.560,exp11,2020.2.6,Win32,60,,,,,,,,,,,
,,,,,,,,,,,,,,p,1,0.456495,space,0.23485,0,28,28,28,1,3_dist_red/trial4.png,,,1,3,redHorizontal,p,31,21,female,2021-02-21_22h11.45.560,exp11,2020.2.6,Win32,60,,,,,,,,,,,
,,,,,,,,,,,,,,a,1,0.861225,space,0.321905,0,29,29,180,1,0_targ_16_dist_red/trial6.png,,,0,16,redHorizontal,a,31,21,female,2021-02-21_22h11.45.560,exp11,2020.2.6,Win32,60,,,,,,,,,,,
,,,,,,,,,,,,,,p,1,0.74974,space,0.318145,0,30,30,53,1,9_dist_red/trial4.png,,,1,9,redHorizontal,p,31,21,female,2021-02-21_22h11.45.560,exp11,2020.2.6,Win32,60,,,,,,,,,,,
,,,,,,,,,,,,,,a,1,0.59133,space,0.287655,0,31,31,145,1,0_targ_4_dist_red/trial21.png,,,0,4,redHorizontal,a,31,21,female,2021-02-21_22h11.45.560,exp11,2020.2.6,Win32,60,,,,,,,,,,,
,,,,,,,,,,,,,,p,1,0.54972,space,0.16397,0,32,32,81,1,15_dist_red/trial7.png,,,1,15,redHorizontal,p,31,21,female,2021-02-21_22h11.45.560,exp11,2020.2.6,Win32,60,,,,,,,,,,,
,,,,,,,,,,,,,,p,1,0.54916,space,0.1886,0,33,33,20,1,0_dist_red/trial21.png,,,1,0,redHorizontal,p,31,21,female,2021-02-21_22h11.45.560,exp11,2020.2.6,Win32,60,,,,,,,,,,,
,,,,,,,,,,,,,,a,0,0.6192,space,1.02279,0,34,34,63,1,9_dist_red/trial14.png,,,1,9,redHorizontal,p,31,21,female,2021-02-21_22h11.45.560,exp11,2020.2.6,Win32,60,,,,,,,,,,,
,,,,,,,,,,,,,,a,1,0.803785,space,0.308515,0,35,35,102,1,0_targ_1_dist_red/trial3.png,,,0,1,redHorizontal,a,31,21,female,2021-02-21_22h11.45.560,exp11,2020.2.6,Win32,60,,,,,,,,,,,
,,,,,,,,,,,,,,p,1,0.61885,space,0.317985,0,36,36,41,1,3_dist_red/trial17.png,,,1,3,redHorizontal,p,31,21,female,2021-02-21_22h11.45.560,exp11,2020.2.6,Win32,60,,,,,,,,,,,
,,,,,,,,,,,,,,a,1,0.946815,space,0.33863,0,37,37,151,1,0_targ_10_dist_red/trial2.png,,,0,10,redHorizontal,a,31,21,female,2021-02-21_22h11.45.560,exp11,2020.2.6,Win32,60,,,,,,,,,,,
,,,,,,,,,,,,,,p,1,0.679035,space,0.342535,0,38,38,42,1,3_dist_red/trial18.png,,,1,3,redHorizontal,p,31,21,female,2021-02-21_22h11.45.560,exp11,2020.2.6,Win32,60,,,,,,,,,,,
,,,,,,,,,,,,,,p,1,0.69156,space,0.36562,0,39,39,48,1,3_dist_red/trial24.png,,,1,3,redHorizontal,p,31,21,female,2021-02-21_22h11.45.560,exp11,2020.2.6,Win32,60,,,,,,,,,,,
,,,,,,,,,,,,,,p,1,0.54024,space,0.33334,0,40,40,31,1,3_dist_red/trial7.png,,,1,3,redHorizontal,p,31,21,female,2021-02-21_22h11.45.560,exp11,2020.2.6,Win32,60,,,,,,,,,,,
,,,,,,,,,,,,,,p,1,0.79947,space,0.27123,0,41,41,77,1,15_dist_red/trial3.png,,,1,15,redHorizontal,p,31,21,female,2021-02-21_22h11.45.560,exp11,2020.2.6,Win32,60,,,,,,,,,,,
,,,,,,,,,,,,,,p,1,0.427455,space,0.339265,0,42,42,2,1,0_dist_red/trial3.png,,,1,0,redHorizontal,p,31,21,female,2021-02-21_22h11.45.560,exp11,2020.2.6,Win32,60,,,,,,,,,,,
,,,,,,,,,,,,,,a,1,0.57334,space,0.3572,0,43,43,175,1,0_targ_16_dist_red/trial1.png,,,0,16,redHorizontal,a,31,21,female,2021-02-21_22h11.45.560,exp11,2020.2.6,Win32,60,,,,,,,,,,,
,,,,,,,,,,,,,,p,1,0.54874,space,0.301315,0,44,44,21,1,0_dist_red/trial22.png,,,1,0,redHorizontal,p,31,21,female,2021-02-21_22h11.45.560,exp11,2020.2.6,Win32,60,,,,,,,,,,,
,,,,,,,,,,,,,,a,1,0.7451,space,0.320675,0,45,45,147,1,0_targ_4_dist_red/trial23.png,,,0,4,redHorizontal,a,31,21,female,2021-02-21_22h11.45.560,exp11,2020.2.6,Win32,60,,,,,,,,,,,
,,,,,,,,,,,,,,a,1,0.972675,space,0.37555,0,46,46,174,1,0_targ_10_dist_red/trial25.png,,,0,10,redHorizontal,a,31,21,female,2021-02-21_22h11.45.560,exp11,2020.2.6,Win32,60,,,,,,,,,,,
,,,,,,,,,,,,,,a,1,0.58638,space,0.309945,0,47,47,130,1,0_targ_4_dist_red/trial6.png,,,0,4,redHorizontal,a,31,21,female,2021-02-21_22h11.45.560,exp11,2020.2.6,Win32,60,,,,,,,,,,,
,,,,,,,,,,,,,,a,1,0.889835,space,0.321775,0,48,48,165,1,0_targ_10_dist_red/trial16.png,,,0,10,redHorizontal,a,31,21,female,2021-02-21_22h11.45.560,exp11,2020.2.6,Win32,60,,,,,,,,,,,
,,,,,,,,,,,,,,p,1,0.697675,space,0.343485,0,49,49,40,1,3_dist_red/trial16.png,,,1,3,redHorizontal,p,31,21,female,2021-02-21_22h11.45.560,exp11,2020.2.6,Win32,60,,,,,,,,,,,
,,,,,,,,,,,,,,p,1,0.655475,space,0.30733,0,50,50,85,1,15_dist_red/trial11.png,,,1,15,redHorizontal,p,31,21,female,2021-02-21_22h11.45.560,exp11,2020.2.6,Win32,60,,,,,,,,,,,
,,,,,,,,,,,,,,p,1,0.373585,space,0.3498,0,51,51,61,1,9_dist_red/trial12.png,,,1,9,redHorizontal,p,31,21,female,2021-02-21_22h11.45.560,exp11,2020.2.6,Win32,60,,,,,,,,,,,
,,,,,,,,,,,,,,p,1,0.41712,space,0.3191,0,52,52,47,1,3_dist_red/trial23.png,,,1,3,redHorizontal,p,31,21,female,2021-02-21_22h11.45.560,exp11,2020.2.6,Win32,60,,,,,,,,,,,
,,,,,,,,,,,,,,p,1,0.387685,space,0.905555,0,53,53,88,1,15_dist_red/trial14.png,,,1,15,redHorizontal,p,31,21,female,2021-02-21_22h11.45.560,exp11,2020.2.6,Win32,60,,,,,,,,,,,
,,,,,,,,,,,,,,a,1,0.720225,space,0.35622,0,54,54,156,1,0_targ_10_dist_red/trial7.png,,,0,10,redHorizontal,a,31,21,female,2021-02-21_22h11.45.560,exp11,2020.2.6,Win32,60,,,,,,,,,,,
,,,,,,,,,,,,,,a,1,0.924325,space,0.30574,0,55,55,141,1,0_targ_4_dist_red/trial17.png,,,0,4,redHorizontal,a,31,21,female,2021-02-21_22h11.45.560,exp11,2020.2.6,Win32,60,,,,,,,,,,,
,,,,,,,,,,,,,,p,1,1.065515,space,0.240535,0,56,56,64,1,9_dist_red/trial15.png,,,1,9,redHorizontal,p,31,21,female,2021-02-21_22h11.45.560,exp11,2020.2.6,Win32,60,,,,,,,,,,,
,,,,,,,,,,,,,,a,1,0.909705,space,0.302255,0,57,57,178,1,0_targ_16_dist_red/trial4.png,,,0,16,redHorizontal,a,31,21,female,2021-02-21_22h11.45.560,exp11,2020.2.6,Win32,60,,,,,,,,,,,
,,,,,,,,,,,,,,a,1,0.742025,space,0.50253,0,58,58,176,1,0_targ_16_dist_red/trial2.png,,,0,16,redHorizontal,a,31,21,female,2021-02-21_22h11.45.560,exp11,2020.2.6,Win32,60,,,,,,,,,,,
,,,,,,,,,,,,,,p,1,0.59149,space,0.302055,0,59,59,91,1,15_dist_red/trial17.png,,,1,15,redHorizontal,p,31,21,female,2021-02-21_22h11.45.560,exp11,2020.2.6,Win32,60,,,,,,,,,,,
,,,,,,,,,,,,,,a,1,0.913115,space,0.38343,0,60,60,148,1,0_targ_4_dist_red/trial24.png,,,0,4,redHorizontal,a,31,21,female,2021-02-21_22h11.45.560,exp11,2020.2.6,Win32,60,,,,,,,,,,,
,,,,,,,,,,,,,,a,1,0.631495,space,0.24343,0,61,61,116,1,0_targ_1_dist_red/trial17.png,,,0,1,redHorizontal,a,31,21,female,2021-02-21_22h11.45.560,exp11,2020.2.6,Win32,60,,,,,,,,,,,
,,,,,,,,,,,,,,a,1,1.05333,space,0.31175,0,62,62,190,1,0_targ_16_dist_red/trial16.png,,,0,16,redHorizontal,a,31,21,female,2021-02-21_22h11.45.560,exp11,2020.2.6,Win32,60,,,,,,,,,,,
,,,,,,,,,,,,,,a,1,0.92701,space,0.30102,0,63,63,152,1,0_targ_10_dist_red/trial3.png,,,0,10,redHorizontal,a,31,21,female,2021-02-21_22h11.45.560,exp11,2020.2.6,Win32,60,,,,,,,,,,,
,,,,,,,,,,,,,,a,1,0.687945,space,0.301425,0,64,64,172,1,0_targ_10_dist_red/trial23.png,,,0,10,redHorizontal,a,31,21,female,2021-02-21_22h11.45.560,exp11,2020.2.6,Win32,60,,,,,,,,,,,
,,,,,,,,,,,,,,a,1,0.68295,space,0.362225,0,65,65,149,1,0_targ_4_dist_red/trial25.png,,,0,4,redHorizontal,a,31,21,female,2021-02-21_22h11.45.560,exp11,2020.2.6,Win32,60,,,,,,,,,,,
,,,,,,,,,,,,,,a,1,0.74116,space,0.31261,0,66,66,158,1,0_targ_10_dist_red/trial9.png,,,0,10,redHorizontal,a,31,21,female,2021-02-21_22h11.45.560,exp11,2020.2.6,Win32,60,,,,,,,,,,,
,,,,,,,,,,,,,,a,0,0.52146,space,0.235,0,67,67,44,1,3_dist_red/trial20.png,,,1,3,redHorizontal,p,31,21,female,2021-02-21_22h11.45.560,exp11,2020.2.6,Win32,60,,,,,,,,,,,
,,,,,,,,,,,,,,a,1,0.80802,space,0.28566,0,68,68,153,1,0_targ_10_dist_red/trial4.png,,,0,10,redHorizontal,a,31,21,female,2021-02-21_22h11.45.560,exp11,2020.2.6,Win32,60,,,,,,,,,,,
,,,,,,,,,,,,,,p,1,0.666125,space,0.459605,0,69,69,39,1,3_dist_red/trial15.png,,,1,3,redHorizontal,p,31,21,female,2021-02-21_22h11.45.560,exp11,2020.2.6,Win32,60,,,,,,,,,,,
,,,,,,,,,,,,,,a,1,0.747505,space,0.360375,0,70,70,144,1,0_targ_4_dist_red/trial20.png,,,0,4,redHorizontal,a,31,21,female,2021-02-21_22h11.45.560,exp11,2020.2.6,Win32,60,,,,,,,,,,,
,,,,,,,,,,,,,,p,1,0.743065,space,0.276765,0,71,71,30,1,3_dist_red/trial6.png,,,1,3,redHorizontal,p,31,21,female,2021-02-21_22h11.45.560,exp11,2020.2.6,Win32,60,,,,,,,,,,,
,,,,,,,,,,,,,,p,1,0.495205,space,0.2692,0,72,72,4,1,0_dist_red/trial5.png,,,1,0,redHorizontal,p,31,21,female,2021-02-21_22h11.45.560,exp11,2020.2.6,Win32,60,,,,,,,,,,,
,,,,,,,,,,,,,,p,1,0.736435,space,0.318785,0,73,73,54,1,9_dist_red/trial5.png,,,1,9,redHorizontal,p,31,21,female,2021-02-21_22h11.45.560,exp11,2020.2.6,Win32,60,,,,,,,,,,,
,,,,,,,,,,,,,,p,1,0.509455,space,0.308635,0,74,74,14,1,0_dist_red/trial15.png,,,1,0,redHorizontal,p,31,21,female,2021-02-21_22h11.45.560,exp11,2020.2.6,Win32,60,,,,,,,,,,,
,,,,,,,,,,,,,,p,1,0.638015,space,0.266725,0,75,75,32,1,3_dist_red/trial8.png,,,1,3,redHorizontal,p,31,21,female,2021-02-21_22h11.45.560,exp11,2020.2.6,Win32,60,,,,,,,,,,,
,,,,,,,,,,,,,,a,1,0.61087,space,0.307705,0,76,76,111,1,0_targ_1_dist_red/trial12.png,,,0,1,redHorizontal,a,31,21,female,2021-02-21_22h11.45.560,exp11,2020.2.6,Win32,60,,,,,,,,,,,
,,,,,,,,,,,,,,a,1,0.582045,space,0.337015,0,77,77,103,1,0_targ_1_dist_red/trial4.png,,,0,1,redHorizontal,a,31,21,female,2021-02-21_22h11.45.560,exp11,2020.2.6,Win32,60,,,,,,,,,,,
,,,,,,,,,,,,,,p,1,0.611945,space,0.28495,0,78,78,3,1,0_dist_red/trial4.png,,,1,0,redHorizontal,p,31,21,female,2021-02-21_22h11.45.560,exp11,2020.2.6,Win32,60,,,,,,,,,,,
,,,,,,,,,,,,,,p,1,0.534325,space,0.304975,0,79,79,52,1,9_dist_red/trial3.png,,,1,9,redHorizontal,p,31,21,female,2021-02-21_22h11.45.560,exp11,2020.2.6,Win32,60,,,,,,,,,,,
,,,,,,,,,,,,,,p,1,0.474765,space,0.351955,0,80,80,8,1,0_dist_red/trial9.png,,,1,0,redHorizontal,p,31,21,female,2021-02-21_22h11.45.560,exp11,2020.2.6,Win32,60,,,,,,,,,,,
,,,,,,,,,,,,,,p,1,0.41754,space,0.36303,0,81,81,7,1,0_dist_red/trial8.png,,,1,0,redHorizontal,p,31,21,female,2021-02-21_22h11.45.560,exp11,2020.2.6,Win32,60,,,,,,,,,,,
,,,,,,,,,,,,,,a,1,0.685735,space,0.343125,0,82,82,173,1,0_targ_10_dist_red/trial24.png,,,0,10,redHorizontal,a,31,21,female,2021-02-21_22h11.45.560,exp11,2020.2.6,Win32,60,,,,,,,,,,,
,,,,,,,,,,,,,,a,1,0.88109,space,0.334285,0,83,83,160,1,0_targ_10_dist_red/trial11.png,,,0,10,redHorizontal,a,31,21,female,2021-02-21_22h11.45.560,exp11,2020.2.6,Win32,60,,,,,,,,,,,
,,,,,,,,,,,,,,a,1,1.00929,space,0.318905,0,84,84,177,1,0_targ_16_dist_red/trial3.png,,,0,16,redHorizontal,a,31,21,female,2021-02-21_22h11.45.560,exp11,2020.2.6,Win32,60,,,,,,,,,,,
,,,,,,,,,,,,,,a,1,1.178255,space,0.37572,0,85,85,113,1,0_targ_1_dist_red/trial14.png,,,0,1,redHorizontal,a,31,21,female,2021-02-21_22h11.45.560,exp11,2020.2.6,Win32,60,,,,,,,,,,,
,,,,,,,,,,,,,,p,1,2.44604,space,0.33516,0,86,86,90,1,15_dist_red/trial16.png,,,1,15,redHorizontal,p,31,21,female,2021-02-21_22h11.45.560,exp11,2020.2.6,Win32,60,,,,,,,,,,,
,,,,,,,,,,,,,,a,1,0.59065,space,0.302145,0,87,87,100,1,0_targ_1_dist_red/trial1.png,,,0,1,redHorizontal,a,31,21,female,2021-02-21_22h11.45.560,exp11,2020.2.6,Win32,60,,,,,,,,,,,
,,,,,,,,,,,,,,a,1,0.70806,space,0.288555,0,88,88,131,1,0_targ_4_dist_red/trial7.png,,,0,4,redHorizontal,a,31,21,female,2021-02-21_22h11.45.560,exp11,2020.2.6,Win32,60,,,,,,,,,,,
,,,,,,,,,,,,,,p,1,0.68948,space,0.268275,0,89,89,93,1,15_dist_red/trial19.png,,,1,15,redHorizontal,p,31,21,female,2021-02-21_22h11.45.560,exp11,2020.2.6,Win32,60,,,,,,,,,,,
,,,,,,,,,,,,,,p,1,0.79894,space,0.322625,0,90,90,59,1,9_dist_red/trial10.png,,,1,9,redHorizontal,p,31,21,female,2021-02-21_22h11.45.560,exp11,2020.2.6,Win32,60,,,,,,,,,,,
,,,,,,,,,,,,,,a,1,1.10982,space,0.37099,0,91,91,195,1,0_targ_16_dist_red/trial21.png,,,0,16,redHorizontal,a,31,21,female,2021-02-21_22h11.45.560,exp11,2020.2.6,Win32,60,,,,,,,,,,,
,,,,,,,,,,,,,,a,1,0.752305,space,0.318515,0,92,92,122,1,0_targ_1_dist_red/trial23.png,,,0,1,redHorizontal,a,31,21,female,2021-02-21_22h11.45.560,exp11,2020.2.6,Win32,60,,,,,,,,,,,
,,,,,,,,,,,,,,a,1,1.78804,space,0.352645,0,93,93,183,1,0_targ_16_dist_red/trial9.png,,,0,16,redHorizontal,a,31,21,female,2021-02-21_22h11.45.560,exp11,2020.2.6,Win32,60,,,,,,,,,,,
,,,,,,,,,,,,,,a,1,0.958435,space,0.31828,0,94,94,170,1,0_targ_10_dist_red/trial21.png,,,0,10,redHorizontal,a,31,21,female,2021-02-21_22h11.45.560,exp11,2020.2.6,Win32,60,,,,,,,,,,,
,,,,,,,,,,,,,,p,1,0.505445,space,0.29117,0,95,95,17,1,0_dist_red/trial18.png,,,1,0,redHorizontal,p,31,21,female,2021-02-21_22h11.45.560,exp11,2020.2.6,Win32,60,,,,,,,,,,,
,,,,,,,,,,,,,,a,1,0.698095,space,0.31408,0,96,96,109,1,0_targ_1_dist_red/trial10.png,,,0,1,redHorizontal,a,31,21,female,2021-02-21_22h11.45.560,exp11,2020.2.6,Win32,60,,,,,,,,,,,
,,,,,,,,,,,,,,a,1,0.82229,space,0.309885,0,97,97,166,1,0_targ_10_dist_red/trial17.png,,,0,10,redHorizontal,a,31,21,female,2021-02-21_22h11.45.560,exp11,2020.2.6,Win32,60,,,,,,,,,,,
,,,,,,,,,,,,,,a,1,0.914585,space,0.279915,0,98,98,157,1,0_targ_10_dist_red/trial8.png,,,0,10,redHorizontal,a,31,21,female,2021-02-21_22h11.45.560,exp11,2020.2.6,Win32,60,,,,,,,,,,,
,,,,,,,,,,,,,,a,1,0.581915,space,0.35322,0,99,99,168,1,0_targ_10_dist_red/trial19.png,,,0,10,redHorizontal,a,31,21,female,2021-02-21_22h11.45.560,exp11,2020.2.6,Win32,60,,,,,,,,,,,
,,,,,,,,,,,,,,a,1,0.69773,space,0.35034,0,100,100,104,1,0_targ_1_dist_red/trial5.png,,,0,1,redHorizontal,a,31,21,female,2021-02-21_22h11.45.560,exp11,2020.2.6,Win32,60,,,,,,,,,,,
,,,,,,,,,,,,,,a,0,0.80135,space,0.534885,0,101,101,70,1,9_dist_red/trial21.png,,,1,9,redHorizontal,p,31,21,female,2021-02-21_22h11.45.560,exp11,2020.2.6,Win32,60,,,,,,,,,,,
,,,,,,,,,,,,,,a,1,1.273545,space,0.30242,0,102,102,155,1,0_targ_10_dist_red/trial6.png,,,0,10,redHorizontal,a,31,21,female,2021-02-21_22h11.45.560,exp11,2020.2.6,Win32,60,,,,,,,,,,,
,,,,,,,,,,,,,,p,1,0.673695,space,0.255575,0,103,103,51,1,9_dist_red/trial2.png,,,1,9,redHorizontal,p,31,21,female,2021-02-21_22h11.45.560,exp11,2020.2.6,Win32,60,,,,,,,,,,,
,,,,,,,,,,,,,,a,1,0.612375,space,0.319385,0,104,104,199,1,0_targ_16_dist_red/trial25.png,,,0,16,redHorizontal,a,31,21,female,2021-02-21_22h11.45.560,exp11,2020.2.6,Win32,60,,,,,,,,,,,
,,,,,,,,,,,,,,a,1,0.59489,space,0.30191,0,105,105,112,1,0_targ_1_dist_red/trial13.png,,,0,1,redHorizontal,a,31,21,female,2021-02-21_22h11.45.560,exp11,2020.2.6,Win32,60,,,,,,,,,,,
,,,,,,,,,,,,,,p,1,0.50983,space,0.24378,0,106,106,86,1,15_dist_red/trial12.png,,,1,15,redHorizontal,p,31,21,female,2021-02-21_22h11.45.560,exp11,2020.2.6,Win32,60,,,,,,,,,,,
,,,,,,,,,,,,,,a,1,0.764195,space,0.267995,0,107,107,128,1,0_targ_4_dist_red/trial4.png,,,0,4,redHorizontal,a,31,21,female,2021-02-21_22h11.45.560,exp11,2020.2.6,Win32,60,,,,,,,,,,,
,,,,,,,,,,,,,,a,1,0.830975,space,0.320455,0,108,108,197,1,0_targ_16_dist_red/trial23.png,,,0,16,redHorizontal,a,31,21,female,2021-02-21_22h11.45.560,exp11,2020.2.6,Win32,60,,,,,,,,,,,
,,,,,,,,,,,,,,a,0,0.57634,space,0.343415,0,109,109,94,1,15_dist_red/trial20.png,,,1,15,redHorizontal,p,31,21,female,2021-02-21_22h11.45.560,exp11,2020.2.6,Win32,60,,,,,,,,,,,
,,,,,,,,,,,,,,p,1,0.688375,space,0.22929,0,110,110,68,1,9_dist_red/trial19.png,,,1,9,redHorizontal,p,31,21,female,2021-02-21_22h11.45.560,exp11,2020.2.6,Win32,60,,,,,,,,,,,
,,,,,,,,,,,,,,a,1,0.599045,space,0.27199,0,111,111,127,1,0_targ_4_dist_red/trial3.png,,,0,4,redHorizontal,a,31,21,female,2021-02-21_22h11.45.560,exp11,2020.2.6,Win32,60,,,,,,,,,,,
,,,,,,,,,,,,,,a,1,0.92921,space,0.81807,0,112,112,186,1,0_targ_16_dist_red/trial12.png,,,0,16,redHorizontal,a,31,21,female,2021-02-21_22h11.45.560,exp11,2020.2.6,Win32,60,,,,,,,,,,,
,,,,,,,,,,,,,,a,1,1.20709,space,0.29536,0,113,113,182,1,0_targ_16_dist_red/trial8.png,,,0,16,redHorizontal,a,31,21,female,2021-02-21_22h11.45.560,exp11,2020.2.6,Win32,60,,,,,,,,,,,
,,,,,,,,,,,,,,p,1,0.605415,space,0.3416,0,114,114,29,1,3_dist_red/trial5.png,,,1,3,redHorizontal,p,31,21,female,2021-02-21_22h11.45.560,exp11,2020.2.6,Win32,60,,,,,,,,,,,
,,,,,,,,,,,,,,a,1,0.49864,space,0.32033,0,115,115,140,1,0_targ_4_dist_red/trial6.png,,,0,4,redHorizontal,a,31,21,female,2021-02-21_22h11.45.560,exp11,2020.2.6,Win32,60,,,,,,,,,,,
,,,,,,,,,,,,,,a,1,0.59895,space,0.26831,0,116,116,101,1,0_targ_1_dist_red/trial2.png,,,0,1,redHorizontal,a,31,21,female,2021-02-21_22h11.45.560,exp11,2020.2.6,Win32,60,,,,,,,,,,,
,,,,,,,,,,,,,,p,1,0.342545,space,0.247565,0,117,117,15,1,0_dist_red/trial16.png,,,1,0,redHorizontal,p,31,21,female,2021-02-21_22h11.45.560,exp11,2020.2.6,Win32,60,,,,,,,,,,,
,,,,,,,,,,,,,,p,1,0.54278,space,0.25028,0,118,118,82,1,15_dist_red/trial8.png,,,1,15,redHorizontal,p,31,21,female,2021-02-21_22h11.45.560,exp11,2020.2.6,Win32,60,,,,,,,,,,,
,,,,,,,,,,,,,,a,1,0.689135,space,0.47057,0,119,119,124,1,0_targ_1_dist_red/trial25.png,,,0,1,redHorizontal,a,31,21,female,2021-02-21_22h11.45.560,exp11,2020.2.6,Win32,60,,,,,,,,,,,
,,,,,,,,,,,,,,p,1,0.654395,space,0.359175,0,120,120,87,1,15_dist_red/trial13.png,,,1,15,redHorizontal,p,31,21,female,2021-02-21_22h11.45.560,exp11,2020.2.6,Win32,60,,,,,,,,,,,
,,,,,,,,,,,,,,a,1,0.513975,space,0.3058,0,121,121,114,1,0_targ_1_dist_red/trial15.png,,,0,1,redHorizontal,a,31,21,female,2021-02-21_22h11.45.560,exp11,2020.2.6,Win32,60,,,,,,,,,,,
,,,,,,,,,,,,,,p,1,0.515255,space,0.26079,0,122,122,73,1,9_dist_red/trial24.png,,,1,9,redHorizontal,p,31,21,female,2021-02-21_22h11.45.560,exp11,2020.2.6,Win32,60,,,,,,,,,,,
,,,,,,,,,,,,,,a,1,0.854015,space,0.310815,0,123,123,193,1,0_targ_16_dist_red/trial19.png,,,0,16,redHorizontal,a,31,21,female,2021-02-21_22h11.45.560,exp11,2020.2.6,Win32,60,,,,,,,,,,,
,,,,,,,,,,,,,,a,1,0.51533,space,0.28928,0,124,124,121,1,0_targ_1_dist_red/trial22.png,,,0,1,redHorizontal,a,31,21,female,2021-02-21_22h11.45.560,exp11,2020.2.6,Win32,60,,,,,,,,,,,
,,,,,,,,,,,,,,a,1,0.617485,space,0.253795,0,125,125,133,1,0_targ_4_dist_red/trial9.png,,,0,4,redHorizontal,a,31,21,female,2021-02-21_22h11.45.560,exp11,2020.2.6,Win32,60,,,,,,,,,,,
,,,,,,,,,,,,,,p,1,0.395835,space,0.2848,0,126,126,24,1,0_dist_red/trial25.png,,,1,0,redHorizontal,p,31,21,female,2021-02-21_22h11.45.560,exp11,2020.2.6,Win32,60,,,,,,,,,,,
,,,,,,,,,,,,,,a,1,0.536475,space,0.335185,0,127,127,117,1,0_targ_1_dist_red/trial18.png,,,0,1,redHorizontal,a,31,21,female,2021-02-21_22h11.45.560,exp11,2020.2.6,Win32,60,,,,,,,,,,,
,,,,,,,,,,,,,,p,1,0.55064,space,0.301615,0,128,128,23,1,0_dist_red/trial24.png,,,1,0,redHorizontal,p,31,21,female,2021-02-21_22h11.45.560,exp11,2020.2.6,Win32,60,,,,,,,,,,,
,,,,,,,,,,,,,,a,1,0.57463,space,0.34328,0,129,129,150,1,0_targ_10_dist_red/trial1.png,,,0,10,redHorizontal,a,31,21,female,2021-02-21_22h11.45.560,exp11,2020.2.6,Win32,60,,,,,,,,,,,
,,,,,,,,,,,,,,p,1,0.587315,space,0.234665,0,130,130,22,1,0_dist_red/trial23.png,,,1,0,redHorizontal,p,31,21,female,2021-02-21_22h11.45.560,exp11,2020.2.6,Win32,60,,,,,,,,,,,
,,,,,,,,,,,,,,a,0,0.52833,space,0.412595,0,131,131,0,1,0_dist_red/trial1.png,,,1,0,redHorizontal,p,31,21,female,2021-02-21_22h11.45.560,exp11,2020.2.6,Win32,60,,,,,,,,,,,
,,,,,,,,,,,,,,p,1,0.764715,space,0.35257,0,132,132,71,1,9_dist_red/trial22.png,,,1,9,redHorizontal,p,31,21,female,2021-02-21_22h11.45.560,exp11,2020.2.6,Win32,60,,,,,,,,,,,
,,,,,,,,,,,,,,a,1,0.699195,space,0.27458,0,133,133,105,1,0_targ_1_dist_red/trial6.png,,,0,1,redHorizontal,a,31,21,female,2021-02-21_22h11.45.560,exp11,2020.2.6,Win32,60,,,,,,,,,,,
,,,,,,,,,,,,,,p,1,0.73371,space,0.3244,0,134,134,55,1,9_dist_red/trial6.png,,,1,9,redHorizontal,p,31,21,female,2021-02-21_22h11.45.560,exp11,2020.2.6,Win32,60,,,,,,,,,,,
,,,,,,,,,,,,,,a,1,0.76385,space,0.260635,0,135,135,132,1,0_targ_4_dist_red/trial8.png,,,0,4,redHorizontal,a,31,21,female,2021-02-21_22h11.45.560,exp11,2020.2.6,Win32,60,,,,,,,,,,,
,,,,,,,,,,,,,,a,1,0.544335,space,0.3703,0,136,136,126,1,0_targ_4_dist_red/trial2.png,,,0,4,redHorizontal,a,31,21,female,2021-02-21_22h11.45.560,exp11,2020.2.6,Win32,60,,,,,,,,,,,
,,,,,,,,,,,,,,p,1,0.51203,space,0.29276,0,137,137,62,1,9_dist_red/trial13.png,,,1,9,redHorizontal,p,31,21,female,2021-02-21_22h11.45.560,exp11,2020.2.6,Win32,60,,,,,,,,,,,
,,,,,,,,,,,,,,p,1,0.734335,space,0.3054,0,138,138,45,1,3_dist_red/trial21.png,,,1,3,redHorizontal,p,31,21,female,2021-02-21_22h11.45.560,exp11,2020.2.6,Win32,60,,,,,,,,,,,
,,,,,,,,,,,,,,a,1,0.55733,space,0.41835,0,139,139,146,1,0_targ_4_dist_red/trial22.png,,,0,4,redHorizontal,a,31,21,female,2021-02-21_22h11.45.560,exp11,2020.2.6,Win32,60,,,,,,,,,,,
,,,,,,,,,,,,,,a,1,0.58317,space,0.29915,0,140,140,108,1,0_targ_1_dist_red/trial9.png,,,0,1,redHorizontal,a,31,21,female,2021-02-21_22h11.45.560,exp11,2020.2.6,Win32,60,,,,,,,,,,,
,,,,,,,,,,,,,,a,1,0.695135,space,0.32003,0,141,141,167,1,0_targ_10_dist_red/trial18.png,,,0,10,redHorizontal,a,31,21,female,2021-02-21_22h11.45.560,exp11,2020.2.6,Win32,60,,,,,,,,,,,
,,,,,,,,,,,,,,p,1,0.453055,space,0.235135,0,142,142,11,1,0_dist_red/trial12.png,,,1,0,redHorizontal,p,31,21,female,2021-02-21_22h11.45.560,exp11,2020.2.6,Win32,60,,,,,,,,,,,
,,,,,,,,,,,,,,a,1,0.87811,space,0.28033,0,143,143,154,1,0_targ_10_dist_red/trial5.png,,,0,10,redHorizontal,a,31,21,female,2021-02-21_22h11.45.560,exp11,2020.2.6,Win32,60,,,,,,,,,,,
,,,,,,,,,,,,,,a,1,0.727945,space,0.301465,0,144,144,161,1,0_targ_10_dist_red/trial12.png,,,0,10,redHorizontal,a,31,21,female,2021-02-21_22h11.45.560,exp11,2020.2.6,Win32,60,,,,,,,,,,,
,,,,,,,,,,,,,,p,1,0.544875,space,0.27537,0,145,145,9,1,0_dist_red/trial10.png,,,1,0,redHorizontal,p,31,21,female,2021-02-21_22h11.45.560,exp11,2020.2.6,Win32,60,,,,,,,,,,,
,,,,,,,,,,,,,,a,1,0.653745,space,0.27416,0,146,146,142,1,0_targ_4_dist_red/trial18.png,,,0,4,redHorizontal,a,31,21,female,2021-02-21_22h11.45.560,exp11,2020.2.6,Win32,60,,,,,,,,,,,
,,,,,,,,,,,,,,p,1,0.62341,space,0.303935,0,147,147,60,1,9_dist_red/trial11.png,,,1,9,redHorizontal,p,31,21,female,2021-02-21_22h11.45.560,exp11,2020.2.6,Win32,60,,,,,,,,,,,
,,,,,,,,,,,,,,a,1,0.647965,space,0.289135,0,148,148,189,1,0_targ_16_dist_red/trial15.png,,,0,16,redHorizontal,a,31,21,female,2021-02-21_22h11.45.560,exp11,2020.2.6,Win32,60,,,,,,,,,,,
,,,,,,,,,,,,,,p,1,0.54635,space,0.270445,0,149,149,46,1,3_dist_red/trial22.png,,,1,3,redHorizontal,p,31,21,female,2021-02-21_22h11.45.560,exp11,2020.2.6,Win32,60,,,,,,,,,,,
,,,,,,,,,,,,,,a,1,0.569845,space,0.311535,0,150,150,179,1,0_targ_16_dist_red/trial5.png,,,0,16,redHorizontal,a,31,21,female,2021-02-21_22h11.45.560,exp11,2020.2.6,Win32,60,,,,,,,,,,,
,,,,,,,,,,,,,,p,1,0.591985,space,0.268065,0,151,151,92,1,15_dist_red/trial18.png,,,1,15,redHorizontal,p,31,21,female,2021-02-21_22h11.45.560,exp11,2020.2.6,Win32,60,,,,,,,,,,,
,,,,,,,,,,,,,,p,1,0.739875,space,0.305945,0,152,152,56,1,9_dist_red/trial7.png,,,1,9,redHorizontal,p,31,21,female,2021-02-21_22h11.45.560,exp11,2020.2.6,Win32,60,,,,,,,,,,,
,,,,,,,,,,,,,,a,1,0.792115,space,0.307355,0,153,153,136,1,0_targ_4_dist_red/trial12.png,,,0,4,redHorizontal,a,31,21,female,2021-02-21_22h11.45.560,exp11,2020.2.6,Win32,60,,,,,,,,,,,
,,,,,,,,,,,,,,p,1,0.605545,space,0.2677,0,154,154,36,1,3_dist_red/trial12.png,,,1,3,redHorizontal,p,31,21,female,2021-02-21_22h11.45.560,exp11,2020.2.6,Win32,60,,,,,,,,,,,
,,,,,,,,,,,,,,a,0,0.59833,space,0.292225,0,155,155,72,1,9_dist_red/trial23.png,,,1,9,redHorizontal,p,31,21,female,2021-02-21_22h11.45.560,exp11,2020.2.6,Win32,60,,,,,,,,,,,
,,,,,,,,,,,,,,a,1,1.65843,space,0.33667,0,156,156,159,1,0_targ_10_dist_red/trial10.png,,,0,10,redHorizontal,a,31,21,female,2021-02-21_22h11.45.560,exp11,2020.2.6,Win32,60,,,,,,,,,,,
,,,,,,,,,,,,,,p,1,0.599595,space,0.330385,0,157,157,19,1,0_dist_red/trial20.png,,,1,0,redHorizontal,p,31,21,female,2021-02-21_22h11.45.560,exp11,2020.2.6,Win32,60,,,,,,,,,,,
,,,,,,,,,,,,,,a,1,0.66343,space,0.33469,0,158,158,164,1,0_targ_10_dist_red/trial15.png,,,0,10,redHorizontal,a,31,21,female,2021-02-21_22h11.45.560,exp11,2020.2.6,Win32,60,,,,,,,,,,,
,,,,,,,,,,,,,,a,1,0.89927,space,0.32612,0,159,159,120,1,0_targ_1_dist_red/trial21.png,,,0,1,redHorizontal,a,31,21,female,2021-02-21_22h11.45.560,exp11,2020.2.6,Win32,60,,,,,,,,,,,
,,,,,,,,,,,,,,a,1,1.40159,space,0.28997,0,160,160,188,1,0_targ_16_dist_red/trial14.png,,,0,16,redHorizontal,a,31,21,female,2021-02-21_22h11.45.560,exp11,2020.2.6,Win32,60,,,,,,,,,,,
,,,,,,,,,,,,,,p,0,0.47371,space,0.318135,0,161,161,138,1,0_targ_4_dist_red/trial14.png,,,0,4,redHorizontal,a,31,21,female,2021-02-21_22h11.45.560,exp11,2020.2.6,Win32,60,,,,,,,,,,,
,,,,,,,,,,,,,,a,1,0.83405,space,0.53545,0,162,162,107,1,0_targ_1_dist_red/trial8.png,,,0,1,redHorizontal,a,31,21,female,2021-02-21_22h11.45.560,exp11,2020.2.6,Win32,60,,,,,,,,,,,
,,,,,,,,,,,,,,p,1,0.96652,space,0.317825,0,163,163,79,1,15_dist_red/trial5.png,,,1,15,redHorizontal,p,31,21,female,2021-02-21_22h11.45.560,exp11,2020.2.6,Win32,60,,,,,,,,,,,
,,,,,,,,,,,,,,p,1,0.66872,space,0.317335,0,164,164,98,1,15_dist_red/trial24.png,,,1,15,redHorizontal,p,31,21,female,2021-02-21_22h11.45.560,exp11,2020.2.6,Win32,60,,,,,,,,,,,
,,,,,,,,,,,,,,a,1,0.88689,space,0.31049,0,165,165,191,1,0_targ_16_dist_red/trial17.png,,,0,16,redHorizontal,a,31,21,female,2021-02-21_22h11.45.560,exp11,2020.2.6,Win32,60,,,,,,,,,,,
,,,,,,,,,,,,,,p,1,0.46503,space,0.289815,0,166,166,5,1,0_dist_red/trial6.png,,,1,0,redHorizontal,p,31,21,female,2021-02-21_22h11.45.560,exp11,2020.2.6,Win32,60,,,,,,,,,,,
,,,,,,,,,,,,,,p,1,0.500655,space,0.28476,0,167,167,18,1,0_dist_red/trial19.png,,,1,0,redHorizontal,p,31,21,female,2021-02-21_22h11.45.560,exp11,2020.2.6,Win32,60,,,,,,,,,,,
,,,,,,,,,,,,,,a,1,0.70176,space,0.319095,0,168,168,169,1,0_targ_10_dist_red/trial20.png,,,0,10,redHorizontal,a,31,21,female,2021-02-21_22h11.45.560,exp11,2020.2.6,Win32,60,,,,,,,,,,,
,,,,,,,,,,,,,,a,1,0.69016,space,0.341975,0,169,169,187,1,0_targ_16_dist_red/trial13.png,,,0,16,redHorizontal,a,31,21,female,2021-02-21_22h11.45.560,exp11,2020.2.6,Win32,60,,,,,,,,,,,
,,,,,,,,,,,,,,a,1,1.06891,space,0.28413,0,170,170,129,1,0_targ_4_dist_red/trial5.png,,,0,4,redHorizontal,a,31,21,female,2021-02-21_22h11.45.560,exp11,2020.2.6,Win32,60,,,,,,,,,,,
,,,,,,,,,,,,,,p,1,0.446195,space,0.28595,0,171,171,38,1,3_dist_red/trial14.png,,,1,3,redHorizontal,p,31,21,female,2021-02-21_22h11.45.560,exp11,2020.2.6,Win32,60,,,,,,,,,,,
,,,,,,,,,,,,,,a,1,0.4544,space,0.29664,0,172,172,106,1,0_targ_1_dist_red/trial7.png,,,0,1,redHorizontal,a,31,21,female,2021-02-21_22h11.45.560,exp11,2020.2.6,Win32,60,,,,,,,,,,,
,,,,,,,,,,,,,,p,1,0.39412,space,0.28382,0,173,173,10,1,0_dist_red/trial11.png,,,1,0,redHorizontal,p,31,21,female,2021-02-21_22h11.45.560,exp11,2020.2.6,Win32,60,,,,,,,,,,,
,,,,,,,,,,,,,,p,1,0.77605,space,0.271375,0,174,174,65,1,9_dist_red/trial16.png,,,1,9,redHorizontal,p,31,21,female,2021-02-21_22h11.45.560,exp11,2020.2.6,Win32,60,,,,,,,,,,,
,,,,,,,,,,,,,,a,1,0.42744,space,0.36118,0,175,175,119,1,0_targ_1_dist_red/trial20.png,,,0,1,redHorizontal,a,31,21,female,2021-02-21_22h11.45.560,exp11,2020.2.6,Win32,60,,,,,,,,,,,
,,,,,,,,,,,,,,a,1,0.59367,space,0.309455,0,176,176,135,1,0_targ_4_dist_red/trial11.png,,,0,4,redHorizontal,a,31,21,female,2021-02-21_22h11.45.560,exp11,2020.2.6,Win32,60,,,,,,,,,,,
,,,,,,,,,,,,,,a,1,0.87302,space,0.31816,0,177,177,196,1,0_targ_16_dist_red/trial22.png,,,0,16,redHorizontal,a,31,21,female,2021-02-21_22h11.45.560,exp11,2020.2.6,Win32,60,,,,,,,,,,,
,,,,,,,,,,,,,,p,1,0.612995,space,0.29374,0,178,178,78,1,15_dist_red/trial4.png,,,1,15,redHorizontal,p,31,21,female,2021-02-21_22h11.45.560,exp11,2020.2.6,Win32,60,,,,,,,,,,,
,,,,,,,,,,,,,,a,1,0.64248,space,0.33476,0,179,179,185,1,0_targ_16_dist_red/trial11.png,,,0,16,redHorizontal,a,31,21,female,2021-02-21_22h11.45.560,exp11,2020.2.6,Win32,60,,,,,,,,,,,
,,,,,,,,,,,,,,p,1,0.49199,space,0.300805,0,180,180,6,1,0_dist_red/trial7.png,,,1,0,redHorizontal,p,31,21,female,2021-02-21_22h11.45.560,exp11,2020.2.6,Win32,60,,,,,,,,,,,
,,,,,,,,,,,,,,p,1,0.712585,space,0.255615,0,181,181,37,1,3_dist_red/trial13.png,,,1,3,redHorizontal,p,31,21,female,2021-02-21_22h11.45.560,exp11,2020.2.6,Win32,60,,,,,,,,,,,
,,,,,,,,,,,,,,a,1,0.66386,space,0.333565,0,182,182,171,1,0_targ_10_dist_red/trial22.png,,,0,10,redHorizontal,a,31,21,female,2021-02-21_22h11.45.560,exp11,2020.2.6,Win32,60,,,,,,,,,,,
,,,,,,,,,,,,,,p,1,0.71003,space,0.287615,0,183,183,34,1,3_dist_red/trial10.png,,,1,3,redHorizontal,p,31,21,female,2021-02-21_22h11.45.560,exp11,2020.2.6,Win32,60,,,,,,,,,,,
,,,,,,,,,,,,,,a,1,0.538665,space,0.32193,0,184,184,123,1,0_targ_1_dist_red/trial24.png,,,0,1,redHorizontal,a,31,21,female,2021-02-21_22h11.45.560,exp11,2020.2.6,Win32,60,,,,,,,,,,,
,,,,,,,,,,,,,,p,1,0.53192,space,0.242215,0,185,185,57,1,9_dist_red/trial8.png,,,1,9,redHorizontal,p,31,21,female,2021-02-21_22h11.45.560,exp11,2020.2.6,Win32,60,,,,,,,,,,,
,,,,,,,,,,,,,,p,1,0.993355,space,0.254,0,186,186,84,1,15_dist_red/trial10.png,,,1,15,redHorizontal,p,31,21,female,2021-02-21_22h11.45.560,exp11,2020.2.6,Win32,60,,,,,,,,,,,
,,,,,,,,,,,,,,a,1,0.854685,space,0.343085,0,187,187,163,1,0_targ_10_dist_red/trial14.png,,,0,10,redHorizontal,a,31,21,female,2021-02-21_22h11.45.560,exp11,2020.2.6,Win32,60,,,,,,,,,,,
,,,,,,,,,,,,,,p,1,0.483815,space,0.26932,0,188,188,16,1,0_dist_red/trial17.png,,,1,0,redHorizontal,p,31,21,female,2021-02-21_22h11.45.560,exp11,2020.2.6,Win32,60,,,,,,,,,,,
,,,,,,,,,,,,,,p,1,0.577125,space,0.244685,0,189,189,67,1,9_dist_red/trial18.png,,,1,9,redHorizontal,p,31,21,female,2021-02-21_22h11.45.560,exp11,2020.2.6,Win32,60,,,,,,,,,,,
,,,,,,,,,,,,,,p,1,0.500595,space,0.28449,0,190,190,99,1,15_dist_red/trial25.png,,,1,15,redHorizontal,p,31,21,female,2021-02-21_22h11.45.560,exp11,2020.2.6,Win32,60,,,,,,,,,,,
,,,,,,,,,,,,,,p,1,0.47289,space,0.32485,0,191,191,43,1,3_dist_red/trial19.png,,,1,3,redHorizontal,p,31,21,female,2021-02-21_22h11.45.560,exp11,2020.2.6,Win32,60,,,,,,,,,,,
,,,,,,,,,,,,,,a,0,0.56305,space,0.074115,0,192,192,80,1,15_dist_red/trial6.png,,,1,15,redHorizontal,p,31,21,female,2021-02-21_22h11.45.560,exp11,2020.2.6,Win32,60,,,,,,,,,,,
,,,,,,,,,,,,,,p,1,0.765505,space,0.245935,0,193,193,74,1,9_dist_red/trial25.png,,,1,9,redHorizontal,p,31,21,female,2021-02-21_22h11.45.560,exp11,2020.2.6,Win32,60,,,,,,,,,,,
,,,,,,,,,,,,,,p,1,1.10021,space,0.272805,0,194,194,95,1,15_dist_red/trial21.png,,,1,15,redHorizontal,p,31,21,female,2021-02-21_22h11.45.560,exp11,2020.2.6,Win32,60,,,,,,,,,,,
,,,,,,,,,,,,,,p,1,0.561595,space,0.217875,0,195,195,58,1,9_dist_red/trial9.png,,,1,9,redHorizontal,p,31,21,female,2021-02-21_22h11.45.560,exp11,2020.2.6,Win32,60,,,,,,,,,,,
,,,,,,,,,,,,,,a,1,0.776875,space,0.350965,0,196,196,143,1,0_targ_4_dist_red/trial19.png,,,0,4,redHorizontal,a,31,21,female,2021-02-21_22h11.45.560,exp11,2020.2.6,Win32,60,,,,,,,,,,,
,,,,,,,,,,,,,,a,1,0.841415,space,0.30979,0,197,197,137,1,0_targ_4_dist_red/trial13.png,,,0,4,redHorizontal,a,31,21,female,2021-02-21_22h11.45.560,exp11,2020.2.6,Win32,60,,,,,,,,,,,
,,,,,,,,,,,,,,p,1,0.44374,space,0.26703,0,198,198,13,1,0_dist_red/trial14.png,,,1,0,redHorizontal,p,31,21,female,2021-02-21_22h11.45.560,exp11,2020.2.6,Win32,60,,,,,,,,,,,
,,,,,,,,,,,,,,p,1,0.76201,space,0.252125,0,199,199,50,1,9_dist_red/trial1.png,,,1,9,redHorizontal,p,31,21,female,2021-02-21_22h11.45.560,exp11,2020.2.6,Win32,60,,,,,,,,,,,
,,,,,,,,,,,,,,,,,,,,,,,,,,,,,,,31,21,female,2021-02-21_22h11.45.560,exp11,2020.2.6,Win32,60,0,1,1,1,1,conRed.xlsx,red horizontal,Look for red horizontal bar (target) and indicate if it is present or absent in the array. If red horizontal target is present press 'p' and if absent press 'a'. Press SPACE to start.,,,
