key_resp_6.keys,key_resp_6.rt,key_resp_7.keys,key_resp_7.rt,key_resp_8.keys,key_resp_8.rt,key_resp_10.keys,key_resp_10.rt,key_resp_9.keys,key_resp_9.rt,key_resp_3.keys,key_resp_3.rt,key_resp_5.keys,key_resp_5.rt,key_resp.keys,key_resp.corr,key_resp.rt,key_resp_4.keys,key_resp_4.rt,trials.thisRepN,trials.thisTrialN,trials.thisN,trials.thisIndex,trials.ran,ImageFile,tarPos,tarSize,targPres,numDist,targetName,correctAns,participant,age,sex,date,expName,psychopyVersion,OS,frameRate,trials_2.thisRepN,trials_2.thisTrialN,trials_2.thisN,trials_2.thisIndex,trials_2.ran,condsFile,targName,instructionText,colTarget,sizeTarg,posit
space,5.097555,space,8.878215,space,6.829025,space,21.699185,space,3.96464,space,22.77768,space,10.08156,p,1,1.174095,space,3.32475,0,0,0,36,1,3_dist_red/trial12.png,,,1,3,redHorizontal,p,32,20,male,2021-02-22_15h06.55.093,exp11,2020.2.6,Win32,60,,,,,,,,,,,
,,,,,,,,,,,,,,p,1,1.02559,space,0.951355,0,1,1,29,1,3_dist_red/trial5.png,,,1,3,redHorizontal,p,32,20,male,2021-02-22_15h06.55.093,exp11,2020.2.6,Win32,60,,,,,,,,,,,
,,,,,,,,,,,,,,a,1,0.875325,space,1.67533,0,2,2,106,1,0_targ_1_dist_red/trial7.png,,,0,1,redHorizontal,a,32,20,male,2021-02-22_15h06.55.093,exp11,2020.2.6,Win32,60,,,,,,,,,,,
,,,,,,,,,,,,,,p,1,0.87068,space,0.67015,0,3,3,98,1,15_dist_red/trial24.png,,,1,15,redHorizontal,p,32,20,male,2021-02-22_15h06.55.093,exp11,2020.2.6,Win32,60,,,,,,,,,,,
,,,,,,,,,,,,,,a,1,1.63272,space,1.83618,0,4,4,180,1,0_targ_16_dist_red/trial6.png,,,0,16,redHorizontal,a,32,20,male,2021-02-22_15h06.55.093,exp11,2020.2.6,Win32,60,,,,,,,,,,,
,,,,,,,,,,,,,,p,1,0.608015,space,0.46055,0,5,5,83,1,15_dist_red/trial9.png,,,1,15,redHorizontal,p,32,20,male,2021-02-22_15h06.55.093,exp11,2020.2.6,Win32,60,,,,,,,,,,,
,,,,,,,,,,,,,,a,1,0.81104,space,0.39521,0,6,6,170,1,0_targ_10_dist_red/trial21.png,,,0,10,redHorizontal,a,32,20,male,2021-02-22_15h06.55.093,exp11,2020.2.6,Win32,60,,,,,,,,,,,
,,,,,,,,,,,,,,a,1,0.928155,space,0.3569,0,7,7,150,1,0_targ_10_dist_red/trial1.png,,,0,10,redHorizontal,a,32,20,male,2021-02-22_15h06.55.093,exp11,2020.2.6,Win32,60,,,,,,,,,,,
,,,,,,,,,,,,,,a,1,0.69702,space,0.37663,0,8,8,108,1,0_targ_1_dist_red/trial9.png,,,0,1,redHorizontal,a,32,20,male,2021-02-22_15h06.55.093,exp11,2020.2.6,Win32,60,,,,,,,,,,,
,,,,,,,,,,,,,,p,1,0.751865,space,0.400765,0,9,9,99,1,15_dist_red/trial25.png,,,1,15,redHorizontal,p,32,20,male,2021-02-22_15h06.55.093,exp11,2020.2.6,Win32,60,,,,,,,,,,,
,,,,,,,,,,,,,,a,1,0.721465,space,0.37989,0,10,10,136,1,0_targ_4_dist_red/trial12.png,,,0,4,redHorizontal,a,32,20,male,2021-02-22_15h06.55.093,exp11,2020.2.6,Win32,60,,,,,,,,,,,
,,,,,,,,,,,,,,p,1,0.50953,space,0.38937,0,11,11,15,1,0_dist_red/trial16.png,,,1,0,redHorizontal,p,32,20,male,2021-02-22_15h06.55.093,exp11,2020.2.6,Win32,60,,,,,,,,,,,
,,,,,,,,,,,,,,p,1,0.62638,space,0.35559,0,12,12,66,1,9_dist_red/trial17.png,,,1,9,redHorizontal,p,32,20,male,2021-02-22_15h06.55.093,exp11,2020.2.6,Win32,60,,,,,,,,,,,
,,,,,,,,,,,,,,p,1,0.624945,space,0.40495,0,13,13,82,1,15_dist_red/trial8.png,,,1,15,redHorizontal,p,32,20,male,2021-02-22_15h06.55.093,exp11,2020.2.6,Win32,60,,,,,,,,,,,
,,,,,,,,,,,,,,p,1,0.899865,space,0.393025,0,14,14,80,1,15_dist_red/trial6.png,,,1,15,redHorizontal,p,32,20,male,2021-02-22_15h06.55.093,exp11,2020.2.6,Win32,60,,,,,,,,,,,
,,,,,,,,,,,,,,p,1,0.769825,space,0.390635,0,15,15,39,1,3_dist_red/trial15.png,,,1,3,redHorizontal,p,32,20,male,2021-02-22_15h06.55.093,exp11,2020.2.6,Win32,60,,,,,,,,,,,
,,,,,,,,,,,,,,a,1,1.109355,space,0.41789,0,16,16,178,1,0_targ_16_dist_red/trial4.png,,,0,16,redHorizontal,a,32,20,male,2021-02-22_15h06.55.093,exp11,2020.2.6,Win32,60,,,,,,,,,,,
,,,,,,,,,,,,,,a,1,1.22223,space,0.24176,0,17,17,187,1,0_targ_16_dist_red/trial13.png,,,0,16,redHorizontal,a,32,20,male,2021-02-22_15h06.55.093,exp11,2020.2.6,Win32,60,,,,,,,,,,,
,,,,,,,,,,,,,,p,1,1.134425,space,0.40766,0,18,18,40,1,3_dist_red/trial16.png,,,1,3,redHorizontal,p,32,20,male,2021-02-22_15h06.55.093,exp11,2020.2.6,Win32,60,,,,,,,,,,,
,,,,,,,,,,,,,,a,1,1.06886,space,0.46775,0,19,19,152,1,0_targ_10_dist_red/trial3.png,,,0,10,redHorizontal,a,32,20,male,2021-02-22_15h06.55.093,exp11,2020.2.6,Win32,60,,,,,,,,,,,
,,,,,,,,,,,,,,p,1,0.800755,space,0.450855,0,20,20,54,1,9_dist_red/trial5.png,,,1,9,redHorizontal,p,32,20,male,2021-02-22_15h06.55.093,exp11,2020.2.6,Win32,60,,,,,,,,,,,
,,,,,,,,,,,,,,a,1,0.88286,space,1.018345,0,21,21,163,1,0_targ_10_dist_red/trial14.png,,,0,10,redHorizontal,a,32,20,male,2021-02-22_15h06.55.093,exp11,2020.2.6,Win32,60,,,,,,,,,,,
,,,,,,,,,,,,,,p,1,0.649415,space,0.384255,0,22,22,26,1,3_dist_red/trial2.png,,,1,3,redHorizontal,p,32,20,male,2021-02-22_15h06.55.093,exp11,2020.2.6,Win32,60,,,,,,,,,,,
,,,,,,,,,,,,,,a,1,0.78885,space,0.40079,0,23,23,123,1,0_targ_1_dist_red/trial24.png,,,0,1,redHorizontal,a,32,20,male,2021-02-22_15h06.55.093,exp11,2020.2.6,Win32,60,,,,,,,,,,,
,,,,,,,,,,,,,,p,1,1.05758,space,0.335005,0,24,24,71,1,9_dist_red/trial22.png,,,1,9,redHorizontal,p,32,20,male,2021-02-22_15h06.55.093,exp11,2020.2.6,Win32,60,,,,,,,,,,,
,,,,,,,,,,,,,,p,1,0.906285,space,0.43993,0,25,25,61,1,9_dist_red/trial12.png,,,1,9,redHorizontal,p,32,20,male,2021-02-22_15h06.55.093,exp11,2020.2.6,Win32,60,,,,,,,,,,,
,,,,,,,,,,,,,,p,1,0.520075,space,0.394595,0,26,26,19,1,0_dist_red/trial20.png,,,1,0,redHorizontal,p,32,20,male,2021-02-22_15h06.55.093,exp11,2020.2.6,Win32,60,,,,,,,,,,,
,,,,,,,,,,,,,,a,1,0.698615,space,0.35455,0,27,27,174,1,0_targ_10_dist_red/trial25.png,,,0,10,redHorizontal,a,32,20,male,2021-02-22_15h06.55.093,exp11,2020.2.6,Win32,60,,,,,,,,,,,
,,,,,,,,,,,,,,a,1,0.99852,space,1.009745,0,28,28,186,1,0_targ_16_dist_red/trial12.png,,,0,16,redHorizontal,a,32,20,male,2021-02-22_15h06.55.093,exp11,2020.2.6,Win32,60,,,,,,,,,,,
,,,,,,,,,,,,,,p,1,0.557475,space,0.362665,0,29,29,62,1,9_dist_red/trial13.png,,,1,9,redHorizontal,p,32,20,male,2021-02-22_15h06.55.093,exp11,2020.2.6,Win32,60,,,,,,,,,,,
,,,,,,,,,,,,,,a,1,0.649035,space,0.274745,0,30,30,138,1,0_targ_4_dist_red/trial14.png,,,0,4,redHorizontal,a,32,20,male,2021-02-22_15h06.55.093,exp11,2020.2.6,Win32,60,,,,,,,,,,,
,,,,,,,,,,,,,,a,1,0.714675,space,0.21991,0,31,31,148,1,0_targ_4_dist_red/trial24.png,,,0,4,redHorizontal,a,32,20,male,2021-02-22_15h06.55.093,exp11,2020.2.6,Win32,60,,,,,,,,,,,
,,,,,,,,,,,,,,p,0,0.64071,space,0.193985,0,32,32,113,1,0_targ_1_dist_red/trial14.png,,,0,1,redHorizontal,a,32,20,male,2021-02-22_15h06.55.093,exp11,2020.2.6,Win32,60,,,,,,,,,,,
,,,,,,,,,,,,,,p,1,1.063405,space,0.434395,0,33,33,51,1,9_dist_red/trial2.png,,,1,9,redHorizontal,p,32,20,male,2021-02-22_15h06.55.093,exp11,2020.2.6,Win32,60,,,,,,,,,,,
,,,,,,,,,,,,,,a,1,0.699955,space,0.661475,0,34,34,146,1,0_targ_4_dist_red/trial22.png,,,0,4,redHorizontal,a,32,20,male,2021-02-22_15h06.55.093,exp11,2020.2.6,Win32,60,,,,,,,,,,,
,,,,,,,,,,,,,,a,1,1.889915,space,0.807275,0,35,35,190,1,0_targ_16_dist_red/trial16.png,,,0,16,redHorizontal,a,32,20,male,2021-02-22_15h06.55.093,exp11,2020.2.6,Win32,60,,,,,,,,,,,
,,,,,,,,,,,,,,p,1,1.088575,space,0.30043,0,36,36,78,1,15_dist_red/trial4.png,,,1,15,redHorizontal,p,32,20,male,2021-02-22_15h06.55.093,exp11,2020.2.6,Win32,60,,,,,,,,,,,
,,,,,,,,,,,,,,p,1,0.688285,space,0.375625,0,37,37,27,1,3_dist_red/trial3.png,,,1,3,redHorizontal,p,32,20,male,2021-02-22_15h06.55.093,exp11,2020.2.6,Win32,60,,,,,,,,,,,
,,,,,,,,,,,,,,p,1,0.891365,space,0.34335,0,38,38,41,1,3_dist_red/trial17.png,,,1,3,redHorizontal,p,32,20,male,2021-02-22_15h06.55.093,exp11,2020.2.6,Win32,60,,,,,,,,,,,
,,,,,,,,,,,,,,a,1,0.790575,space,0.48051,0,39,39,156,1,0_targ_10_dist_red/trial7.png,,,0,10,redHorizontal,a,32,20,male,2021-02-22_15h06.55.093,exp11,2020.2.6,Win32,60,,,,,,,,,,,
,,,,,,,,,,,,,,a,1,1.656585,space,0.377395,0,40,40,144,1,0_targ_4_dist_red/trial20.png,,,0,4,redHorizontal,a,32,20,male,2021-02-22_15h06.55.093,exp11,2020.2.6,Win32,60,,,,,,,,,,,
,,,,,,,,,,,,,,a,1,1.259125,space,0.240185,0,41,41,162,1,0_targ_10_dist_red/trial13.png,,,0,10,redHorizontal,a,32,20,male,2021-02-22_15h06.55.093,exp11,2020.2.6,Win32,60,,,,,,,,,,,
,,,,,,,,,,,,,,a,1,0.679975,space,0.28871,0,42,42,141,1,0_targ_4_dist_red/trial17.png,,,0,4,redHorizontal,a,32,20,male,2021-02-22_15h06.55.093,exp11,2020.2.6,Win32,60,,,,,,,,,,,
,,,,,,,,,,,,,,p,1,0.642095,space,0.275625,0,43,43,28,1,3_dist_red/trial4.png,,,1,3,redHorizontal,p,32,20,male,2021-02-22_15h06.55.093,exp11,2020.2.6,Win32,60,,,,,,,,,,,
,,,,,,,,,,,,,,p,1,1.052955,space,0.269965,0,44,44,89,1,15_dist_red/trial15.png,,,1,15,redHorizontal,p,32,20,male,2021-02-22_15h06.55.093,exp11,2020.2.6,Win32,60,,,,,,,,,,,
,,,,,,,,,,,,,,p,1,0.913825,space,0.30226,0,45,45,85,1,15_dist_red/trial11.png,,,1,15,redHorizontal,p,32,20,male,2021-02-22_15h06.55.093,exp11,2020.2.6,Win32,60,,,,,,,,,,,
,,,,,,,,,,,,,,p,1,0.647495,space,0.335075,0,46,46,93,1,15_dist_red/trial19.png,,,1,15,redHorizontal,p,32,20,male,2021-02-22_15h06.55.093,exp11,2020.2.6,Win32,60,,,,,,,,,,,
,,,,,,,,,,,,,,p,1,0.568395,space,0.342685,0,47,47,16,1,0_dist_red/trial17.png,,,1,0,redHorizontal,p,32,20,male,2021-02-22_15h06.55.093,exp11,2020.2.6,Win32,60,,,,,,,,,,,
,,,,,,,,,,,,,,a,1,0.61812,space,0.30546,0,48,48,101,1,0_targ_1_dist_red/trial2.png,,,0,1,redHorizontal,a,32,20,male,2021-02-22_15h06.55.093,exp11,2020.2.6,Win32,60,,,,,,,,,,,
,,,,,,,,,,,,,,a,1,0.62437,space,0.74603,0,49,49,175,1,0_targ_16_dist_red/trial1.png,,,0,16,redHorizontal,a,32,20,male,2021-02-22_15h06.55.093,exp11,2020.2.6,Win32,60,,,,,,,,,,,
,,,,,,,,,,,,,,a,1,0.55383,space,0.26142,0,50,50,102,1,0_targ_1_dist_red/trial3.png,,,0,1,redHorizontal,a,32,20,male,2021-02-22_15h06.55.093,exp11,2020.2.6,Win32,60,,,,,,,,,,,
,,,,,,,,,,,,,,a,1,1.671755,space,0.429475,0,51,51,184,1,0_targ_16_dist_red/trial10.png,,,0,16,redHorizontal,a,32,20,male,2021-02-22_15h06.55.093,exp11,2020.2.6,Win32,60,,,,,,,,,,,
,,,,,,,,,,,,,,a,1,1.23468,space,0.417665,0,52,52,137,1,0_targ_4_dist_red/trial13.png,,,0,4,redHorizontal,a,32,20,male,2021-02-22_15h06.55.093,exp11,2020.2.6,Win32,60,,,,,,,,,,,
,,,,,,,,,,,,,,p,1,0.933015,space,0.41651,0,53,53,56,1,9_dist_red/trial7.png,,,1,9,redHorizontal,p,32,20,male,2021-02-22_15h06.55.093,exp11,2020.2.6,Win32,60,,,,,,,,,,,
,,,,,,,,,,,,,,p,1,1.68499,space,0.299235,0,54,54,59,1,9_dist_red/trial10.png,,,1,9,redHorizontal,p,32,20,male,2021-02-22_15h06.55.093,exp11,2020.2.6,Win32,60,,,,,,,,,,,
,,,,,,,,,,,,,,p,1,0.622015,space,0.324255,0,55,55,96,1,15_dist_red/trial22.png,,,1,15,redHorizontal,p,32,20,male,2021-02-22_15h06.55.093,exp11,2020.2.6,Win32,60,,,,,,,,,,,
,,,,,,,,,,,,,,a,1,1.049605,space,0.40473,0,56,56,157,1,0_targ_10_dist_red/trial8.png,,,0,10,redHorizontal,a,32,20,male,2021-02-22_15h06.55.093,exp11,2020.2.6,Win32,60,,,,,,,,,,,
,,,,,,,,,,,,,,p,1,0.64018,space,0.34458,0,57,57,4,1,0_dist_red/trial5.png,,,1,0,redHorizontal,p,32,20,male,2021-02-22_15h06.55.093,exp11,2020.2.6,Win32,60,,,,,,,,,,,
,,,,,,,,,,,,,,a,1,1.613865,space,0.297665,0,58,58,169,1,0_targ_10_dist_red/trial20.png,,,0,10,redHorizontal,a,32,20,male,2021-02-22_15h06.55.093,exp11,2020.2.6,Win32,60,,,,,,,,,,,
,,,,,,,,,,,,,,a,1,0.96552,space,0.39483,0,59,59,182,1,0_targ_16_dist_red/trial8.png,,,0,16,redHorizontal,a,32,20,male,2021-02-22_15h06.55.093,exp11,2020.2.6,Win32,60,,,,,,,,,,,
,,,,,,,,,,,,,,p,1,0.69065,space,0.325945,0,60,60,11,1,0_dist_red/trial12.png,,,1,0,redHorizontal,p,32,20,male,2021-02-22_15h06.55.093,exp11,2020.2.6,Win32,60,,,,,,,,,,,
,,,,,,,,,,,,,,a,1,0.99605,space,0.358625,0,61,61,151,1,0_targ_10_dist_red/trial2.png,,,0,10,redHorizontal,a,32,20,male,2021-02-22_15h06.55.093,exp11,2020.2.6,Win32,60,,,,,,,,,,,
,,,,,,,,,,,,,,p,1,0.855125,space,0.316695,0,62,62,13,1,0_dist_red/trial14.png,,,1,0,redHorizontal,p,32,20,male,2021-02-22_15h06.55.093,exp11,2020.2.6,Win32,60,,,,,,,,,,,
,,,,,,,,,,,,,,p,1,0.939445,space,0.27778,0,63,63,79,1,15_dist_red/trial5.png,,,1,15,redHorizontal,p,32,20,male,2021-02-22_15h06.55.093,exp11,2020.2.6,Win32,60,,,,,,,,,,,
,,,,,,,,,,,,,,p,1,0.853755,space,0.22994,0,64,64,34,1,3_dist_red/trial10.png,,,1,3,redHorizontal,p,32,20,male,2021-02-22_15h06.55.093,exp11,2020.2.6,Win32,60,,,,,,,,,,,
,,,,,,,,,,,,,,p,1,0.70844,space,0.19892,0,65,65,88,1,15_dist_red/trial14.png,,,1,15,redHorizontal,p,32,20,male,2021-02-22_15h06.55.093,exp11,2020.2.6,Win32,60,,,,,,,,,,,
,,,,,,,,,,,,,,p,1,0.835485,space,0.23429,0,66,66,86,1,15_dist_red/trial12.png,,,1,15,redHorizontal,p,32,20,male,2021-02-22_15h06.55.093,exp11,2020.2.6,Win32,60,,,,,,,,,,,
,,,,,,,,,,,,,,a,1,0.70665,space,0.89475,0,67,67,110,1,0_targ_1_dist_red/trial11.png,,,0,1,redHorizontal,a,32,20,male,2021-02-22_15h06.55.093,exp11,2020.2.6,Win32,60,,,,,,,,,,,
,,,,,,,,,,,,,,a,1,0.787405,space,0.227285,0,68,68,124,1,0_targ_1_dist_red/trial25.png,,,0,1,redHorizontal,a,32,20,male,2021-02-22_15h06.55.093,exp11,2020.2.6,Win32,60,,,,,,,,,,,
,,,,,,,,,,,,,,a,1,0.874645,space,0.284015,0,69,69,135,1,0_targ_4_dist_red/trial11.png,,,0,4,redHorizontal,a,32,20,male,2021-02-22_15h06.55.093,exp11,2020.2.6,Win32,60,,,,,,,,,,,
,,,,,,,,,,,,,,a,1,1.74756,space,0.257855,0,70,70,149,1,0_targ_4_dist_red/trial25.png,,,0,4,redHorizontal,a,32,20,male,2021-02-22_15h06.55.093,exp11,2020.2.6,Win32,60,,,,,,,,,,,
,,,,,,,,,,,,,,a,1,0.78199,space,0.299815,0,71,71,114,1,0_targ_1_dist_red/trial15.png,,,0,1,redHorizontal,a,32,20,male,2021-02-22_15h06.55.093,exp11,2020.2.6,Win32,60,,,,,,,,,,,
,,,,,,,,,,,,,,a,1,1.170905,space,0.375005,0,72,72,191,1,0_targ_16_dist_red/trial17.png,,,0,16,redHorizontal,a,32,20,male,2021-02-22_15h06.55.093,exp11,2020.2.6,Win32,60,,,,,,,,,,,
,,,,,,,,,,,,,,p,1,0.674165,space,0.289335,0,73,73,92,1,15_dist_red/trial18.png,,,1,15,redHorizontal,p,32,20,male,2021-02-22_15h06.55.093,exp11,2020.2.6,Win32,60,,,,,,,,,,,
,,,,,,,,,,,,,,a,1,0.880385,space,0.33354,0,74,74,192,1,0_targ_16_dist_red/trial18.png,,,0,16,redHorizontal,a,32,20,male,2021-02-22_15h06.55.093,exp11,2020.2.6,Win32,60,,,,,,,,,,,
,,,,,,,,,,,,,,p,1,0.74038,space,0.32682,0,75,75,55,1,9_dist_red/trial6.png,,,1,9,redHorizontal,p,32,20,male,2021-02-22_15h06.55.093,exp11,2020.2.6,Win32,60,,,,,,,,,,,
,,,,,,,,,,,,,,a,0,0.804095,space,0.579265,0,76,76,50,1,9_dist_red/trial1.png,,,1,9,redHorizontal,p,32,20,male,2021-02-22_15h06.55.093,exp11,2020.2.6,Win32,60,,,,,,,,,,,
,,,,,,,,,,,,,,a,1,0.760215,space,0.327175,0,77,77,116,1,0_targ_1_dist_red/trial17.png,,,0,1,redHorizontal,a,32,20,male,2021-02-22_15h06.55.093,exp11,2020.2.6,Win32,60,,,,,,,,,,,
,,,,,,,,,,,,,,p,1,1.50974,space,0.271155,0,78,78,74,1,9_dist_red/trial25.png,,,1,9,redHorizontal,p,32,20,male,2021-02-22_15h06.55.093,exp11,2020.2.6,Win32,60,,,,,,,,,,,
,,,,,,,,,,,,,,p,1,0.58486,space,0.19376,0,79,79,10,1,0_dist_red/trial11.png,,,1,0,redHorizontal,p,32,20,male,2021-02-22_15h06.55.093,exp11,2020.2.6,Win32,60,,,,,,,,,,,
,,,,,,,,,,,,,,a,1,0.687625,space,0.230425,0,80,80,128,1,0_targ_4_dist_red/trial4.png,,,0,4,redHorizontal,a,32,20,male,2021-02-22_15h06.55.093,exp11,2020.2.6,Win32,60,,,,,,,,,,,
,,,,,,,,,,,,,,p,1,0.576995,space,0.210555,0,81,81,20,1,0_dist_red/trial21.png,,,1,0,redHorizontal,p,32,20,male,2021-02-22_15h06.55.093,exp11,2020.2.6,Win32,60,,,,,,,,,,,
,,,,,,,,,,,,,,p,1,0.61911,space,0.260955,0,82,82,49,1,3_dist_red/trial25.png,,,1,3,redHorizontal,p,32,20,male,2021-02-22_15h06.55.093,exp11,2020.2.6,Win32,60,,,,,,,,,,,
,,,,,,,,,,,,,,p,1,0.66402,space,0.2122,0,83,83,72,1,9_dist_red/trial23.png,,,1,9,redHorizontal,p,32,20,male,2021-02-22_15h06.55.093,exp11,2020.2.6,Win32,60,,,,,,,,,,,
,,,,,,,,,,,,,,a,1,1.173045,space,0.362355,0,84,84,177,1,0_targ_16_dist_red/trial3.png,,,0,16,redHorizontal,a,32,20,male,2021-02-22_15h06.55.093,exp11,2020.2.6,Win32,60,,,,,,,,,,,
,,,,,,,,,,,,,,a,1,0.726155,space,0.293975,0,85,85,133,1,0_targ_4_dist_red/trial9.png,,,0,4,redHorizontal,a,32,20,male,2021-02-22_15h06.55.093,exp11,2020.2.6,Win32,60,,,,,,,,,,,
,,,,,,,,,,,,,,p,1,0.62601,space,0.2904,0,86,86,53,1,9_dist_red/trial4.png,,,1,9,redHorizontal,p,32,20,male,2021-02-22_15h06.55.093,exp11,2020.2.6,Win32,60,,,,,,,,,,,
,,,,,,,,,,,,,,a,1,1.534595,space,0.23391,0,87,87,176,1,0_targ_16_dist_red/trial2.png,,,0,16,redHorizontal,a,32,20,male,2021-02-22_15h06.55.093,exp11,2020.2.6,Win32,60,,,,,,,,,,,
,,,,,,,,,,,,,,a,1,1.125935,space,0.23412,0,88,88,129,1,0_targ_4_dist_red/trial5.png,,,0,4,redHorizontal,a,32,20,male,2021-02-22_15h06.55.093,exp11,2020.2.6,Win32,60,,,,,,,,,,,
,,,,,,,,,,,,,,p,1,0.544235,space,0.24647,0,89,89,18,1,0_dist_red/trial19.png,,,1,0,redHorizontal,p,32,20,male,2021-02-22_15h06.55.093,exp11,2020.2.6,Win32,60,,,,,,,,,,,
,,,,,,,,,,,,,,a,1,0.842055,space,0.22285,0,90,90,112,1,0_targ_1_dist_red/trial13.png,,,0,1,redHorizontal,a,32,20,male,2021-02-22_15h06.55.093,exp11,2020.2.6,Win32,60,,,,,,,,,,,
,,,,,,,,,,,,,,a,1,1.616305,space,0.24464,0,91,91,193,1,0_targ_16_dist_red/trial19.png,,,0,16,redHorizontal,a,32,20,male,2021-02-22_15h06.55.093,exp11,2020.2.6,Win32,60,,,,,,,,,,,
,,,,,,,,,,,,,,a,1,0.754515,space,0.242755,0,92,92,142,1,0_targ_4_dist_red/trial18.png,,,0,4,redHorizontal,a,32,20,male,2021-02-22_15h06.55.093,exp11,2020.2.6,Win32,60,,,,,,,,,,,
,,,,,,,,,,,,,,a,1,0.766115,space,0.26788,0,93,93,126,1,0_targ_4_dist_red/trial2.png,,,0,4,redHorizontal,a,32,20,male,2021-02-22_15h06.55.093,exp11,2020.2.6,Win32,60,,,,,,,,,,,
,,,,,,,,,,,,,,p,1,0.64976,space,0.2364,0,94,94,87,1,15_dist_red/trial13.png,,,1,15,redHorizontal,p,32,20,male,2021-02-22_15h06.55.093,exp11,2020.2.6,Win32,60,,,,,,,,,,,
,,,,,,,,,,,,,,p,1,0.649835,space,0.200525,0,95,95,65,1,9_dist_red/trial16.png,,,1,9,redHorizontal,p,32,20,male,2021-02-22_15h06.55.093,exp11,2020.2.6,Win32,60,,,,,,,,,,,
,,,,,,,,,,,,,,p,1,0.57174,space,0.20927,0,96,96,76,1,15_dist_red/trial2.png,,,1,15,redHorizontal,p,32,20,male,2021-02-22_15h06.55.093,exp11,2020.2.6,Win32,60,,,,,,,,,,,
,,,,,,,,,,,,,,a,1,0.67427,space,0.307365,0,97,97,105,1,0_targ_1_dist_red/trial6.png,,,0,1,redHorizontal,a,32,20,male,2021-02-22_15h06.55.093,exp11,2020.2.6,Win32,60,,,,,,,,,,,
,,,,,,,,,,,,,,a,1,1.00572,space,0.28665,0,98,98,172,1,0_targ_10_dist_red/trial23.png,,,0,10,redHorizontal,a,32,20,male,2021-02-22_15h06.55.093,exp11,2020.2.6,Win32,60,,,,,,,,,,,
,,,,,,,,,,,,,,a,1,0.80023,space,0.219665,0,99,99,185,1,0_targ_16_dist_red/trial11.png,,,0,16,redHorizontal,a,32,20,male,2021-02-22_15h06.55.093,exp11,2020.2.6,Win32,60,,,,,,,,,,,
,,,,,,,,,,,,,,p,1,0.665555,space,0.251225,0,100,100,67,1,9_dist_red/trial18.png,,,1,9,redHorizontal,p,32,20,male,2021-02-22_15h06.55.093,exp11,2020.2.6,Win32,60,,,,,,,,,,,
,,,,,,,,,,,,,,p,1,0.58279,space,0.239835,0,101,101,91,1,15_dist_red/trial17.png,,,1,15,redHorizontal,p,32,20,male,2021-02-22_15h06.55.093,exp11,2020.2.6,Win32,60,,,,,,,,,,,
,,,,,,,,,,,,,,p,1,0.689085,space,0.251145,0,102,102,33,1,3_dist_red/trial9.png,,,1,3,redHorizontal,p,32,20,male,2021-02-22_15h06.55.093,exp11,2020.2.6,Win32,60,,,,,,,,,,,
,,,,,,,,,,,,,,p,1,0.50039,space,0.26712,0,103,103,12,1,0_dist_red/trial13.png,,,1,0,redHorizontal,p,32,20,male,2021-02-22_15h06.55.093,exp11,2020.2.6,Win32,60,,,,,,,,,,,
,,,,,,,,,,,,,,p,1,0.454295,space,0.25079,0,104,104,32,1,3_dist_red/trial8.png,,,1,3,redHorizontal,p,32,20,male,2021-02-22_15h06.55.093,exp11,2020.2.6,Win32,60,,,,,,,,,,,
,,,,,,,,,,,,,,p,1,0.700615,space,0.25646,0,105,105,97,1,15_dist_red/trial23.png,,,1,15,redHorizontal,p,32,20,male,2021-02-22_15h06.55.093,exp11,2020.2.6,Win32,60,,,,,,,,,,,
,,,,,,,,,,,,,,a,1,0.637005,space,0.317415,0,106,106,118,1,0_targ_1_dist_red/trial19.png,,,0,1,redHorizontal,a,32,20,male,2021-02-22_15h06.55.093,exp11,2020.2.6,Win32,60,,,,,,,,,,,
,,,,,,,,,,,,,,a,1,0.738565,space,0.28665,0,107,107,140,1,0_targ_4_dist_red/trial6.png,,,0,4,redHorizontal,a,32,20,male,2021-02-22_15h06.55.093,exp11,2020.2.6,Win32,60,,,,,,,,,,,
,,,,,,,,,,,,,,a,1,0.632825,space,0.249915,0,108,108,160,1,0_targ_10_dist_red/trial11.png,,,0,10,redHorizontal,a,32,20,male,2021-02-22_15h06.55.093,exp11,2020.2.6,Win32,60,,,,,,,,,,,
,,,,,,,,,,,,,,a,1,0.967135,space,0.30086,0,109,109,120,1,0_targ_1_dist_red/trial21.png,,,0,1,redHorizontal,a,32,20,male,2021-02-22_15h06.55.093,exp11,2020.2.6,Win32,60,,,,,,,,,,,
,,,,,,,,,,,,,,a,1,1.6184,space,0.284185,0,110,110,130,1,0_targ_4_dist_red/trial6.png,,,0,4,redHorizontal,a,32,20,male,2021-02-22_15h06.55.093,exp11,2020.2.6,Win32,60,,,,,,,,,,,
,,,,,,,,,,,,,,a,1,0.84042,space,0.330235,0,111,111,199,1,0_targ_16_dist_red/trial25.png,,,0,16,redHorizontal,a,32,20,male,2021-02-22_15h06.55.093,exp11,2020.2.6,Win32,60,,,,,,,,,,,
,,,,,,,,,,,,,,p,1,0.53577,space,0.312965,0,112,112,1,1,0_dist_red/trial2.png,,,1,0,redHorizontal,p,32,20,male,2021-02-22_15h06.55.093,exp11,2020.2.6,Win32,60,,,,,,,,,,,
,,,,,,,,,,,,,,a,1,0.79886,space,0.24835,0,113,113,132,1,0_targ_4_dist_red/trial8.png,,,0,4,redHorizontal,a,32,20,male,2021-02-22_15h06.55.093,exp11,2020.2.6,Win32,60,,,,,,,,,,,
,,,,,,,,,,,,,,a,0,0.835535,space,1.40925,0,114,114,63,1,9_dist_red/trial14.png,,,1,9,redHorizontal,p,32,20,male,2021-02-22_15h06.55.093,exp11,2020.2.6,Win32,60,,,,,,,,,,,
,,,,,,,,,,,,,,p,1,0.7402,space,0.24592,0,115,115,21,1,0_dist_red/trial22.png,,,1,0,redHorizontal,p,32,20,male,2021-02-22_15h06.55.093,exp11,2020.2.6,Win32,60,,,,,,,,,,,
,,,,,,,,,,,,,,a,1,0.764605,space,0.284425,0,116,116,143,1,0_targ_4_dist_red/trial19.png,,,0,4,redHorizontal,a,32,20,male,2021-02-22_15h06.55.093,exp11,2020.2.6,Win32,60,,,,,,,,,,,
,,,,,,,,,,,,,,p,1,1.070075,space,0.238775,0,117,117,3,1,0_dist_red/trial4.png,,,1,0,redHorizontal,p,32,20,male,2021-02-22_15h06.55.093,exp11,2020.2.6,Win32,60,,,,,,,,,,,
,,,,,,,,,,,,,,a,1,1.31589,space,0.518615,0,118,118,104,1,0_targ_1_dist_red/trial5.png,,,0,1,redHorizontal,a,32,20,male,2021-02-22_15h06.55.093,exp11,2020.2.6,Win32,60,,,,,,,,,,,
,,,,,,,,,,,,,,p,1,0.590975,space,0.26051,0,119,119,45,1,3_dist_red/trial21.png,,,1,3,redHorizontal,p,32,20,male,2021-02-22_15h06.55.093,exp11,2020.2.6,Win32,60,,,,,,,,,,,
,,,,,,,,,,,,,,p,1,0.63111,space,0.3071,0,120,120,37,1,3_dist_red/trial13.png,,,1,3,redHorizontal,p,32,20,male,2021-02-22_15h06.55.093,exp11,2020.2.6,Win32,60,,,,,,,,,,,
,,,,,,,,,,,,,,p,1,0.450385,space,0.245835,0,121,121,22,1,0_dist_red/trial23.png,,,1,0,redHorizontal,p,32,20,male,2021-02-22_15h06.55.093,exp11,2020.2.6,Win32,60,,,,,,,,,,,
,,,,,,,,,,,,,,a,1,0.647345,space,0.26243,0,122,122,111,1,0_targ_1_dist_red/trial12.png,,,0,1,redHorizontal,a,32,20,male,2021-02-22_15h06.55.093,exp11,2020.2.6,Win32,60,,,,,,,,,,,
,,,,,,,,,,,,,,a,1,1.155755,space,0.272005,0,123,123,122,1,0_targ_1_dist_red/trial23.png,,,0,1,redHorizontal,a,32,20,male,2021-02-22_15h06.55.093,exp11,2020.2.6,Win32,60,,,,,,,,,,,
,,,,,,,,,,,,,,p,1,0.668405,space,0.254105,0,124,124,17,1,0_dist_red/trial18.png,,,1,0,redHorizontal,p,32,20,male,2021-02-22_15h06.55.093,exp11,2020.2.6,Win32,60,,,,,,,,,,,
,,,,,,,,,,,,,,p,1,0.733905,space,0.25872,0,125,125,48,1,3_dist_red/trial24.png,,,1,3,redHorizontal,p,32,20,male,2021-02-22_15h06.55.093,exp11,2020.2.6,Win32,60,,,,,,,,,,,
,,,,,,,,,,,,,,a,1,1.33582,space,0.279225,0,126,126,173,1,0_targ_10_dist_red/trial24.png,,,0,10,redHorizontal,a,32,20,male,2021-02-22_15h06.55.093,exp11,2020.2.6,Win32,60,,,,,,,,,,,
,,,,,,,,,,,,,,p,1,0.75253,space,0.67251,0,127,127,31,1,3_dist_red/trial7.png,,,1,3,redHorizontal,p,32,20,male,2021-02-22_15h06.55.093,exp11,2020.2.6,Win32,60,,,,,,,,,,,
,,,,,,,,,,,,,,a,1,0.85135,space,0.767385,0,128,128,164,1,0_targ_10_dist_red/trial15.png,,,0,10,redHorizontal,a,32,20,male,2021-02-22_15h06.55.093,exp11,2020.2.6,Win32,60,,,,,,,,,,,
,,,,,,,,,,,,,,a,1,1.055245,space,0.30896,0,129,129,121,1,0_targ_1_dist_red/trial22.png,,,0,1,redHorizontal,a,32,20,male,2021-02-22_15h06.55.093,exp11,2020.2.6,Win32,60,,,,,,,,,,,
,,,,,,,,,,,,,,a,1,1.003675,space,0.322585,0,130,130,167,1,0_targ_10_dist_red/trial18.png,,,0,10,redHorizontal,a,32,20,male,2021-02-22_15h06.55.093,exp11,2020.2.6,Win32,60,,,,,,,,,,,
,,,,,,,,,,,,,,a,1,1.01824,space,0.30302,0,131,131,179,1,0_targ_16_dist_red/trial5.png,,,0,16,redHorizontal,a,32,20,male,2021-02-22_15h06.55.093,exp11,2020.2.6,Win32,60,,,,,,,,,,,
,,,,,,,,,,,,,,p,1,1.66536,space,0.253545,0,132,132,81,1,15_dist_red/trial7.png,,,1,15,redHorizontal,p,32,20,male,2021-02-22_15h06.55.093,exp11,2020.2.6,Win32,60,,,,,,,,,,,
,,,,,,,,,,,,,,a,1,1.488525,space,1.662805,0,133,133,165,1,0_targ_10_dist_red/trial16.png,,,0,10,redHorizontal,a,32,20,male,2021-02-22_15h06.55.093,exp11,2020.2.6,Win32,60,,,,,,,,,,,
,,,,,,,,,,,,,,a,1,1.052515,space,0.274855,0,134,134,131,1,0_targ_4_dist_red/trial7.png,,,0,4,redHorizontal,a,32,20,male,2021-02-22_15h06.55.093,exp11,2020.2.6,Win32,60,,,,,,,,,,,
,,,,,,,,,,,,,,p,1,0.664895,space,0.300095,0,135,135,42,1,3_dist_red/trial18.png,,,1,3,redHorizontal,p,32,20,male,2021-02-22_15h06.55.093,exp11,2020.2.6,Win32,60,,,,,,,,,,,
,,,,,,,,,,,,,,p,1,1.04891,space,0.35145,0,136,136,75,1,15_dist_red/trial1.png,,,1,15,redHorizontal,p,32,20,male,2021-02-22_15h06.55.093,exp11,2020.2.6,Win32,60,,,,,,,,,,,
,,,,,,,,,,,,,,a,1,1.00019,space,0.30067,0,137,137,109,1,0_targ_1_dist_red/trial10.png,,,0,1,redHorizontal,a,32,20,male,2021-02-22_15h06.55.093,exp11,2020.2.6,Win32,60,,,,,,,,,,,
,,,,,,,,,,,,,,a,1,0.99208,space,0.29112,0,138,138,158,1,0_targ_10_dist_red/trial9.png,,,0,10,redHorizontal,a,32,20,male,2021-02-22_15h06.55.093,exp11,2020.2.6,Win32,60,,,,,,,,,,,
,,,,,,,,,,,,,,p,1,1.224525,space,0.251175,0,139,139,58,1,9_dist_red/trial9.png,,,1,9,redHorizontal,p,32,20,male,2021-02-22_15h06.55.093,exp11,2020.2.6,Win32,60,,,,,,,,,,,
,,,,,,,,,,,,,,a,1,0.93448,space,0.28811,0,140,140,107,1,0_targ_1_dist_red/trial8.png,,,0,1,redHorizontal,a,32,20,male,2021-02-22_15h06.55.093,exp11,2020.2.6,Win32,60,,,,,,,,,,,
,,,,,,,,,,,,,,a,1,0.93404,space,0.30669,0,141,141,153,1,0_targ_10_dist_red/trial4.png,,,0,10,redHorizontal,a,32,20,male,2021-02-22_15h06.55.093,exp11,2020.2.6,Win32,60,,,,,,,,,,,
,,,,,,,,,,,,,,a,1,0.700415,space,0.28828,0,142,142,183,1,0_targ_16_dist_red/trial9.png,,,0,16,redHorizontal,a,32,20,male,2021-02-22_15h06.55.093,exp11,2020.2.6,Win32,60,,,,,,,,,,,
,,,,,,,,,,,,,,p,1,0.566355,space,0.2359,0,143,143,6,1,0_dist_red/trial7.png,,,1,0,redHorizontal,p,32,20,male,2021-02-22_15h06.55.093,exp11,2020.2.6,Win32,60,,,,,,,,,,,
,,,,,,,,,,,,,,p,1,0.70239,space,0.200635,0,144,144,30,1,3_dist_red/trial6.png,,,1,3,redHorizontal,p,32,20,male,2021-02-22_15h06.55.093,exp11,2020.2.6,Win32,60,,,,,,,,,,,
,,,,,,,,,,,,,,p,1,0.56729,space,0.184205,0,145,145,2,1,0_dist_red/trial3.png,,,1,0,redHorizontal,p,32,20,male,2021-02-22_15h06.55.093,exp11,2020.2.6,Win32,60,,,,,,,,,,,
,,,,,,,,,,,,,,p,1,0.4667,space,0.1502,0,146,146,38,1,3_dist_red/trial14.png,,,1,3,redHorizontal,p,32,20,male,2021-02-22_15h06.55.093,exp11,2020.2.6,Win32,60,,,,,,,,,,,
,,,,,,,,,,,,,,a,1,0.80037,space,0.250835,0,147,147,134,1,0_targ_4_dist_red/trial10.png,,,0,4,redHorizontal,a,32,20,male,2021-02-22_15h06.55.093,exp11,2020.2.6,Win32,60,,,,,,,,,,,
,,,,,,,,,,,,,,a,1,0.86708,space,0.43429,0,148,148,166,1,0_targ_10_dist_red/trial17.png,,,0,10,redHorizontal,a,32,20,male,2021-02-22_15h06.55.093,exp11,2020.2.6,Win32,60,,,,,,,,,,,
,,,,,,,,,,,,,,a,1,0.784395,space,0.267195,0,149,149,115,1,0_targ_1_dist_red/trial6.png,,,0,1,redHorizontal,a,32,20,male,2021-02-22_15h06.55.093,exp11,2020.2.6,Win32,60,,,,,,,,,,,
,,,,,,,,,,,,,,p,1,0.81675,space,0.155275,0,150,150,68,1,9_dist_red/trial19.png,,,1,9,redHorizontal,p,32,20,male,2021-02-22_15h06.55.093,exp11,2020.2.6,Win32,60,,,,,,,,,,,
,,,,,,,,,,,,,,a,1,0.800475,space,0.16811,0,151,151,127,1,0_targ_4_dist_red/trial3.png,,,0,4,redHorizontal,a,32,20,male,2021-02-22_15h06.55.093,exp11,2020.2.6,Win32,60,,,,,,,,,,,
,,,,,,,,,,,,,,a,1,0.703005,space,0.23431,0,152,152,119,1,0_targ_1_dist_red/trial20.png,,,0,1,redHorizontal,a,32,20,male,2021-02-22_15h06.55.093,exp11,2020.2.6,Win32,60,,,,,,,,,,,
,,,,,,,,,,,,,,a,1,0.584585,space,0.18672,0,153,153,117,1,0_targ_1_dist_red/trial18.png,,,0,1,redHorizontal,a,32,20,male,2021-02-22_15h06.55.093,exp11,2020.2.6,Win32,60,,,,,,,,,,,
,,,,,,,,,,,,,,a,1,1.284805,space,0.25243,0,154,154,196,1,0_targ_16_dist_red/trial22.png,,,0,16,redHorizontal,a,32,20,male,2021-02-22_15h06.55.093,exp11,2020.2.6,Win32,60,,,,,,,,,,,
,,,,,,,,,,,,,,p,1,0.61688,space,0.134965,0,155,155,5,1,0_dist_red/trial6.png,,,1,0,redHorizontal,p,32,20,male,2021-02-22_15h06.55.093,exp11,2020.2.6,Win32,60,,,,,,,,,,,
,,,,,,,,,,,,,,p,1,0.595185,space,0.125085,0,156,156,25,1,3_dist_red/trial1.png,,,1,3,redHorizontal,p,32,20,male,2021-02-22_15h06.55.093,exp11,2020.2.6,Win32,60,,,,,,,,,,,
,,,,,,,,,,,,,,p,1,0.70034,space,0.17923,0,157,157,77,1,15_dist_red/trial3.png,,,1,15,redHorizontal,p,32,20,male,2021-02-22_15h06.55.093,exp11,2020.2.6,Win32,60,,,,,,,,,,,
,,,,,,,,,,,,,,a,1,0.701325,space,0.171575,0,158,158,171,1,0_targ_10_dist_red/trial22.png,,,0,10,redHorizontal,a,32,20,male,2021-02-22_15h06.55.093,exp11,2020.2.6,Win32,60,,,,,,,,,,,
,,,,,,,,,,,,,,p,1,0.564035,space,0.08598,0,159,159,14,1,0_dist_red/trial15.png,,,1,0,redHorizontal,p,32,20,male,2021-02-22_15h06.55.093,exp11,2020.2.6,Win32,60,,,,,,,,,,,
,,,,,,,,,,,,,,p,1,0.53993,space,0.05099,0,160,160,7,1,0_dist_red/trial8.png,,,1,0,redHorizontal,p,32,20,male,2021-02-22_15h06.55.093,exp11,2020.2.6,Win32,60,,,,,,,,,,,
,,,,,,,,,,,,,,a,1,0.79567,space,0.155385,0,161,161,154,1,0_targ_10_dist_red/trial5.png,,,0,10,redHorizontal,a,32,20,male,2021-02-22_15h06.55.093,exp11,2020.2.6,Win32,60,,,,,,,,,,,
,,,,,,,,,,,,,,p,1,0.53031,space,0.080365,0,162,162,8,1,0_dist_red/trial9.png,,,1,0,redHorizontal,p,32,20,male,2021-02-22_15h06.55.093,exp11,2020.2.6,Win32,60,,,,,,,,,,,
,,,,,,,,,,,,,,p,1,0.606175,space,0.11766,0,163,163,46,1,3_dist_red/trial22.png,,,1,3,redHorizontal,p,32,20,male,2021-02-22_15h06.55.093,exp11,2020.2.6,Win32,60,,,,,,,,,,,
,,,,,,,,,,,,,,a,1,0.77489,space,0.30101,0,164,164,194,1,0_targ_16_dist_red/trial20.png,,,0,16,redHorizontal,a,32,20,male,2021-02-22_15h06.55.093,exp11,2020.2.6,Win32,60,,,,,,,,,,,
,,,,,,,,,,,,,,p,1,0.575755,space,0.080275,0,165,165,43,1,3_dist_red/trial19.png,,,1,3,redHorizontal,p,32,20,male,2021-02-22_15h06.55.093,exp11,2020.2.6,Win32,60,,,,,,,,,,,
,,,,,,,,,,,,,,p,1,0.707315,space,0.037895,0,166,166,47,1,3_dist_red/trial23.png,,,1,3,redHorizontal,p,32,20,male,2021-02-22_15h06.55.093,exp11,2020.2.6,Win32,60,,,,,,,,,,,
,,,,,,,,,,,,,,p,1,1.4979,space,0.07228,0,167,167,35,1,3_dist_red/trial11.png,,,1,3,redHorizontal,p,32,20,male,2021-02-22_15h06.55.093,exp11,2020.2.6,Win32,60,,,,,,,,,,,
,,,,,,,,,,,,,,p,1,0.887485,space,0.078415,0,168,168,95,1,15_dist_red/trial21.png,,,1,15,redHorizontal,p,32,20,male,2021-02-22_15h06.55.093,exp11,2020.2.6,Win32,60,,,,,,,,,,,
,,,,,,,,,,,,,,p,1,0.735,space,0.16272,0,169,169,90,1,15_dist_red/trial16.png,,,1,15,redHorizontal,p,32,20,male,2021-02-22_15h06.55.093,exp11,2020.2.6,Win32,60,,,,,,,,,,,
,,,,,,,,,,,,,,a,1,0.816115,space,0.222315,0,170,170,145,1,0_targ_4_dist_red/trial21.png,,,0,4,redHorizontal,a,32,20,male,2021-02-22_15h06.55.093,exp11,2020.2.6,Win32,60,,,,,,,,,,,
,,,,,,,,,,,,,,p,1,0.78084,space,0.116785,0,171,171,9,1,0_dist_red/trial10.png,,,1,0,redHorizontal,p,32,20,male,2021-02-22_15h06.55.093,exp11,2020.2.6,Win32,60,,,,,,,,,,,
,,,,,,,,,,,,,,p,1,0.54782,space,0.108775,0,172,172,0,1,0_dist_red/trial1.png,,,1,0,redHorizontal,p,32,20,male,2021-02-22_15h06.55.093,exp11,2020.2.6,Win32,60,,,,,,,,,,,
,,,,,,,,,,,,,,p,1,0.68794,space,0.063895,0,173,173,70,1,9_dist_red/trial21.png,,,1,9,redHorizontal,p,32,20,male,2021-02-22_15h06.55.093,exp11,2020.2.6,Win32,60,,,,,,,,,,,
,,,,,,,,,,,,,,a,1,0.67304,space,0.19113,0,174,174,147,1,0_targ_4_dist_red/trial23.png,,,0,4,redHorizontal,a,32,20,male,2021-02-22_15h06.55.093,exp11,2020.2.6,Win32,60,,,,,,,,,,,
,,,,,,,,,,,,,,p,1,0.728105,space,0.09764,0,175,175,69,1,9_dist_red/trial20.png,,,1,9,redHorizontal,p,32,20,male,2021-02-22_15h06.55.093,exp11,2020.2.6,Win32,60,,,,,,,,,,,
,,,,,,,,,,,,,,a,1,0.78789,space,0.18479,0,176,176,155,1,0_targ_10_dist_red/trial6.png,,,0,10,redHorizontal,a,32,20,male,2021-02-22_15h06.55.093,exp11,2020.2.6,Win32,60,,,,,,,,,,,
,,,,,,,,,,,,,,a,1,0.872255,space,0.176795,0,177,177,168,1,0_targ_10_dist_red/trial19.png,,,0,10,redHorizontal,a,32,20,male,2021-02-22_15h06.55.093,exp11,2020.2.6,Win32,60,,,,,,,,,,,
,,,,,,,,,,,,,,p,1,0.521215,space,0.119025,0,178,178,24,1,0_dist_red/trial25.png,,,1,0,redHorizontal,p,32,20,male,2021-02-22_15h06.55.093,exp11,2020.2.6,Win32,60,,,,,,,,,,,
,,,,,,,,,,,,,,p,1,0.443255,space,0.099525,0,179,179,44,1,3_dist_red/trial20.png,,,1,3,redHorizontal,p,32,20,male,2021-02-22_15h06.55.093,exp11,2020.2.6,Win32,60,,,,,,,,,,,
,,,,,,,,,,,,,,a,1,0.92305,space,0.184055,0,180,180,198,1,0_targ_16_dist_red/trial24.png,,,0,16,redHorizontal,a,32,20,male,2021-02-22_15h06.55.093,exp11,2020.2.6,Win32,60,,,,,,,,,,,
,,,,,,,,,,,,,,a,0,1.30141,space,0.578945,0,181,181,84,1,15_dist_red/trial10.png,,,1,15,redHorizontal,p,32,20,male,2021-02-22_15h06.55.093,exp11,2020.2.6,Win32,60,,,,,,,,,,,
,,,,,,,,,,,,,,a,1,1.86307,space,0.190865,0,182,182,159,1,0_targ_10_dist_red/trial10.png,,,0,10,redHorizontal,a,32,20,male,2021-02-22_15h06.55.093,exp11,2020.2.6,Win32,60,,,,,,,,,,,
,,,,,,,,,,,,,,a,1,0.721615,space,0.20576,0,183,183,139,1,0_targ_4_dist_red/trial15.png,,,0,4,redHorizontal,a,32,20,male,2021-02-22_15h06.55.093,exp11,2020.2.6,Win32,60,,,,,,,,,,,
,,,,,,,,,,,,,,a,1,0.920185,space,0.209705,0,184,184,181,1,0_targ_16_dist_red/trial7.png,,,0,16,redHorizontal,a,32,20,male,2021-02-22_15h06.55.093,exp11,2020.2.6,Win32,60,,,,,,,,,,,
,,,,,,,,,,,,,,a,1,1.23934,space,0.21999,0,185,185,195,1,0_targ_16_dist_red/trial21.png,,,0,16,redHorizontal,a,32,20,male,2021-02-22_15h06.55.093,exp11,2020.2.6,Win32,60,,,,,,,,,,,
,,,,,,,,,,,,,,a,1,0.825185,space,0.216505,0,186,186,189,1,0_targ_16_dist_red/trial15.png,,,0,16,redHorizontal,a,32,20,male,2021-02-22_15h06.55.093,exp11,2020.2.6,Win32,60,,,,,,,,,,,
,,,,,,,,,,,,,,a,1,1.1706,space,0.457745,0,187,187,125,1,0_targ_4_dist_red/trial1.png,,,0,4,redHorizontal,a,32,20,male,2021-02-22_15h06.55.093,exp11,2020.2.6,Win32,60,,,,,,,,,,,
,,,,,,,,,,,,,,a,1,0.638535,space,1.602375,0,188,188,100,1,0_targ_1_dist_red/trial1.png,,,0,1,redHorizontal,a,32,20,male,2021-02-22_15h06.55.093,exp11,2020.2.6,Win32,60,,,,,,,,,,,
,,,,,,,,,,,,,,a,1,0.846445,space,0.25175,0,189,189,188,1,0_targ_16_dist_red/trial14.png,,,0,16,redHorizontal,a,32,20,male,2021-02-22_15h06.55.093,exp11,2020.2.6,Win32,60,,,,,,,,,,,
,,,,,,,,,,,,,,p,1,0.640985,space,0.200005,0,190,190,73,1,9_dist_red/trial24.png,,,1,9,redHorizontal,p,32,20,male,2021-02-22_15h06.55.093,exp11,2020.2.6,Win32,60,,,,,,,,,,,
,,,,,,,,,,,,,,a,1,0.82599,space,0.17048,0,191,191,161,1,0_targ_10_dist_red/trial12.png,,,0,10,redHorizontal,a,32,20,male,2021-02-22_15h06.55.093,exp11,2020.2.6,Win32,60,,,,,,,,,,,
,,,,,,,,,,,,,,p,1,0.76298,space,0.13423,0,192,192,64,1,9_dist_red/trial15.png,,,1,9,redHorizontal,p,32,20,male,2021-02-22_15h06.55.093,exp11,2020.2.6,Win32,60,,,,,,,,,,,
,,,,,,,,,,,,,,a,1,0.973215,space,0.20021,0,193,193,103,1,0_targ_1_dist_red/trial4.png,,,0,1,redHorizontal,a,32,20,male,2021-02-22_15h06.55.093,exp11,2020.2.6,Win32,60,,,,,,,,,,,
,,,,,,,,,,,,,,p,1,0.6081,space,0.161465,0,194,194,57,1,9_dist_red/trial8.png,,,1,9,redHorizontal,p,32,20,male,2021-02-22_15h06.55.093,exp11,2020.2.6,Win32,60,,,,,,,,,,,
,,,,,,,,,,,,,,a,1,0.812715,space,0.22899,0,195,195,197,1,0_targ_16_dist_red/trial23.png,,,0,16,redHorizontal,a,32,20,male,2021-02-22_15h06.55.093,exp11,2020.2.6,Win32,60,,,,,,,,,,,
,,,,,,,,,,,,,,p,1,0.56955,space,0.167375,0,196,196,60,1,9_dist_red/trial11.png,,,1,9,redHorizontal,p,32,20,male,2021-02-22_15h06.55.093,exp11,2020.2.6,Win32,60,,,,,,,,,,,
,,,,,,,,,,,,,,p,1,0.79245,space,0.26782,0,197,197,94,1,15_dist_red/trial20.png,,,1,15,redHorizontal,p,32,20,male,2021-02-22_15h06.55.093,exp11,2020.2.6,Win32,60,,,,,,,,,,,
,,,,,,,,,,,,,,p,1,0.547835,space,0.221905,0,198,198,23,1,0_dist_red/trial24.png,,,1,0,redHorizontal,p,32,20,male,2021-02-22_15h06.55.093,exp11,2020.2.6,Win32,60,,,,,,,,,,,
,,,,,,,,,,,,,,p,1,0.65884,space,0.20115,0,199,199,52,1,9_dist_red/trial3.png,,,1,9,redHorizontal,p,32,20,male,2021-02-22_15h06.55.093,exp11,2020.2.6,Win32,60,,,,,,,,,,,
,,,,,,,,,,,,,,,,,,,,,,,,,,,,,,,32,20,male,2021-02-22_15h06.55.093,exp11,2020.2.6,Win32,60,0,0,0,1,1,conRed.xlsx,red horizontal,Look for red horizontal bar (target) and indicate if it is present or absent in the array. If red horizontal target is present press 'p' and if absent press 'a'. Press SPACE to start.,,,
,,,,,,,,,,space,21.366775,space,0.958425,p,1,1.86287,space,0.246035,0,0,0,93,1,15_dist_green/trial19.png,,,1,15,greenverival,p,32,20,male,2021-02-22_15h06.55.093,exp11,2020.2.6,Win32,60,,,,,,,,,,,
,,,,,,,,,,,,,,p,1,0.525395,space,0.18076,0,1,1,28,1,3_dist_green/trial4.png,,,1,3,greenverival,p,32,20,male,2021-02-22_15h06.55.093,exp11,2020.2.6,Win32,60,,,,,,,,,,,
,,,,,,,,,,,,,,p,1,0.515595,space,0.167,0,2,2,62,1,9_dist_green/trial13.png,,,1,9,greenverival,p,32,20,male,2021-02-22_15h06.55.093,exp11,2020.2.6,Win32,60,,,,,,,,,,,
,,,,,,,,,,,,,,p,1,0.64949,space,0.190095,0,3,3,60,1,9_dist_green/trial11.png,,,1,9,greenverival,p,32,20,male,2021-02-22_15h06.55.093,exp11,2020.2.6,Win32,60,,,,,,,,,,,
,,,,,,,,,,,,,,a,1,1.165175,space,0.217265,0,4,4,161,1,0_targ_10_dist_green/trial12.png,,,0,10,greenverival,a,32,20,male,2021-02-22_15h06.55.093,exp11,2020.2.6,Win32,60,,,,,,,,,,,
,,,,,,,,,,,,,,p,1,1.198265,space,0.168265,0,5,5,96,1,15_dist_green/trial22.png,,,1,15,greenverival,p,32,20,male,2021-02-22_15h06.55.093,exp11,2020.2.6,Win32,60,,,,,,,,,,,
,,,,,,,,,,,,,,p,1,0.650565,space,0.135675,0,6,6,59,1,9_dist_green/trial10.png,,,1,9,greenverival,p,32,20,male,2021-02-22_15h06.55.093,exp11,2020.2.6,Win32,60,,,,,,,,,,,
,,,,,,,,,,,,,,p,1,0.534275,space,0.10969,0,7,7,11,1,0_dist_green/trial12.png,,,1,0,greenverival,p,32,20,male,2021-02-22_15h06.55.093,exp11,2020.2.6,Win32,60,,,,,,,,,,,
,,,,,,,,,,,,,,a,1,0.671215,space,0.184745,0,8,8,140,1,0_targ_4_dist_green/trial6.png,,,0,4,greenverival,a,32,20,male,2021-02-22_15h06.55.093,exp11,2020.2.6,Win32,60,,,,,,,,,,,
,,,,,,,,,,,,,,a,1,1.118985,space,0.24423,0,9,9,146,1,0_targ_4_dist_green/trial22.png,,,0,4,greenverival,a,32,20,male,2021-02-22_15h06.55.093,exp11,2020.2.6,Win32,60,,,,,,,,,,,
,,,,,,,,,,,,,,a,1,1.450845,space,0.751365,0,10,10,139,1,0_targ_4_dist_green/trial15.png,,,0,4,greenverival,a,32,20,male,2021-02-22_15h06.55.093,exp11,2020.2.6,Win32,60,,,,,,,,,,,
,,,,,,,,,,,,,,p,1,0.888625,space,0.173725,0,11,11,41,1,3_dist_green/trial17.png,,,1,3,greenverival,p,32,20,male,2021-02-22_15h06.55.093,exp11,2020.2.6,Win32,60,,,,,,,,,,,
,,,,,,,,,,,,,,p,1,1.535985,space,0.19844,0,12,12,30,1,3_dist_green/trial6.png,,,1,3,greenverival,p,32,20,male,2021-02-22_15h06.55.093,exp11,2020.2.6,Win32,60,,,,,,,,,,,
,,,,,,,,,,,,,,p,1,0.819425,space,0.202335,0,13,13,2,1,0_dist_green/trial3.png,,,1,0,greenverival,p,32,20,male,2021-02-22_15h06.55.093,exp11,2020.2.6,Win32,60,,,,,,,,,,,
,,,,,,,,,,,,,,a,1,0.647175,space,0.17605,0,14,14,119,1,0_targ_1_dist_green/trial20.png,,,0,1,greenverival,a,32,20,male,2021-02-22_15h06.55.093,exp11,2020.2.6,Win32,60,,,,,,,,,,,
,,,,,,,,,,,,,,a,1,1.546745,space,0.288185,0,15,15,191,1,0_targ_16_dist_green/trial17.png,,,0,16,greenverival,a,32,20,male,2021-02-22_15h06.55.093,exp11,2020.2.6,Win32,60,,,,,,,,,,,
,,,,,,,,,,,,,,p,1,0.879165,space,0.27049,0,16,16,58,1,9_dist_green/trial9.png,,,1,9,greenverival,p,32,20,male,2021-02-22_15h06.55.093,exp11,2020.2.6,Win32,60,,,,,,,,,,,
,,,,,,,,,,,,,,p,1,5.822345,space,0.250715,0,17,17,55,1,9_dist_green/trial6.png,,,1,9,greenverival,p,32,20,male,2021-02-22_15h06.55.093,exp11,2020.2.6,Win32,60,,,,,,,,,,,
,,,,,,,,,,,,,,p,1,0.59008,space,0.25078,0,18,18,49,1,3_dist_green/trial25.png,,,1,3,greenverival,p,32,20,male,2021-02-22_15h06.55.093,exp11,2020.2.6,Win32,60,,,,,,,,,,,
,,,,,,,,,,,,,,p,1,0.496865,space,0.141225,0,19,19,16,1,0_dist_green/trial17.png,,,1,0,greenverival,p,32,20,male,2021-02-22_15h06.55.093,exp11,2020.2.6,Win32,60,,,,,,,,,,,
,,,,,,,,,,,,,,a,1,1.001455,space,0.217405,0,20,20,157,1,0_targ_10_dist_green/trial8.png,,,0,10,greenverival,a,32,20,male,2021-02-22_15h06.55.093,exp11,2020.2.6,Win32,60,,,,,,,,,,,
,,,,,,,,,,,,,,p,1,3.08666,space,0.102115,0,21,21,27,1,3_dist_green/trial3.png,,,1,3,greenverival,p,32,20,male,2021-02-22_15h06.55.093,exp11,2020.2.6,Win32,60,,,,,,,,,,,
,,,,,,,,,,,,,,a,1,0.673295,space,0.220955,0,22,22,138,1,0_targ_4_dist_green/trial14.png,,,0,4,greenverival,a,32,20,male,2021-02-22_15h06.55.093,exp11,2020.2.6,Win32,60,,,,,,,,,,,
,,,,,,,,,,,,,,a,1,1.84793,space,0.185275,0,23,23,160,1,0_targ_10_dist_green/trial11.png,,,0,10,greenverival,a,32,20,male,2021-02-22_15h06.55.093,exp11,2020.2.6,Win32,60,,,,,,,,,,,
,,,,,,,,,,,,,,a,1,3.4216,space,0.111005,0,24,24,194,1,0_targ_16_dist_green/trial20.png,,,0,16,greenverival,a,32,20,male,2021-02-22_15h06.55.093,exp11,2020.2.6,Win32,60,,,,,,,,,,,
,,,,,,,,,,,,,,a,1,1.07337,space,0.374205,0,25,25,114,1,0_targ_1_dist_green/trial15.png,,,0,1,greenverival,a,32,20,male,2021-02-22_15h06.55.093,exp11,2020.2.6,Win32,60,,,,,,,,,,,
,,,,,,,,,,,,,,a,1,1.605145,space,0.305295,0,26,26,183,1,0_targ_16_dist_green/trial9.png,,,0,16,greenverival,a,32,20,male,2021-02-22_15h06.55.093,exp11,2020.2.6,Win32,60,,,,,,,,,,,
,,,,,,,,,,,,,,p,1,0.59759,space,0.17101,0,27,27,36,1,3_dist_green/trial12.png,,,1,3,greenverival,p,32,20,male,2021-02-22_15h06.55.093,exp11,2020.2.6,Win32,60,,,,,,,,,,,
,,,,,,,,,,,,,,a,1,0.92728,space,0.154205,0,28,28,172,1,0_targ_10_dist_green/trial23.png,,,0,10,greenverival,a,32,20,male,2021-02-22_15h06.55.093,exp11,2020.2.6,Win32,60,,,,,,,,,,,
,,,,,,,,,,,,,,a,0,0.581135,space,0.50076,0,29,29,24,1,0_dist_green/trial25.png,,,1,0,greenverival,p,32,20,male,2021-02-22_15h06.55.093,exp11,2020.2.6,Win32,60,,,,,,,,,,,
,,,,,,,,,,,,,,a,0,0.57412,space,0.609125,0,30,30,37,1,3_dist_green/trial13.png,,,1,3,greenverival,p,32,20,male,2021-02-22_15h06.55.093,exp11,2020.2.6,Win32,60,,,,,,,,,,,
,,,,,,,,,,,,,,a,1,1.542735,space,0.343225,0,31,31,181,1,0_targ_16_dist_green/trial7.png,,,0,16,greenverival,a,32,20,male,2021-02-22_15h06.55.093,exp11,2020.2.6,Win32,60,,,,,,,,,,,
,,,,,,,,,,,,,,p,1,1.04344,space,0.23048,0,32,32,50,1,9_dist_green/trial1.png,,,1,9,greenverival,p,32,20,male,2021-02-22_15h06.55.093,exp11,2020.2.6,Win32,60,,,,,,,,,,,
,,,,,,,,,,,,,,a,1,0.790735,space,1.01681,0,33,33,115,1,0_targ_1_dist_green/trial6.png,,,0,1,greenverival,a,32,20,male,2021-02-22_15h06.55.093,exp11,2020.2.6,Win32,60,,,,,,,,,,,
,,,,,,,,,,,,,,p,1,0.68492,space,0.1668,0,34,34,86,1,15_dist_green/trial12.png,,,1,15,greenverival,p,32,20,male,2021-02-22_15h06.55.093,exp11,2020.2.6,Win32,60,,,,,,,,,,,
,,,,,,,,,,,,,,p,1,0.591505,space,0.110605,0,35,35,68,1,9_dist_green/trial19.png,,,1,9,greenverival,p,32,20,male,2021-02-22_15h06.55.093,exp11,2020.2.6,Win32,60,,,,,,,,,,,
,,,,,,,,,,,,,,a,1,0.75054,space,0.13632,0,36,36,153,1,0_targ_10_dist_green/trial4.png,,,0,10,greenverival,a,32,20,male,2021-02-22_15h06.55.093,exp11,2020.2.6,Win32,60,,,,,,,,,,,
,,,,,,,,,,,,,,p,1,0.67474,space,0.15275,0,37,37,56,1,9_dist_green/trial7.png,,,1,9,greenverival,p,32,20,male,2021-02-22_15h06.55.093,exp11,2020.2.6,Win32,60,,,,,,,,,,,
,,,,,,,,,,,,,,a,1,0.726445,space,0.1789,0,38,38,154,1,0_targ_10_dist_green/trial5.png,,,0,10,greenverival,a,32,20,male,2021-02-22_15h06.55.093,exp11,2020.2.6,Win32,60,,,,,,,,,,,
,,,,,,,,,,,,,,p,1,0.868395,space,0.223485,0,39,39,53,1,9_dist_green/trial4.png,,,1,9,greenverival,p,32,20,male,2021-02-22_15h06.55.093,exp11,2020.2.6,Win32,60,,,,,,,,,,,
,,,,,,,,,,,,,,a,1,0.73176,space,0.195225,0,40,40,164,1,0_targ_10_dist_green/trial15.png,,,0,10,greenverival,a,32,20,male,2021-02-22_15h06.55.093,exp11,2020.2.6,Win32,60,,,,,,,,,,,
,,,,,,,,,,,,,,a,1,0.946185,space,0.13359,0,41,41,129,1,0_targ_4_dist_green/trial5.png,,,0,4,greenverival,a,32,20,male,2021-02-22_15h06.55.093,exp11,2020.2.6,Win32,60,,,,,,,,,,,
,,,,,,,,,,,,,,a,1,1.123955,space,0.13458,0,42,42,122,1,0_targ_1_dist_green/trial23.png,,,0,1,greenverival,a,32,20,male,2021-02-22_15h06.55.093,exp11,2020.2.6,Win32,60,,,,,,,,,,,
,,,,,,,,,,,,,,a,1,0.685225,space,0.157355,0,43,43,130,1,0_targ_4_dist_green/trial6.png,,,0,4,greenverival,a,32,20,male,2021-02-22_15h06.55.093,exp11,2020.2.6,Win32,60,,,,,,,,,,,
,,,,,,,,,,,,,,a,1,1.00374,space,0.1844,0,44,44,137,1,0_targ_4_dist_green/trial13.png,,,0,4,greenverival,a,32,20,male,2021-02-22_15h06.55.093,exp11,2020.2.6,Win32,60,,,,,,,,,,,
,,,,,,,,,,,,,,p,1,0.847515,space,0.176305,0,45,45,40,1,3_dist_green/trial16.png,,,1,3,greenverival,p,32,20,male,2021-02-22_15h06.55.093,exp11,2020.2.6,Win32,60,,,,,,,,,,,
,,,,,,,,,,,,,,a,1,0.925185,space,0.17583,0,46,46,162,1,0_targ_10_dist_green/trial13.png,,,0,10,greenverival,a,32,20,male,2021-02-22_15h06.55.093,exp11,2020.2.6,Win32,60,,,,,,,,,,,
,,,,,,,,,,,,,,a,1,1.103585,space,0.133895,0,47,47,176,1,0_targ_16_dist_green/trial2.png,,,0,16,greenverival,a,32,20,male,2021-02-22_15h06.55.093,exp11,2020.2.6,Win32,60,,,,,,,,,,,
,,,,,,,,,,,,,,a,1,0.7207,space,0.11842,0,48,48,187,1,0_targ_16_dist_green/trial13.png,,,0,16,greenverival,a,32,20,male,2021-02-22_15h06.55.093,exp11,2020.2.6,Win32,60,,,,,,,,,,,
,,,,,,,,,,,,,,a,1,0.92147,space,0.118885,0,49,49,133,1,0_targ_4_dist_green/trial9.png,,,0,4,greenverival,a,32,20,male,2021-02-22_15h06.55.093,exp11,2020.2.6,Win32,60,,,,,,,,,,,
,,,,,,,,,,,,,,p,1,0.634085,space,0.15854,0,50,50,0,1,0_dist_green/trial1.png,,,1,0,greenverival,p,32,20,male,2021-02-22_15h06.55.093,exp11,2020.2.6,Win32,60,,,,,,,,,,,
,,,,,,,,,,,,,,a,1,0.73108,space,0.168005,0,51,51,171,1,0_targ_10_dist_green/trial22.png,,,0,10,greenverival,a,32,20,male,2021-02-22_15h06.55.093,exp11,2020.2.6,Win32,60,,,,,,,,,,,
,,,,,,,,,,,,,,a,1,1.08878,space,0.167865,0,52,52,149,1,0_targ_4_dist_green/trial25.png,,,0,4,greenverival,a,32,20,male,2021-02-22_15h06.55.093,exp11,2020.2.6,Win32,60,,,,,,,,,,,
,,,,,,,,,,,,,,p,1,1.41594,space,0.181885,0,53,53,99,1,15_dist_green/trial25.png,,,1,15,greenverival,p,32,20,male,2021-02-22_15h06.55.093,exp11,2020.2.6,Win32,60,,,,,,,,,,,
,,,,,,,,,,,,,,a,1,0.96351,space,0.13494,0,54,54,156,1,0_targ_10_dist_green/trial7.png,,,0,10,greenverival,a,32,20,male,2021-02-22_15h06.55.093,exp11,2020.2.6,Win32,60,,,,,,,,,,,
,,,,,,,,,,,,,,p,1,0.591595,space,0.22425,0,55,55,4,1,0_dist_green/trial5.png,,,1,0,greenverival,p,32,20,male,2021-02-22_15h06.55.093,exp11,2020.2.6,Win32,60,,,,,,,,,,,
,,,,,,,,,,,,,,p,1,0.626035,space,0.1877,0,56,56,47,1,3_dist_green/trial23.png,,,1,3,greenverival,p,32,20,male,2021-02-22_15h06.55.093,exp11,2020.2.6,Win32,60,,,,,,,,,,,
,,,,,,,,,,,,,,a,1,0.703375,space,0.16669,0,57,57,100,1,0_targ_1_dist_green/trial1.png,,,0,1,greenverival,a,32,20,male,2021-02-22_15h06.55.093,exp11,2020.2.6,Win32,60,,,,,,,,,,,
,,,,,,,,,,,,,,a,1,0.888195,space,0.18362,0,58,58,170,1,0_targ_10_dist_green/trial21.png,,,0,10,greenverival,a,32,20,male,2021-02-22_15h06.55.093,exp11,2020.2.6,Win32,60,,,,,,,,,,,
,,,,,,,,,,,,,,p,1,0.76753,space,0.13864,0,59,59,97,1,15_dist_green/trial23.png,,,1,15,greenverival,p,32,20,male,2021-02-22_15h06.55.093,exp11,2020.2.6,Win32,60,,,,,,,,,,,
,,,,,,,,,,,,,,p,1,0.53481,space,0.145855,0,60,60,23,1,0_dist_green/trial24.png,,,1,0,greenverival,p,32,20,male,2021-02-22_15h06.55.093,exp11,2020.2.6,Win32,60,,,,,,,,,,,
,,,,,,,,,,,,,,p,1,0.823275,space,0.290825,0,61,61,52,1,9_dist_green/trial3.png,,,1,9,greenverival,p,32,20,male,2021-02-22_15h06.55.093,exp11,2020.2.6,Win32,60,,,,,,,,,,,
,,,,,,,,,,,,,,p,1,0.496835,space,0.20883,0,62,62,8,1,0_dist_green/trial9.png,,,1,0,greenverival,p,32,20,male,2021-02-22_15h06.55.093,exp11,2020.2.6,Win32,60,,,,,,,,,,,
,,,,,,,,,,,,,,a,1,0.72711,space,0.100085,0,63,63,193,1,0_targ_16_dist_green/trial19.png,,,0,16,greenverival,a,32,20,male,2021-02-22_15h06.55.093,exp11,2020.2.6,Win32,60,,,,,,,,,,,
,,,,,,,,,,,,,,a,1,0.57136,space,0.15322,0,64,64,105,1,0_targ_1_dist_green/trial6.png,,,0,1,greenverival,a,32,20,male,2021-02-22_15h06.55.093,exp11,2020.2.6,Win32,60,,,,,,,,,,,
,,,,,,,,,,,,,,p,1,0.763635,space,0.15779,0,65,65,33,1,3_dist_green/trial9.png,,,1,3,greenverival,p,32,20,male,2021-02-22_15h06.55.093,exp11,2020.2.6,Win32,60,,,,,,,,,,,
,,,,,,,,,,,,,,a,1,0.888655,space,0.14037,0,66,66,195,1,0_targ_16_dist_green/trial21.png,,,0,16,greenverival,a,32,20,male,2021-02-22_15h06.55.093,exp11,2020.2.6,Win32,60,,,,,,,,,,,
,,,,,,,,,,,,,,a,1,1.00288,space,0.11911,0,67,67,134,1,0_targ_4_dist_green/trial10.png,,,0,4,greenverival,a,32,20,male,2021-02-22_15h06.55.093,exp11,2020.2.6,Win32,60,,,,,,,,,,,
,,,,,,,,,,,,,,p,1,0.57059,space,0.35703,0,68,68,1,1,0_dist_green/trial2.png,,,1,0,greenverival,p,32,20,male,2021-02-22_15h06.55.093,exp11,2020.2.6,Win32,60,,,,,,,,,,,
,,,,,,,,,,,,,,a,0,0.7329,space,0.56265,0,69,69,85,1,15_dist_green/trial11.png,,,1,15,greenverival,p,32,20,male,2021-02-22_15h06.55.093,exp11,2020.2.6,Win32,60,,,,,,,,,,,
,,,,,,,,,,,,,,a,1,0.69733,space,0.122285,0,70,70,168,1,0_targ_10_dist_green/trial19.png,,,0,10,greenverival,a,32,20,male,2021-02-22_15h06.55.093,exp11,2020.2.6,Win32,60,,,,,,,,,,,
,,,,,,,,,,,,,,a,1,0.67371,space,0.14405,0,71,71,152,1,0_targ_10_dist_green/trial3.png,,,0,10,greenverival,a,32,20,male,2021-02-22_15h06.55.093,exp11,2020.2.6,Win32,60,,,,,,,,,,,
,,,,,,,,,,,,,,a,0,0.753495,space,0.03862,0,72,72,88,1,15_dist_green/trial14.png,,,1,15,greenverival,p,32,20,male,2021-02-22_15h06.55.093,exp11,2020.2.6,Win32,60,,,,,,,,,,,
,,,,,,,,,,,,,,a,1,2.21765,space,0.067195,0,73,73,131,1,0_targ_4_dist_green/trial7.png,,,0,4,greenverival,a,32,20,male,2021-02-22_15h06.55.093,exp11,2020.2.6,Win32,60,,,,,,,,,,,
,,,,,,,,,,,,,,a,1,1.00001,space,0.13774,0,74,74,197,1,0_targ_16_dist_green/trial23.png,,,0,16,greenverival,a,32,20,male,2021-02-22_15h06.55.093,exp11,2020.2.6,Win32,60,,,,,,,,,,,
,,,,,,,,,,,,,,p,1,0.89692,space,0.086055,0,75,75,3,1,0_dist_green/trial4.png,,,1,0,greenverival,p,32,20,male,2021-02-22_15h06.55.093,exp11,2020.2.6,Win32,60,,,,,,,,,,,
,,,,,,,,,,,,,,a,1,2.80784,space,0.057675,0,76,76,144,1,0_targ_4_dist_green/trial20.png,,,0,4,greenverival,a,32,20,male,2021-02-22_15h06.55.093,exp11,2020.2.6,Win32,60,,,,,,,,,,,
,,,,,,,,,,,,,,p,1,1.007645,space,0.23505,0,77,77,13,1,0_dist_green/trial14.png,,,1,0,greenverival,p,32,20,male,2021-02-22_15h06.55.093,exp11,2020.2.6,Win32,60,,,,,,,,,,,
,,,,,,,,,,,,,,a,1,0.817735,space,0.080195,0,78,78,116,1,0_targ_1_dist_green/trial17.png,,,0,1,greenverival,a,32,20,male,2021-02-22_15h06.55.093,exp11,2020.2.6,Win32,60,,,,,,,,,,,
,,,,,,,,,,,,,,a,0,0.5303,space,0.569005,0,79,79,5,1,0_dist_green/trial6.png,,,1,0,greenverival,p,32,20,male,2021-02-22_15h06.55.093,exp11,2020.2.6,Win32,60,,,,,,,,,,,
,,,,,,,,,,,,,,a,0,0.801395,space,1.419435,0,80,80,26,1,3_dist_green/trial2.png,,,1,3,greenverival,p,32,20,male,2021-02-22_15h06.55.093,exp11,2020.2.6,Win32,60,,,,,,,,,,,
,,,,,,,,,,,,,,p,0,1.23168,space,1.544635,0,81,81,135,1,0_targ_4_dist_green/trial11.png,,,0,4,greenverival,a,32,20,male,2021-02-22_15h06.55.093,exp11,2020.2.6,Win32,60,,,,,,,,,,,
,,,,,,,,,,,,,,p,1,2.02226,space,0.350615,0,82,82,90,1,15_dist_green/trial16.png,,,1,15,greenverival,p,32,20,male,2021-02-22_15h06.55.093,exp11,2020.2.6,Win32,60,,,,,,,,,,,
,,,,,,,,,,,,,,a,1,1.448195,space,0.14956,0,83,83,112,1,0_targ_1_dist_green/trial13.png,,,0,1,greenverival,a,32,20,male,2021-02-22_15h06.55.093,exp11,2020.2.6,Win32,60,,,,,,,,,,,
,,,,,,,,,,,,,,a,1,2.66906,space,0.106,0,84,84,159,1,0_targ_10_dist_green/trial10.png,,,0,10,greenverival,a,32,20,male,2021-02-22_15h06.55.093,exp11,2020.2.6,Win32,60,,,,,,,,,,,
,,,,,,,,,,,,,,a,1,1.26726,space,0.150295,0,85,85,188,1,0_targ_16_dist_green/trial14.png,,,0,16,greenverival,a,32,20,male,2021-02-22_15h06.55.093,exp11,2020.2.6,Win32,60,,,,,,,,,,,
,,,,,,,,,,,,,,p,1,0.82094,space,0.135345,0,86,86,32,1,3_dist_green/trial8.png,,,1,3,greenverival,p,32,20,male,2021-02-22_15h06.55.093,exp11,2020.2.6,Win32,60,,,,,,,,,,,
,,,,,,,,,,,,,,p,1,0.84704,space,0.1431,0,87,87,25,1,3_dist_green/trial1.png,,,1,3,greenverival,p,32,20,male,2021-02-22_15h06.55.093,exp11,2020.2.6,Win32,60,,,,,,,,,,,
,,,,,,,,,,,,,,a,1,1.755465,space,0.143695,0,88,88,199,1,0_targ_16_dist_green/trial25.png,,,0,16,greenverival,a,32,20,male,2021-02-22_15h06.55.093,exp11,2020.2.6,Win32,60,,,,,,,,,,,
,,,,,,,,,,,,,,a,1,1.12564,space,0.146475,0,89,89,192,1,0_targ_16_dist_green/trial18.png,,,0,16,greenverival,a,32,20,male,2021-02-22_15h06.55.093,exp11,2020.2.6,Win32,60,,,,,,,,,,,
,,,,,,,,,,,,,,a,1,0.85953,space,0.14532,0,90,90,141,1,0_targ_4_dist_green/trial17.png,,,0,4,greenverival,a,32,20,male,2021-02-22_15h06.55.093,exp11,2020.2.6,Win32,60,,,,,,,,,,,
,,,,,,,,,,,,,,p,1,0.930755,space,0.113015,0,91,91,78,1,15_dist_green/trial4.png,,,1,15,greenverival,p,32,20,male,2021-02-22_15h06.55.093,exp11,2020.2.6,Win32,60,,,,,,,,,,,
,,,,,,,,,,,,,,p,1,1.026105,space,0.075555,0,92,92,45,1,3_dist_green/trial21.png,,,1,3,greenverival,p,32,20,male,2021-02-22_15h06.55.093,exp11,2020.2.6,Win32,60,,,,,,,,,,,
,,,,,,,,,,,,,,p,1,0.618405,space,0.087025,0,93,93,21,1,0_dist_green/trial22.png,,,1,0,greenverival,p,32,20,male,2021-02-22_15h06.55.093,exp11,2020.2.6,Win32,60,,,,,,,,,,,
,,,,,,,,,,,,,,a,1,0.734955,space,0.07502,0,94,94,118,1,0_targ_1_dist_green/trial19.png,,,0,1,greenverival,a,32,20,male,2021-02-22_15h06.55.093,exp11,2020.2.6,Win32,60,,,,,,,,,,,
,,,,,,,,,,,,,,p,1,0.76823,space,0.093395,0,95,95,74,1,9_dist_green/trial25.png,,,1,9,greenverival,p,32,20,male,2021-02-22_15h06.55.093,exp11,2020.2.6,Win32,60,,,,,,,,,,,
,,,,,,,,,,,,,,a,1,0.899935,space,0.12687,0,96,96,126,1,0_targ_4_dist_green/trial2.png,,,0,4,greenverival,a,32,20,male,2021-02-22_15h06.55.093,exp11,2020.2.6,Win32,60,,,,,,,,,,,
,,,,,,,,,,,,,,a,1,1.02292,space,0.124075,0,97,97,111,1,0_targ_1_dist_green/trial12.png,,,0,1,greenverival,a,32,20,male,2021-02-22_15h06.55.093,exp11,2020.2.6,Win32,60,,,,,,,,,,,
,,,,,,,,,,,,,,a,1,0.63594,space,0.242245,0,98,98,108,1,0_targ_1_dist_green/trial9.png,,,0,1,greenverival,a,32,20,male,2021-02-22_15h06.55.093,exp11,2020.2.6,Win32,60,,,,,,,,,,,
,,,,,,,,,,,,,,p,1,0.839695,space,0.376475,0,99,99,63,1,9_dist_green/trial14.png,,,1,9,greenverival,p,32,20,male,2021-02-22_15h06.55.093,exp11,2020.2.6,Win32,60,,,,,,,,,,,
,,,,,,,,,,,,,,a,1,0.649405,space,0.15871,0,100,100,102,1,0_targ_1_dist_green/trial3.png,,,0,1,greenverival,a,32,20,male,2021-02-22_15h06.55.093,exp11,2020.2.6,Win32,60,,,,,,,,,,,
,,,,,,,,,,,,,,a,1,0.954465,space,0.157395,0,101,101,121,1,0_targ_1_dist_green/trial22.png,,,0,1,greenverival,a,32,20,male,2021-02-22_15h06.55.093,exp11,2020.2.6,Win32,60,,,,,,,,,,,
,,,,,,,,,,,,,,p,1,1.44825,space,0.105745,0,102,102,22,1,0_dist_green/trial23.png,,,1,0,greenverival,p,32,20,male,2021-02-22_15h06.55.093,exp11,2020.2.6,Win32,60,,,,,,,,,,,
,,,,,,,,,,,,,,a,1,0.789695,space,0.12403,0,103,103,178,1,0_targ_16_dist_green/trial4.png,,,0,16,greenverival,a,32,20,male,2021-02-22_15h06.55.093,exp11,2020.2.6,Win32,60,,,,,,,,,,,
,,,,,,,,,,,,,,a,1,3.39762,space,0.07287,0,104,104,123,1,0_targ_1_dist_green/trial24.png,,,0,1,greenverival,a,32,20,male,2021-02-22_15h06.55.093,exp11,2020.2.6,Win32,60,,,,,,,,,,,
,,,,,,,,,,,,,,p,1,1.548445,space,0.20791,0,105,105,89,1,15_dist_green/trial15.png,,,1,15,greenverival,p,32,20,male,2021-02-22_15h06.55.093,exp11,2020.2.6,Win32,60,,,,,,,,,,,
,,,,,,,,,,,,,,p,1,0.902715,space,0.21259,0,106,106,73,1,9_dist_green/trial24.png,,,1,9,greenverival,p,32,20,male,2021-02-22_15h06.55.093,exp11,2020.2.6,Win32,60,,,,,,,,,,,
,,,,,,,,,,,,,,a,1,1.616845,space,0.485635,0,107,107,136,1,0_targ_4_dist_green/trial12.png,,,0,4,greenverival,a,32,20,male,2021-02-22_15h06.55.093,exp11,2020.2.6,Win32,60,,,,,,,,,,,
,,,,,,,,,,,,,,a,1,0.54251,space,0.179915,0,108,108,106,1,0_targ_1_dist_green/trial7.png,,,0,1,greenverival,a,32,20,male,2021-02-22_15h06.55.093,exp11,2020.2.6,Win32,60,,,,,,,,,,,
,,,,,,,,,,,,,,a,1,0.430295,space,0.143385,0,109,109,107,1,0_targ_1_dist_green/trial8.png,,,0,1,greenverival,a,32,20,male,2021-02-22_15h06.55.093,exp11,2020.2.6,Win32,60,,,,,,,,,,,
,,,,,,,,,,,,,,p,1,0.64618,space,0.255915,0,110,110,67,1,9_dist_green/trial18.png,,,1,9,greenverival,p,32,20,male,2021-02-22_15h06.55.093,exp11,2020.2.6,Win32,60,,,,,,,,,,,
,,,,,,,,,,,,,,a,1,0.972715,space,0.07542,0,111,111,143,1,0_targ_4_dist_green/trial19.png,,,0,4,greenverival,a,32,20,male,2021-02-22_15h06.55.093,exp11,2020.2.6,Win32,60,,,,,,,,,,,
,,,,,,,,,,,,,,a,1,1.83257,space,0.090615,0,112,112,174,1,0_targ_10_dist_green/trial25.png,,,0,10,greenverival,a,32,20,male,2021-02-22_15h06.55.093,exp11,2020.2.6,Win32,60,,,,,,,,,,,
,,,,,,,,,,,,,,a,1,0.773215,space,0.083075,0,113,113,150,1,0_targ_10_dist_green/trial1.png,,,0,10,greenverival,a,32,20,male,2021-02-22_15h06.55.093,exp11,2020.2.6,Win32,60,,,,,,,,,,,
,,,,,,,,,,,,,,a,1,0.830015,space,0.12207,0,114,114,185,1,0_targ_16_dist_green/trial11.png,,,0,16,greenverival,a,32,20,male,2021-02-22_15h06.55.093,exp11,2020.2.6,Win32,60,,,,,,,,,,,
,,,,,,,,,,,,,,a,0,0.66593,space,2.73704,0,115,115,70,1,9_dist_green/trial21.png,,,1,9,greenverival,p,32,20,male,2021-02-22_15h06.55.093,exp11,2020.2.6,Win32,60,,,,,,,,,,,
,,,,,,,,,,,,,,a,0,0.821765,space,1.840175,0,116,116,83,1,15_dist_green/trial9.png,,,1,15,greenverival,p,32,20,male,2021-02-22_15h06.55.093,exp11,2020.2.6,Win32,60,,,,,,,,,,,
,,,,,,,,,,,,,,p,1,0.950225,space,0.203115,0,117,117,43,1,3_dist_green/trial19.png,,,1,3,greenverival,p,32,20,male,2021-02-22_15h06.55.093,exp11,2020.2.6,Win32,60,,,,,,,,,,,
,,,,,,,,,,,,,,a,1,1.346095,space,0.142115,0,118,118,177,1,0_targ_16_dist_green/trial3.png,,,0,16,greenverival,a,32,20,male,2021-02-22_15h06.55.093,exp11,2020.2.6,Win32,60,,,,,,,,,,,
,,,,,,,,,,,,,,p,1,0.780025,space,0.124675,0,119,119,6,1,0_dist_green/trial7.png,,,1,0,greenverival,p,32,20,male,2021-02-22_15h06.55.093,exp11,2020.2.6,Win32,60,,,,,,,,,,,
,,,,,,,,,,,,,,p,1,0.815835,space,0.12073,0,120,120,69,1,9_dist_green/trial20.png,,,1,9,greenverival,p,32,20,male,2021-02-22_15h06.55.093,exp11,2020.2.6,Win32,60,,,,,,,,,,,
,,,,,,,,,,,,,,a,1,0.74515,space,0.14009,0,121,121,147,1,0_targ_4_dist_green/trial23.png,,,0,4,greenverival,a,32,20,male,2021-02-22_15h06.55.093,exp11,2020.2.6,Win32,60,,,,,,,,,,,
,,,,,,,,,,,,,,p,1,0.98339,space,0.255585,0,122,122,17,1,0_dist_green/trial18.png,,,1,0,greenverival,p,32,20,male,2021-02-22_15h06.55.093,exp11,2020.2.6,Win32,60,,,,,,,,,,,
,,,,,,,,,,,,,,a,1,0.732065,space,0.18129,0,123,123,127,1,0_targ_4_dist_green/trial3.png,,,0,4,greenverival,a,32,20,male,2021-02-22_15h06.55.093,exp11,2020.2.6,Win32,60,,,,,,,,,,,
,,,,,,,,,,,,,,p,1,1.19981,space,0.137445,0,124,124,46,1,3_dist_green/trial22.png,,,1,3,greenverival,p,32,20,male,2021-02-22_15h06.55.093,exp11,2020.2.6,Win32,60,,,,,,,,,,,
,,,,,,,,,,,,,,p,1,1.04155,space,0.153845,0,125,125,34,1,3_dist_green/trial10.png,,,1,3,greenverival,p,32,20,male,2021-02-22_15h06.55.093,exp11,2020.2.6,Win32,60,,,,,,,,,,,
,,,,,,,,,,,,,,p,1,0.73599,space,0.112075,0,126,126,35,1,3_dist_green/trial11.png,,,1,3,greenverival,p,32,20,male,2021-02-22_15h06.55.093,exp11,2020.2.6,Win32,60,,,,,,,,,,,
,,,,,,,,,,,,,,a,1,3.168,space,0.25895,0,127,127,179,1,0_targ_16_dist_green/trial5.png,,,0,16,greenverival,a,32,20,male,2021-02-22_15h06.55.093,exp11,2020.2.6,Win32,60,,,,,,,,,,,
,,,,,,,,,,,,,,p,0,1.26538,space,0.417505,0,128,128,182,1,0_targ_16_dist_green/trial8.png,,,0,16,greenverival,a,32,20,male,2021-02-22_15h06.55.093,exp11,2020.2.6,Win32,60,,,,,,,,,,,
,,,,,,,,,,,,,,a,1,1.7893,space,0.175955,0,129,129,189,1,0_targ_16_dist_green/trial15.png,,,0,16,greenverival,a,32,20,male,2021-02-22_15h06.55.093,exp11,2020.2.6,Win32,60,,,,,,,,,,,
,,,,,,,,,,,,,,p,1,0.950805,space,0.094745,0,130,130,31,1,3_dist_green/trial7.png,,,1,3,greenverival,p,32,20,male,2021-02-22_15h06.55.093,exp11,2020.2.6,Win32,60,,,,,,,,,,,
,,,,,,,,,,,,,,a,1,2.17944,space,0.069285,0,131,131,167,1,0_targ_10_dist_green/trial18.png,,,0,10,greenverival,a,32,20,male,2021-02-22_15h06.55.093,exp11,2020.2.6,Win32,60,,,,,,,,,,,
,,,,,,,,,,,,,,p,1,1.15673,space,0.23008,0,132,132,42,1,3_dist_green/trial18.png,,,1,3,greenverival,p,32,20,male,2021-02-22_15h06.55.093,exp11,2020.2.6,Win32,60,,,,,,,,,,,
,,,,,,,,,,,,,,a,1,1.400285,space,0.65945,0,133,133,151,1,0_targ_10_dist_green/trial2.png,,,0,10,greenverival,a,32,20,male,2021-02-22_15h06.55.093,exp11,2020.2.6,Win32,60,,,,,,,,,,,
,,,,,,,,,,,,,,a,1,0.774785,space,0.18612,0,134,134,142,1,0_targ_4_dist_green/trial18.png,,,0,4,greenverival,a,32,20,male,2021-02-22_15h06.55.093,exp11,2020.2.6,Win32,60,,,,,,,,,,,
,,,,,,,,,,,,,,a,1,0.549655,space,0.145115,0,135,135,148,1,0_targ_4_dist_green/trial24.png,,,0,4,greenverival,a,32,20,male,2021-02-22_15h06.55.093,exp11,2020.2.6,Win32,60,,,,,,,,,,,
,,,,,,,,,,,,,,a,1,0.649605,space,0.16478,0,136,136,128,1,0_targ_4_dist_green/trial4.png,,,0,4,greenverival,a,32,20,male,2021-02-22_15h06.55.093,exp11,2020.2.6,Win32,60,,,,,,,,,,,
,,,,,,,,,,,,,,p,1,0.62137,space,0.136655,0,137,137,94,1,15_dist_green/trial20.png,,,1,15,greenverival,p,32,20,male,2021-02-22_15h06.55.093,exp11,2020.2.6,Win32,60,,,,,,,,,,,
,,,,,,,,,,,,,,p,1,2.203035,space,0.060735,0,138,138,75,1,15_dist_green/trial1.png,,,1,15,greenverival,p,32,20,male,2021-02-22_15h06.55.093,exp11,2020.2.6,Win32,60,,,,,,,,,,,
,,,,,,,,,,,,,,p,1,0.87157,space,0.17092,0,139,139,95,1,15_dist_green/trial21.png,,,1,15,greenverival,p,32,20,male,2021-02-22_15h06.55.093,exp11,2020.2.6,Win32,60,,,,,,,,,,,
,,,,,,,,,,,,,,p,1,0.558305,space,0.077095,0,140,140,29,1,3_dist_green/trial5.png,,,1,3,greenverival,p,32,20,male,2021-02-22_15h06.55.093,exp11,2020.2.6,Win32,60,,,,,,,,,,,
,,,,,,,,,,,,,,p,1,0.641995,space,0.124315,0,141,141,57,1,9_dist_green/trial8.png,,,1,9,greenverival,p,32,20,male,2021-02-22_15h06.55.093,exp11,2020.2.6,Win32,60,,,,,,,,,,,
,,,,,,,,,,,,,,a,1,0.678725,space,0.086875,0,142,142,120,1,0_targ_1_dist_green/trial21.png,,,0,1,greenverival,a,32,20,male,2021-02-22_15h06.55.093,exp11,2020.2.6,Win32,60,,,,,,,,,,,
,,,,,,,,,,,,,,p,1,0.995895,space,0.28495,0,143,143,82,1,15_dist_green/trial8.png,,,1,15,greenverival,p,32,20,male,2021-02-22_15h06.55.093,exp11,2020.2.6,Win32,60,,,,,,,,,,,
,,,,,,,,,,,,,,a,1,0.684065,space,0.106195,0,144,144,125,1,0_targ_4_dist_green/trial1.png,,,0,4,greenverival,a,32,20,male,2021-02-22_15h06.55.093,exp11,2020.2.6,Win32,60,,,,,,,,,,,
,,,,,,,,,,,,,,a,1,1.025195,space,1.012205,0,145,145,155,1,0_targ_10_dist_green/trial6.png,,,0,10,greenverival,a,32,20,male,2021-02-22_15h06.55.093,exp11,2020.2.6,Win32,60,,,,,,,,,,,
,,,,,,,,,,,,,,p,1,1.320725,space,0.15071,0,146,146,92,1,15_dist_green/trial18.png,,,1,15,greenverival,p,32,20,male,2021-02-22_15h06.55.093,exp11,2020.2.6,Win32,60,,,,,,,,,,,
,,,,,,,,,,,,,,p,1,0.496575,space,0.13429,0,147,147,7,1,0_dist_green/trial8.png,,,1,0,greenverival,p,32,20,male,2021-02-22_15h06.55.093,exp11,2020.2.6,Win32,60,,,,,,,,,,,
,,,,,,,,,,,,,,p,1,0.70862,space,0.150465,0,148,148,98,1,15_dist_green/trial24.png,,,1,15,greenverival,p,32,20,male,2021-02-22_15h06.55.093,exp11,2020.2.6,Win32,60,,,,,,,,,,,
,,,,,,,,,,,,,,p,1,0.625855,space,0.152115,0,149,149,64,1,9_dist_green/trial15.png,,,1,9,greenverival,p,32,20,male,2021-02-22_15h06.55.093,exp11,2020.2.6,Win32,60,,,,,,,,,,,
,,,,,,,,,,,,,,a,1,1.03699,space,0.144705,0,150,150,190,1,0_targ_16_dist_green/trial16.png,,,0,16,greenverival,a,32,20,male,2021-02-22_15h06.55.093,exp11,2020.2.6,Win32,60,,,,,,,,,,,
,,,,,,,,,,,,,,a,1,0.804475,space,0.149855,0,151,151,124,1,0_targ_1_dist_green/trial25.png,,,0,1,greenverival,a,32,20,male,2021-02-22_15h06.55.093,exp11,2020.2.6,Win32,60,,,,,,,,,,,
,,,,,,,,,,,,,,a,1,1.229475,space,0.151725,0,152,152,180,1,0_targ_16_dist_green/trial6.png,,,0,16,greenverival,a,32,20,male,2021-02-22_15h06.55.093,exp11,2020.2.6,Win32,60,,,,,,,,,,,
,,,,,,,,,,,,,,p,1,0.796405,space,0.97833,0,153,153,51,1,9_dist_green/trial2.png,,,1,9,greenverival,p,32,20,male,2021-02-22_15h06.55.093,exp11,2020.2.6,Win32,60,,,,,,,,,,,
,,,,,,,,,,,,,,p,1,0.64835,space,0.12285,0,154,154,14,1,0_dist_green/trial15.png,,,1,0,greenverival,p,32,20,male,2021-02-22_15h06.55.093,exp11,2020.2.6,Win32,60,,,,,,,,,,,
,,,,,,,,,,,,,,p,1,0.504295,space,0.138955,0,155,155,38,1,3_dist_green/trial14.png,,,1,3,greenverival,p,32,20,male,2021-02-22_15h06.55.093,exp11,2020.2.6,Win32,60,,,,,,,,,,,
,,,,,,,,,,,,,,p,1,0.730485,space,0.121965,0,156,156,80,1,15_dist_green/trial6.png,,,1,15,greenverival,p,32,20,male,2021-02-22_15h06.55.093,exp11,2020.2.6,Win32,60,,,,,,,,,,,
,,,,,,,,,,,,,,p,1,0.53017,space,0.10433,0,157,157,87,1,15_dist_green/trial13.png,,,1,15,greenverival,p,32,20,male,2021-02-22_15h06.55.093,exp11,2020.2.6,Win32,60,,,,,,,,,,,
,,,,,,,,,,,,,,p,1,0.449515,space,0.12443,0,158,158,10,1,0_dist_green/trial11.png,,,1,0,greenverival,p,32,20,male,2021-02-22_15h06.55.093,exp11,2020.2.6,Win32,60,,,,,,,,,,,
,,,,,,,,,,,,,,p,1,0.436325,space,0.129945,0,159,159,15,1,0_dist_green/trial16.png,,,1,0,greenverival,p,32,20,male,2021-02-22_15h06.55.093,exp11,2020.2.6,Win32,60,,,,,,,,,,,
,,,,,,,,,,,,,,p,1,0.974385,space,0.148585,0,160,160,71,1,9_dist_green/trial22.png,,,1,9,greenverival,p,32,20,male,2021-02-22_15h06.55.093,exp11,2020.2.6,Win32,60,,,,,,,,,,,
,,,,,,,,,,,,,,p,1,0.84865,space,0.13866,0,161,161,77,1,15_dist_green/trial3.png,,,1,15,greenverival,p,32,20,male,2021-02-22_15h06.55.093,exp11,2020.2.6,Win32,60,,,,,,,,,,,
,,,,,,,,,,,,,,a,1,0.681435,space,0.15506,0,162,162,104,1,0_targ_1_dist_green/trial5.png,,,0,1,greenverival,a,32,20,male,2021-02-22_15h06.55.093,exp11,2020.2.6,Win32,60,,,,,,,,,,,
,,,,,,,,,,,,,,p,1,0.62968,space,0.12847,0,163,163,65,1,9_dist_green/trial16.png,,,1,9,greenverival,p,32,20,male,2021-02-22_15h06.55.093,exp11,2020.2.6,Win32,60,,,,,,,,,,,
,,,,,,,,,,,,,,a,1,1.297715,space,0.19946,0,164,164,186,1,0_targ_16_dist_green/trial12.png,,,0,16,greenverival,a,32,20,male,2021-02-22_15h06.55.093,exp11,2020.2.6,Win32,60,,,,,,,,,,,
,,,,,,,,,,,,,,a,1,0.69271,space,0.14876,0,165,165,165,1,0_targ_10_dist_green/trial16.png,,,0,10,greenverival,a,32,20,male,2021-02-22_15h06.55.093,exp11,2020.2.6,Win32,60,,,,,,,,,,,
,,,,,,,,,,,,,,p,1,0.62206,space,0.100215,0,166,166,20,1,0_dist_green/trial21.png,,,1,0,greenverival,p,32,20,male,2021-02-22_15h06.55.093,exp11,2020.2.6,Win32,60,,,,,,,,,,,
,,,,,,,,,,,,,,a,1,1.107205,space,0.118675,0,167,167,198,1,0_targ_16_dist_green/trial24.png,,,0,16,greenverival,a,32,20,male,2021-02-22_15h06.55.093,exp11,2020.2.6,Win32,60,,,,,,,,,,,
,,,,,,,,,,,,,,a,1,1.117125,space,0.181605,0,168,168,145,1,0_targ_4_dist_green/trial21.png,,,0,4,greenverival,a,32,20,male,2021-02-22_15h06.55.093,exp11,2020.2.6,Win32,60,,,,,,,,,,,
,,,,,,,,,,,,,,p,1,1.04346,space,0.199335,0,169,169,66,1,9_dist_green/trial17.png,,,1,9,greenverival,p,32,20,male,2021-02-22_15h06.55.093,exp11,2020.2.6,Win32,60,,,,,,,,,,,
,,,,,,,,,,,,,,p,1,0.669015,space,0.209225,0,170,170,61,1,9_dist_green/trial12.png,,,1,9,greenverival,p,32,20,male,2021-02-22_15h06.55.093,exp11,2020.2.6,Win32,60,,,,,,,,,,,
,,,,,,,,,,,,,,p,1,0.56649,space,0.101895,0,171,171,39,1,3_dist_green/trial15.png,,,1,3,greenverival,p,32,20,male,2021-02-22_15h06.55.093,exp11,2020.2.6,Win32,60,,,,,,,,,,,
,,,,,,,,,,,,,,a,1,0.804645,space,0.350305,0,172,172,101,1,0_targ_1_dist_green/trial2.png,,,0,1,greenverival,a,32,20,male,2021-02-22_15h06.55.093,exp11,2020.2.6,Win32,60,,,,,,,,,,,
,,,,,,,,,,,,,,a,1,1.098185,space,0.160625,0,173,173,117,1,0_targ_1_dist_green/trial18.png,,,0,1,greenverival,a,32,20,male,2021-02-22_15h06.55.093,exp11,2020.2.6,Win32,60,,,,,,,,,,,
,,,,,,,,,,,,,,p,1,0.664945,space,0.13398,0,174,174,81,1,15_dist_green/trial7.png,,,1,15,greenverival,p,32,20,male,2021-02-22_15h06.55.093,exp11,2020.2.6,Win32,60,,,,,,,,,,,
,,,,,,,,,,,,,,p,1,1.71167,space,0.148085,0,175,175,18,1,0_dist_green/trial19.png,,,1,0,greenverival,p,32,20,male,2021-02-22_15h06.55.093,exp11,2020.2.6,Win32,60,,,,,,,,,,,
,,,,,,,,,,,,,,p,1,0.546895,space,0.201905,0,176,176,44,1,3_dist_green/trial20.png,,,1,3,greenverival,p,32,20,male,2021-02-22_15h06.55.093,exp11,2020.2.6,Win32,60,,,,,,,,,,,
,,,,,,,,,,,,,,p,1,0.4628,space,0.10668,0,177,177,12,1,0_dist_green/trial13.png,,,1,0,greenverival,p,32,20,male,2021-02-22_15h06.55.093,exp11,2020.2.6,Win32,60,,,,,,,,,,,
,,,,,,,,,,,,,,p,1,0.55746,space,0.106605,0,178,178,48,1,3_dist_green/trial24.png,,,1,3,greenverival,p,32,20,male,2021-02-22_15h06.55.093,exp11,2020.2.6,Win32,60,,,,,,,,,,,
,,,,,,,,,,,,,,a,1,1.23021,space,0.14882,0,179,179,184,1,0_targ_16_dist_green/trial10.png,,,0,16,greenverival,a,32,20,male,2021-02-22_15h06.55.093,exp11,2020.2.6,Win32,60,,,,,,,,,,,
,,,,,,,,,,,,,,p,1,0.6721,space,0.09493,0,180,180,9,1,0_dist_green/trial10.png,,,1,0,greenverival,p,32,20,male,2021-02-22_15h06.55.093,exp11,2020.2.6,Win32,60,,,,,,,,,,,
,,,,,,,,,,,,,,a,1,0.77134,space,0.139855,0,181,181,166,1,0_targ_10_dist_green/trial17.png,,,0,10,greenverival,a,32,20,male,2021-02-22_15h06.55.093,exp11,2020.2.6,Win32,60,,,,,,,,,,,
,,,,,,,,,,,,,,a,1,0.70672,space,0.105495,0,182,182,169,1,0_targ_10_dist_green/trial20.png,,,0,10,greenverival,a,32,20,male,2021-02-22_15h06.55.093,exp11,2020.2.6,Win32,60,,,,,,,,,,,
,,,,,,,,,,,,,,p,1,0.645835,space,0.110365,0,183,183,19,1,0_dist_green/trial20.png,,,1,0,greenverival,p,32,20,male,2021-02-22_15h06.55.093,exp11,2020.2.6,Win32,60,,,,,,,,,,,
,,,,,,,,,,,,,,p,1,1.06308,space,0.095925,0,184,184,79,1,15_dist_green/trial5.png,,,1,15,greenverival,p,32,20,male,2021-02-22_15h06.55.093,exp11,2020.2.6,Win32,60,,,,,,,,,,,
,,,,,,,,,,,,,,a,1,0.856915,space,0.633695,0,185,185,103,1,0_targ_1_dist_green/trial4.png,,,0,1,greenverival,a,32,20,male,2021-02-22_15h06.55.093,exp11,2020.2.6,Win32,60,,,,,,,,,,,
,,,,,,,,,,,,,,a,1,0.969325,space,0.178185,0,186,186,113,1,0_targ_1_dist_green/trial14.png,,,0,1,greenverival,a,32,20,male,2021-02-22_15h06.55.093,exp11,2020.2.6,Win32,60,,,,,,,,,,,
,,,,,,,,,,,,,,p,1,1.67464,space,1.057945,0,187,187,76,1,15_dist_green/trial2.png,,,1,15,greenverival,p,32,20,male,2021-02-22_15h06.55.093,exp11,2020.2.6,Win32,60,,,,,,,,,,,
,,,,,,,,,,,,,,a,1,0.6216,space,0.56255,0,188,188,110,1,0_targ_1_dist_green/trial11.png,,,0,1,greenverival,a,32,20,male,2021-02-22_15h06.55.093,exp11,2020.2.6,Win32,60,,,,,,,,,,,
,,,,,,,,,,,,,,a,1,0.78719,space,0.144445,0,189,189,175,1,0_targ_16_dist_green/trial1.png,,,0,16,greenverival,a,32,20,male,2021-02-22_15h06.55.093,exp11,2020.2.6,Win32,60,,,,,,,,,,,
,,,,,,,,,,,,,,a,1,0.984975,space,0.04364,0,190,190,158,1,0_targ_10_dist_green/trial9.png,,,0,10,greenverival,a,32,20,male,2021-02-22_15h06.55.093,exp11,2020.2.6,Win32,60,,,,,,,,,,,
,,,,,,,,,,,,,,a,1,0.629,space,0.096625,0,191,191,109,1,0_targ_1_dist_green/trial10.png,,,0,1,greenverival,a,32,20,male,2021-02-22_15h06.55.093,exp11,2020.2.6,Win32,60,,,,,,,,,,,
,,,,,,,,,,,,,,p,1,0.72758,space,0.138955,0,192,192,54,1,9_dist_green/trial5.png,,,1,9,greenverival,p,32,20,male,2021-02-22_15h06.55.093,exp11,2020.2.6,Win32,60,,,,,,,,,,,
,,,,,,,,,,,,,,p,1,0.702,space,0.05205,0,193,193,91,1,15_dist_green/trial17.png,,,1,15,greenverival,p,32,20,male,2021-02-22_15h06.55.093,exp11,2020.2.6,Win32,60,,,,,,,,,,,
,,,,,,,,,,,,,,p,1,0.87376,space,0.353575,0,194,194,72,1,9_dist_green/trial23.png,,,1,9,greenverival,p,32,20,male,2021-02-22_15h06.55.093,exp11,2020.2.6,Win32,60,,,,,,,,,,,
,,,,,,,,,,,,,,p,1,0.512005,space,0.127375,0,195,195,84,1,15_dist_green/trial10.png,,,1,15,greenverival,p,32,20,male,2021-02-22_15h06.55.093,exp11,2020.2.6,Win32,60,,,,,,,,,,,
,,,,,,,,,,,,,,a,1,0.716055,space,0.119235,0,196,196,173,1,0_targ_10_dist_green/trial24.png,,,0,10,greenverival,a,32,20,male,2021-02-22_15h06.55.093,exp11,2020.2.6,Win32,60,,,,,,,,,,,
,,,,,,,,,,,,,,a,1,0.83926,space,0.13437,0,197,197,132,1,0_targ_4_dist_green/trial8.png,,,0,4,greenverival,a,32,20,male,2021-02-22_15h06.55.093,exp11,2020.2.6,Win32,60,,,,,,,,,,,
,,,,,,,,,,,,,,a,1,0.986465,space,0.133995,0,198,198,196,1,0_targ_16_dist_green/trial22.png,,,0,16,greenverival,a,32,20,male,2021-02-22_15h06.55.093,exp11,2020.2.6,Win32,60,,,,,,,,,,,
,,,,,,,,,,,,,,a,1,0.647155,space,0.145105,0,199,199,163,1,0_targ_10_dist_green/trial14.png,,,0,10,greenverival,a,32,20,male,2021-02-22_15h06.55.093,exp11,2020.2.6,Win32,60,,,,,,,,,,,
,,,,,,,,,,,,,,,,,,,,,,,,,,,,,,,32,20,male,2021-02-22_15h06.55.093,exp11,2020.2.6,Win32,60,0,1,1,0,1,conGreen.xlsx,green vertical,Look for green vertical bar (target) and indicate if it is present or absent in the array. If green vertical target is present press 'p' and if absent press 'a'. Press SPACE to start.,,,
