key_resp_6.keys,key_resp_6.rt,key_resp_7.keys,key_resp_7.rt,key_resp_8.keys,key_resp_8.rt,key_resp_10.keys,key_resp_10.rt,key_resp_9.keys,key_resp_9.rt,key_resp_3.keys,key_resp_3.rt,key_resp_5.keys,key_resp_5.rt,key_resp.keys,key_resp.corr,key_resp.rt,key_resp_4.keys,key_resp_4.rt,trials.thisRepN,trials.thisTrialN,trials.thisN,trials.thisIndex,trials.ran,ImageFile,tarPos,tarSize,targPres,numDist,targetName,correctAns,participant,age,sex,date,expName,psychopyVersion,OS,frameRate,trials_2.thisRepN,trials_2.thisTrialN,trials_2.thisN,trials_2.thisIndex,trials_2.ran,condsFile,targName,instructionText,colTarget,sizeTarg,posit
space,3.18921,space,15.153845,space,8.533605,space,25.65279,space,8.85893,space,16.088745,space,7.84203,p,0,0.68108,space,4.71665,0,0,0,187,1,0_targ_16_dist_green/trial13.png,,,0,16,greenverival,a,33,20,female,2021-02-22_13h22.00.669,exp11,2020.2.6,Linux x86_64,60,,,,,,,,,,,
,,,,,,,,,,,,,,p,1,1.22342,space,5.63525,0,1,1,67,1,9_dist_green/trial18.png,,,1,9,greenverival,p,33,20,female,2021-02-22_13h22.00.669,exp11,2020.2.6,Linux x86_64,60,,,,,,,,,,,
,,,,,,,,,,,,,,p,1,0.589585,space,1.579275,0,2,2,16,1,0_dist_green/trial17.png,,,1,0,greenverival,p,33,20,female,2021-02-22_13h22.00.669,exp11,2020.2.6,Linux x86_64,60,,,,,,,,,,,
,,,,,,,,,,,,,,p,1,0.391115,space,1.073635,0,3,3,20,1,0_dist_green/trial21.png,,,1,0,greenverival,p,33,20,female,2021-02-22_13h22.00.669,exp11,2020.2.6,Linux x86_64,60,,,,,,,,,,,
,,,,,,,,,,,,,,p,1,0.68485,space,1.03818,0,4,4,83,1,15_dist_green/trial9.png,,,1,15,greenverival,p,33,20,female,2021-02-22_13h22.00.669,exp11,2020.2.6,Linux x86_64,60,,,,,,,,,,,
,,,,,,,,,,,,,,a,1,2.400275,space,2.173525,0,5,5,199,1,0_targ_16_dist_green/trial25.png,,,0,16,greenverival,a,33,20,female,2021-02-22_13h22.00.669,exp11,2020.2.6,Linux x86_64,60,,,,,,,,,,,
,,,,,,,,,,,,,,a,1,1.06374,space,1.6202,0,6,6,179,1,0_targ_16_dist_green/trial5.png,,,0,16,greenverival,a,33,20,female,2021-02-22_13h22.00.669,exp11,2020.2.6,Linux x86_64,60,,,,,,,,,,,
,,,,,,,,,,,,,,p,1,0.5339,space,1.424895,0,7,7,17,1,0_dist_green/trial18.png,,,1,0,greenverival,p,33,20,female,2021-02-22_13h22.00.669,exp11,2020.2.6,Linux x86_64,60,,,,,,,,,,,
,,,,,,,,,,,,,,p,1,0.53169,space,0.62116,0,8,8,19,1,0_dist_green/trial20.png,,,1,0,greenverival,p,33,20,female,2021-02-22_13h22.00.669,exp11,2020.2.6,Linux x86_64,60,,,,,,,,,,,
,,,,,,,,,,,,,,p,1,0.78624,space,0.69866,0,9,9,51,1,9_dist_green/trial2.png,,,1,9,greenverival,p,33,20,female,2021-02-22_13h22.00.669,exp11,2020.2.6,Linux x86_64,60,,,,,,,,,,,
,,,,,,,,,,,,,,a,1,0.99882,space,0.670065,0,10,10,106,1,0_targ_1_dist_green/trial7.png,,,0,1,greenverival,a,33,20,female,2021-02-22_13h22.00.669,exp11,2020.2.6,Linux x86_64,60,,,,,,,,,,,
,,,,,,,,,,,,,,a,1,0.81568,space,0.63751,0,11,11,116,1,0_targ_1_dist_green/trial17.png,,,0,1,greenverival,a,33,20,female,2021-02-22_13h22.00.669,exp11,2020.2.6,Linux x86_64,60,,,,,,,,,,,
,,,,,,,,,,,,,,a,1,1.19935,space,0.767635,0,12,12,197,1,0_targ_16_dist_green/trial23.png,,,0,16,greenverival,a,33,20,female,2021-02-22_13h22.00.669,exp11,2020.2.6,Linux x86_64,60,,,,,,,,,,,
,,,,,,,,,,,,,,p,1,0.671435,space,0.883975,0,13,13,87,1,15_dist_green/trial13.png,,,1,15,greenverival,p,33,20,female,2021-02-22_13h22.00.669,exp11,2020.2.6,Linux x86_64,60,,,,,,,,,,,
,,,,,,,,,,,,,,p,1,0.819845,space,0.70106,0,14,14,75,1,15_dist_green/trial1.png,,,1,15,greenverival,p,33,20,female,2021-02-22_13h22.00.669,exp11,2020.2.6,Linux x86_64,60,,,,,,,,,,,
,,,,,,,,,,,,,,p,1,0.72901,space,0.515035,0,15,15,69,1,9_dist_green/trial20.png,,,1,9,greenverival,p,33,20,female,2021-02-22_13h22.00.669,exp11,2020.2.6,Linux x86_64,60,,,,,,,,,,,
,,,,,,,,,,,,,,p,1,0.568275,space,0.52571,0,16,16,38,1,3_dist_green/trial14.png,,,1,3,greenverival,p,33,20,female,2021-02-22_13h22.00.669,exp11,2020.2.6,Linux x86_64,60,,,,,,,,,,,
,,,,,,,,,,,,,,a,1,0.8115,space,0.424715,0,17,17,112,1,0_targ_1_dist_green/trial13.png,,,0,1,greenverival,a,33,20,female,2021-02-22_13h22.00.669,exp11,2020.2.6,Linux x86_64,60,,,,,,,,,,,
,,,,,,,,,,,,,,a,1,0.723175,space,0.3976,0,18,18,105,1,0_targ_1_dist_green/trial6.png,,,0,1,greenverival,a,33,20,female,2021-02-22_13h22.00.669,exp11,2020.2.6,Linux x86_64,60,,,,,,,,,,,
,,,,,,,,,,,,,,p,1,0.55744,space,0.509235,0,19,19,39,1,3_dist_green/trial15.png,,,1,3,greenverival,p,33,20,female,2021-02-22_13h22.00.669,exp11,2020.2.6,Linux x86_64,60,,,,,,,,,,,
,,,,,,,,,,,,,,p,1,0.66466,space,0.45683,0,20,20,63,1,9_dist_green/trial14.png,,,1,9,greenverival,p,33,20,female,2021-02-22_13h22.00.669,exp11,2020.2.6,Linux x86_64,60,,,,,,,,,,,
,,,,,,,,,,,,,,p,1,0.770855,space,0.42101,0,21,21,68,1,9_dist_green/trial19.png,,,1,9,greenverival,p,33,20,female,2021-02-22_13h22.00.669,exp11,2020.2.6,Linux x86_64,60,,,,,,,,,,,
,,,,,,,,,,,,,,p,1,0.594715,space,0.52718,0,22,22,9,1,0_dist_green/trial10.png,,,1,0,greenverival,p,33,20,female,2021-02-22_13h22.00.669,exp11,2020.2.6,Linux x86_64,60,,,,,,,,,,,
,,,,,,,,,,,,,,p,1,0.71857,space,0.38884,0,23,23,93,1,15_dist_green/trial19.png,,,1,15,greenverival,p,33,20,female,2021-02-22_13h22.00.669,exp11,2020.2.6,Linux x86_64,60,,,,,,,,,,,
,,,,,,,,,,,,,,p,1,0.667485,space,0.42684,0,24,24,37,1,3_dist_green/trial13.png,,,1,3,greenverival,p,33,20,female,2021-02-22_13h22.00.669,exp11,2020.2.6,Linux x86_64,60,,,,,,,,,,,
,,,,,,,,,,,,,,p,1,0.63413,space,0.362375,0,25,25,53,1,9_dist_green/trial4.png,,,1,9,greenverival,p,33,20,female,2021-02-22_13h22.00.669,exp11,2020.2.6,Linux x86_64,60,,,,,,,,,,,
,,,,,,,,,,,,,,p,1,0.705,space,0.359125,0,26,26,54,1,9_dist_green/trial5.png,,,1,9,greenverival,p,33,20,female,2021-02-22_13h22.00.669,exp11,2020.2.6,Linux x86_64,60,,,,,,,,,,,
,,,,,,,,,,,,,,p,1,0.66807,space,0.436575,0,27,27,99,1,15_dist_green/trial25.png,,,1,15,greenverival,p,33,20,female,2021-02-22_13h22.00.669,exp11,2020.2.6,Linux x86_64,60,,,,,,,,,,,
,,,,,,,,,,,,,,a,1,0.7462,space,0.490755,0,28,28,110,1,0_targ_1_dist_green/trial11.png,,,0,1,greenverival,a,33,20,female,2021-02-22_13h22.00.669,exp11,2020.2.6,Linux x86_64,60,,,,,,,,,,,
,,,,,,,,,,,,,,a,1,0.66147,space,0.376575,0,29,29,171,1,0_targ_10_dist_green/trial22.png,,,0,10,greenverival,a,33,20,female,2021-02-22_13h22.00.669,exp11,2020.2.6,Linux x86_64,60,,,,,,,,,,,
,,,,,,,,,,,,,,a,1,0.88208,space,0.3277,0,30,30,122,1,0_targ_1_dist_green/trial23.png,,,0,1,greenverival,a,33,20,female,2021-02-22_13h22.00.669,exp11,2020.2.6,Linux x86_64,60,,,,,,,,,,,
,,,,,,,,,,,,,,p,1,0.66002,space,0.32,0,31,31,15,1,0_dist_green/trial16.png,,,1,0,greenverival,p,33,20,female,2021-02-22_13h22.00.669,exp11,2020.2.6,Linux x86_64,60,,,,,,,,,,,
,,,,,,,,,,,,,,p,1,0.64573,space,0.386165,0,32,32,45,1,3_dist_green/trial21.png,,,1,3,greenverival,p,33,20,female,2021-02-22_13h22.00.669,exp11,2020.2.6,Linux x86_64,60,,,,,,,,,,,
,,,,,,,,,,,,,,p,1,0.79286,space,0.269215,0,33,33,73,1,9_dist_green/trial24.png,,,1,9,greenverival,p,33,20,female,2021-02-22_13h22.00.669,exp11,2020.2.6,Linux x86_64,60,,,,,,,,,,,
,,,,,,,,,,,,,,p,1,0.583245,space,0.3,0,34,34,33,1,3_dist_green/trial9.png,,,1,3,greenverival,p,33,20,female,2021-02-22_13h22.00.669,exp11,2020.2.6,Linux x86_64,60,,,,,,,,,,,
,,,,,,,,,,,,,,p,1,0.59578,space,0.295855,0,35,35,34,1,3_dist_green/trial10.png,,,1,3,greenverival,p,33,20,female,2021-02-22_13h22.00.669,exp11,2020.2.6,Linux x86_64,60,,,,,,,,,,,
,,,,,,,,,,,,,,a,1,0.67311,space,0.272945,0,36,36,174,1,0_targ_10_dist_green/trial25.png,,,0,10,greenverival,a,33,20,female,2021-02-22_13h22.00.669,exp11,2020.2.6,Linux x86_64,60,,,,,,,,,,,
,,,,,,,,,,,,,,a,1,0.83104,space,0.269025,0,37,37,157,1,0_targ_10_dist_green/trial8.png,,,0,10,greenverival,a,33,20,female,2021-02-22_13h22.00.669,exp11,2020.2.6,Linux x86_64,60,,,,,,,,,,,
,,,,,,,,,,,,,,p,1,0.54817,space,0.301315,0,38,38,2,1,0_dist_green/trial3.png,,,1,0,greenverival,p,33,20,female,2021-02-22_13h22.00.669,exp11,2020.2.6,Linux x86_64,60,,,,,,,,,,,
,,,,,,,,,,,,,,a,1,0.7862,space,0.31174,0,39,39,102,1,0_targ_1_dist_green/trial3.png,,,0,1,greenverival,a,33,20,female,2021-02-22_13h22.00.669,exp11,2020.2.6,Linux x86_64,60,,,,,,,,,,,
,,,,,,,,,,,,,,a,1,0.65985,space,0.243255,0,40,40,147,1,0_targ_4_dist_green/trial23.png,,,0,4,greenverival,a,33,20,female,2021-02-22_13h22.00.669,exp11,2020.2.6,Linux x86_64,60,,,,,,,,,,,
,,,,,,,,,,,,,,a,1,0.69963,space,0.293775,0,41,41,172,1,0_targ_10_dist_green/trial23.png,,,0,10,greenverival,a,33,20,female,2021-02-22_13h22.00.669,exp11,2020.2.6,Linux x86_64,60,,,,,,,,,,,
,,,,,,,,,,,,,,a,1,0.746725,space,0.275115,0,42,42,159,1,0_targ_10_dist_green/trial10.png,,,0,10,greenverival,a,33,20,female,2021-02-22_13h22.00.669,exp11,2020.2.6,Linux x86_64,60,,,,,,,,,,,
,,,,,,,,,,,,,,p,1,0.599265,space,0.23757,0,43,43,52,1,9_dist_green/trial3.png,,,1,9,greenverival,p,33,20,female,2021-02-22_13h22.00.669,exp11,2020.2.6,Linux x86_64,60,,,,,,,,,,,
,,,,,,,,,,,,,,a,1,0.631335,space,0.30852,0,44,44,175,1,0_targ_16_dist_green/trial1.png,,,0,16,greenverival,a,33,20,female,2021-02-22_13h22.00.669,exp11,2020.2.6,Linux x86_64,60,,,,,,,,,,,
,,,,,,,,,,,,,,a,1,0.6046,space,0.26127,0,45,45,152,1,0_targ_10_dist_green/trial3.png,,,0,10,greenverival,a,33,20,female,2021-02-22_13h22.00.669,exp11,2020.2.6,Linux x86_64,60,,,,,,,,,,,
,,,,,,,,,,,,,,a,0,0.60707,space,2.100595,0,46,46,90,1,15_dist_green/trial16.png,,,1,15,greenverival,p,33,20,female,2021-02-22_13h22.00.669,exp11,2020.2.6,Linux x86_64,60,,,,,,,,,,,
,,,,,,,,,,,,,,a,1,0.658895,space,0.249175,0,47,47,144,1,0_targ_4_dist_green/trial20.png,,,0,4,greenverival,a,33,20,female,2021-02-22_13h22.00.669,exp11,2020.2.6,Linux x86_64,60,,,,,,,,,,,
,,,,,,,,,,,,,,p,1,0.800385,space,0.25478,0,48,48,29,1,3_dist_green/trial5.png,,,1,3,greenverival,p,33,20,female,2021-02-22_13h22.00.669,exp11,2020.2.6,Linux x86_64,60,,,,,,,,,,,
,,,,,,,,,,,,,,a,1,0.70209,space,0.30723,0,49,49,169,1,0_targ_10_dist_green/trial20.png,,,0,10,greenverival,a,33,20,female,2021-02-22_13h22.00.669,exp11,2020.2.6,Linux x86_64,60,,,,,,,,,,,
,,,,,,,,,,,,,,p,1,0.642245,space,0.293565,0,50,50,59,1,9_dist_green/trial10.png,,,1,9,greenverival,p,33,20,female,2021-02-22_13h22.00.669,exp11,2020.2.6,Linux x86_64,60,,,,,,,,,,,
,,,,,,,,,,,,,,p,1,0.745425,space,0.22488,0,51,51,28,1,3_dist_green/trial4.png,,,1,3,greenverival,p,33,20,female,2021-02-22_13h22.00.669,exp11,2020.2.6,Linux x86_64,60,,,,,,,,,,,
,,,,,,,,,,,,,,a,1,0.62417,space,0.257375,0,52,52,107,1,0_targ_1_dist_green/trial8.png,,,0,1,greenverival,a,33,20,female,2021-02-22_13h22.00.669,exp11,2020.2.6,Linux x86_64,60,,,,,,,,,,,
,,,,,,,,,,,,,,p,1,0.817475,space,0.20966,0,53,53,42,1,3_dist_green/trial18.png,,,1,3,greenverival,p,33,20,female,2021-02-22_13h22.00.669,exp11,2020.2.6,Linux x86_64,60,,,,,,,,,,,
,,,,,,,,,,,,,,a,1,0.935875,space,0.290355,0,54,54,196,1,0_targ_16_dist_green/trial22.png,,,0,16,greenverival,a,33,20,female,2021-02-22_13h22.00.669,exp11,2020.2.6,Linux x86_64,60,,,,,,,,,,,
,,,,,,,,,,,,,,p,1,0.834725,space,0.29396,0,55,55,26,1,3_dist_green/trial2.png,,,1,3,greenverival,p,33,20,female,2021-02-22_13h22.00.669,exp11,2020.2.6,Linux x86_64,60,,,,,,,,,,,
,,,,,,,,,,,,,,p,1,0.755955,space,0.222805,0,56,56,72,1,9_dist_green/trial23.png,,,1,9,greenverival,p,33,20,female,2021-02-22_13h22.00.669,exp11,2020.2.6,Linux x86_64,60,,,,,,,,,,,
,,,,,,,,,,,,,,a,1,0.60304,space,0.311655,0,57,57,109,1,0_targ_1_dist_green/trial10.png,,,0,1,greenverival,a,33,20,female,2021-02-22_13h22.00.669,exp11,2020.2.6,Linux x86_64,60,,,,,,,,,,,
,,,,,,,,,,,,,,p,1,0.73815,space,0.27227,0,58,58,1,1,0_dist_green/trial2.png,,,1,0,greenverival,p,33,20,female,2021-02-22_13h22.00.669,exp11,2020.2.6,Linux x86_64,60,,,,,,,,,,,
,,,,,,,,,,,,,,p,1,0.74993,space,0.396645,0,59,59,6,1,0_dist_green/trial7.png,,,1,0,greenverival,p,33,20,female,2021-02-22_13h22.00.669,exp11,2020.2.6,Linux x86_64,60,,,,,,,,,,,
,,,,,,,,,,,,,,a,1,0.931375,space,0.254165,0,60,60,114,1,0_targ_1_dist_green/trial15.png,,,0,1,greenverival,a,33,20,female,2021-02-22_13h22.00.669,exp11,2020.2.6,Linux x86_64,60,,,,,,,,,,,
,,,,,,,,,,,,,,a,1,0.80655,space,0.316735,0,61,61,184,1,0_targ_16_dist_green/trial10.png,,,0,16,greenverival,a,33,20,female,2021-02-22_13h22.00.669,exp11,2020.2.6,Linux x86_64,60,,,,,,,,,,,
,,,,,,,,,,,,,,p,1,0.72428,space,0.272455,0,62,62,4,1,0_dist_green/trial5.png,,,1,0,greenverival,p,33,20,female,2021-02-22_13h22.00.669,exp11,2020.2.6,Linux x86_64,60,,,,,,,,,,,
,,,,,,,,,,,,,,a,1,0.92659,space,0.307675,0,63,63,115,1,0_targ_1_dist_green/trial6.png,,,0,1,greenverival,a,33,20,female,2021-02-22_13h22.00.669,exp11,2020.2.6,Linux x86_64,60,,,,,,,,,,,
,,,,,,,,,,,,,,p,1,0.70812,space,0.493855,0,64,64,21,1,0_dist_green/trial22.png,,,1,0,greenverival,p,33,20,female,2021-02-22_13h22.00.669,exp11,2020.2.6,Linux x86_64,60,,,,,,,,,,,
,,,,,,,,,,,,,,a,0,0.72797,space,0.03153,0,65,65,91,1,15_dist_green/trial17.png,,,1,15,greenverival,p,33,20,female,2021-02-22_13h22.00.669,exp11,2020.2.6,Linux x86_64,60,,,,,,,,,,,
,,,,,,,,,,,,,,p,1,0.758365,space,0.20806,0,66,66,40,1,3_dist_green/trial16.png,,,1,3,greenverival,p,33,20,female,2021-02-22_13h22.00.669,exp11,2020.2.6,Linux x86_64,60,,,,,,,,,,,
,,,,,,,,,,,,,,p,1,0.68996,space,0.20581,0,67,67,11,1,0_dist_green/trial12.png,,,1,0,greenverival,p,33,20,female,2021-02-22_13h22.00.669,exp11,2020.2.6,Linux x86_64,60,,,,,,,,,,,
,,,,,,,,,,,,,,a,1,0.90529,space,0.26407,0,68,68,124,1,0_targ_1_dist_green/trial25.png,,,0,1,greenverival,a,33,20,female,2021-02-22_13h22.00.669,exp11,2020.2.6,Linux x86_64,60,,,,,,,,,,,
,,,,,,,,,,,,,,a,1,0.76189,space,0.285225,0,69,69,132,1,0_targ_4_dist_green/trial8.png,,,0,4,greenverival,a,33,20,female,2021-02-22_13h22.00.669,exp11,2020.2.6,Linux x86_64,60,,,,,,,,,,,
,,,,,,,,,,,,,,a,1,0.741915,space,0.32214,0,70,70,163,1,0_targ_10_dist_green/trial14.png,,,0,10,greenverival,a,33,20,female,2021-02-22_13h22.00.669,exp11,2020.2.6,Linux x86_64,60,,,,,,,,,,,
,,,,,,,,,,,,,,p,1,0.841445,space,0.278845,0,71,71,62,1,9_dist_green/trial13.png,,,1,9,greenverival,p,33,20,female,2021-02-22_13h22.00.669,exp11,2020.2.6,Linux x86_64,60,,,,,,,,,,,
,,,,,,,,,,,,,,a,1,0.764225,space,0.25847,0,72,72,104,1,0_targ_1_dist_green/trial5.png,,,0,1,greenverival,a,33,20,female,2021-02-22_13h22.00.669,exp11,2020.2.6,Linux x86_64,60,,,,,,,,,,,
,,,,,,,,,,,,,,p,1,0.88274,space,0.282815,0,73,73,46,1,3_dist_green/trial22.png,,,1,3,greenverival,p,33,20,female,2021-02-22_13h22.00.669,exp11,2020.2.6,Linux x86_64,60,,,,,,,,,,,
,,,,,,,,,,,,,,p,1,0.663365,space,0.250465,0,74,74,65,1,9_dist_green/trial16.png,,,1,9,greenverival,p,33,20,female,2021-02-22_13h22.00.669,exp11,2020.2.6,Linux x86_64,60,,,,,,,,,,,
,,,,,,,,,,,,,,a,1,0.851855,space,0.285055,0,75,75,156,1,0_targ_10_dist_green/trial7.png,,,0,10,greenverival,a,33,20,female,2021-02-22_13h22.00.669,exp11,2020.2.6,Linux x86_64,60,,,,,,,,,,,
,,,,,,,,,,,,,,p,1,1.24995,space,0.405215,0,76,76,86,1,15_dist_green/trial12.png,,,1,15,greenverival,p,33,20,female,2021-02-22_13h22.00.669,exp11,2020.2.6,Linux x86_64,60,,,,,,,,,,,
,,,,,,,,,,,,,,p,1,1.23965,space,0.251475,0,77,77,31,1,3_dist_green/trial7.png,,,1,3,greenverival,p,33,20,female,2021-02-22_13h22.00.669,exp11,2020.2.6,Linux x86_64,60,,,,,,,,,,,
,,,,,,,,,,,,,,p,1,0.504445,space,0.25405,0,78,78,14,1,0_dist_green/trial15.png,,,1,0,greenverival,p,33,20,female,2021-02-22_13h22.00.669,exp11,2020.2.6,Linux x86_64,60,,,,,,,,,,,
,,,,,,,,,,,,,,p,1,0.5413,space,0.26043,0,79,79,27,1,3_dist_green/trial3.png,,,1,3,greenverival,p,33,20,female,2021-02-22_13h22.00.669,exp11,2020.2.6,Linux x86_64,60,,,,,,,,,,,
,,,,,,,,,,,,,,p,1,0.600125,space,0.266595,0,80,80,49,1,3_dist_green/trial25.png,,,1,3,greenverival,p,33,20,female,2021-02-22_13h22.00.669,exp11,2020.2.6,Linux x86_64,60,,,,,,,,,,,
,,,,,,,,,,,,,,p,1,0.650535,space,0.292365,0,81,81,25,1,3_dist_green/trial1.png,,,1,3,greenverival,p,33,20,female,2021-02-22_13h22.00.669,exp11,2020.2.6,Linux x86_64,60,,,,,,,,,,,
,,,,,,,,,,,,,,a,1,0.626695,space,0.23702,0,82,82,101,1,0_targ_1_dist_green/trial2.png,,,0,1,greenverival,a,33,20,female,2021-02-22_13h22.00.669,exp11,2020.2.6,Linux x86_64,60,,,,,,,,,,,
,,,,,,,,,,,,,,a,1,0.748865,space,0.24867,0,83,83,154,1,0_targ_10_dist_green/trial5.png,,,0,10,greenverival,a,33,20,female,2021-02-22_13h22.00.669,exp11,2020.2.6,Linux x86_64,60,,,,,,,,,,,
,,,,,,,,,,,,,,p,1,0.71108,space,0.24385,0,84,84,89,1,15_dist_green/trial15.png,,,1,15,greenverival,p,33,20,female,2021-02-22_13h22.00.669,exp11,2020.2.6,Linux x86_64,60,,,,,,,,,,,
,,,,,,,,,,,,,,p,1,0.648215,space,0.23973,0,85,85,55,1,9_dist_green/trial6.png,,,1,9,greenverival,p,33,20,female,2021-02-22_13h22.00.669,exp11,2020.2.6,Linux x86_64,60,,,,,,,,,,,
,,,,,,,,,,,,,,a,1,0.78695,space,0.28915,0,86,86,155,1,0_targ_10_dist_green/trial6.png,,,0,10,greenverival,a,33,20,female,2021-02-22_13h22.00.669,exp11,2020.2.6,Linux x86_64,60,,,,,,,,,,,
,,,,,,,,,,,,,,a,1,0.724215,space,0.27569,0,87,87,129,1,0_targ_4_dist_green/trial5.png,,,0,4,greenverival,a,33,20,female,2021-02-22_13h22.00.669,exp11,2020.2.6,Linux x86_64,60,,,,,,,,,,,
,,,,,,,,,,,,,,p,1,0.627975,space,0.280505,0,88,88,74,1,9_dist_green/trial25.png,,,1,9,greenverival,p,33,20,female,2021-02-22_13h22.00.669,exp11,2020.2.6,Linux x86_64,60,,,,,,,,,,,
,,,,,,,,,,,,,,a,1,0.93054,space,0.217665,0,89,89,148,1,0_targ_4_dist_green/trial24.png,,,0,4,greenverival,a,33,20,female,2021-02-22_13h22.00.669,exp11,2020.2.6,Linux x86_64,60,,,,,,,,,,,
,,,,,,,,,,,,,,a,1,0.80086,space,0.25292,0,90,90,186,1,0_targ_16_dist_green/trial12.png,,,0,16,greenverival,a,33,20,female,2021-02-22_13h22.00.669,exp11,2020.2.6,Linux x86_64,60,,,,,,,,,,,
,,,,,,,,,,,,,,a,1,0.69887,space,0.31632,0,91,91,181,1,0_targ_16_dist_green/trial7.png,,,0,16,greenverival,a,33,20,female,2021-02-22_13h22.00.669,exp11,2020.2.6,Linux x86_64,60,,,,,,,,,,,
,,,,,,,,,,,,,,p,1,0.644605,space,0.33073,0,92,92,44,1,3_dist_green/trial20.png,,,1,3,greenverival,p,33,20,female,2021-02-22_13h22.00.669,exp11,2020.2.6,Linux x86_64,60,,,,,,,,,,,
,,,,,,,,,,,,,,p,1,0.760835,space,0.24191,0,93,93,96,1,15_dist_green/trial22.png,,,1,15,greenverival,p,33,20,female,2021-02-22_13h22.00.669,exp11,2020.2.6,Linux x86_64,60,,,,,,,,,,,
,,,,,,,,,,,,,,a,0,0.709555,space,0.168075,0,94,94,78,1,15_dist_green/trial4.png,,,1,15,greenverival,p,33,20,female,2021-02-22_13h22.00.669,exp11,2020.2.6,Linux x86_64,60,,,,,,,,,,,
,,,,,,,,,,,,,,a,1,0.599125,space,0.214775,0,95,95,133,1,0_targ_4_dist_green/trial9.png,,,0,4,greenverival,a,33,20,female,2021-02-22_13h22.00.669,exp11,2020.2.6,Linux x86_64,60,,,,,,,,,,,
,,,,,,,,,,,,,,p,1,0.701335,space,0.23909,0,96,96,61,1,9_dist_green/trial12.png,,,1,9,greenverival,p,33,20,female,2021-02-22_13h22.00.669,exp11,2020.2.6,Linux x86_64,60,,,,,,,,,,,
,,,,,,,,,,,,,,a,1,0.61801,space,0.233605,0,97,97,168,1,0_targ_10_dist_green/trial19.png,,,0,10,greenverival,a,33,20,female,2021-02-22_13h22.00.669,exp11,2020.2.6,Linux x86_64,60,,,,,,,,,,,
,,,,,,,,,,,,,,a,1,0.626655,space,0.231115,0,98,98,165,1,0_targ_10_dist_green/trial16.png,,,0,10,greenverival,a,33,20,female,2021-02-22_13h22.00.669,exp11,2020.2.6,Linux x86_64,60,,,,,,,,,,,
,,,,,,,,,,,,,,a,0,0.63705,space,1.149265,0,99,99,56,1,9_dist_green/trial7.png,,,1,9,greenverival,p,33,20,female,2021-02-22_13h22.00.669,exp11,2020.2.6,Linux x86_64,60,,,,,,,,,,,
,,,,,,,,,,,,,,p,1,0.57206,space,0.23383,0,100,100,58,1,9_dist_green/trial9.png,,,1,9,greenverival,p,33,20,female,2021-02-22_13h22.00.669,exp11,2020.2.6,Linux x86_64,60,,,,,,,,,,,
,,,,,,,,,,,,,,a,1,0.58491,space,0.25176,0,101,101,103,1,0_targ_1_dist_green/trial4.png,,,0,1,greenverival,a,33,20,female,2021-02-22_13h22.00.669,exp11,2020.2.6,Linux x86_64,60,,,,,,,,,,,
,,,,,,,,,,,,,,p,1,0.66801,space,0.277775,0,102,102,24,1,0_dist_green/trial25.png,,,1,0,greenverival,p,33,20,female,2021-02-22_13h22.00.669,exp11,2020.2.6,Linux x86_64,60,,,,,,,,,,,
,,,,,,,,,,,,,,a,1,0.727705,space,0.254725,0,103,103,190,1,0_targ_16_dist_green/trial16.png,,,0,16,greenverival,a,33,20,female,2021-02-22_13h22.00.669,exp11,2020.2.6,Linux x86_64,60,,,,,,,,,,,
,,,,,,,,,,,,,,a,1,1.358245,space,0.35688,0,104,104,143,1,0_targ_4_dist_green/trial19.png,,,0,4,greenverival,a,33,20,female,2021-02-22_13h22.00.669,exp11,2020.2.6,Linux x86_64,60,,,,,,,,,,,
,,,,,,,,,,,,,,a,1,0.874795,space,0.31528,0,105,105,138,1,0_targ_4_dist_green/trial14.png,,,0,4,greenverival,a,33,20,female,2021-02-22_13h22.00.669,exp11,2020.2.6,Linux x86_64,60,,,,,,,,,,,
,,,,,,,,,,,,,,a,1,0.68453,space,0.289385,0,106,106,149,1,0_targ_4_dist_green/trial25.png,,,0,4,greenverival,a,33,20,female,2021-02-22_13h22.00.669,exp11,2020.2.6,Linux x86_64,60,,,,,,,,,,,
,,,,,,,,,,,,,,a,1,0.867095,space,0.389855,0,107,107,146,1,0_targ_4_dist_green/trial22.png,,,0,4,greenverival,a,33,20,female,2021-02-22_13h22.00.669,exp11,2020.2.6,Linux x86_64,60,,,,,,,,,,,
,,,,,,,,,,,,,,a,1,0.972425,space,0.2309,0,108,108,188,1,0_targ_16_dist_green/trial14.png,,,0,16,greenverival,a,33,20,female,2021-02-22_13h22.00.669,exp11,2020.2.6,Linux x86_64,60,,,,,,,,,,,
,,,,,,,,,,,,,,a,1,1.08668,space,0.2168,0,109,109,113,1,0_targ_1_dist_green/trial14.png,,,0,1,greenverival,a,33,20,female,2021-02-22_13h22.00.669,exp11,2020.2.6,Linux x86_64,60,,,,,,,,,,,
,,,,,,,,,,,,,,a,1,1.26706,space,0.27828,0,110,110,195,1,0_targ_16_dist_green/trial21.png,,,0,16,greenverival,a,33,20,female,2021-02-22_13h22.00.669,exp11,2020.2.6,Linux x86_64,60,,,,,,,,,,,
,,,,,,,,,,,,,,a,1,0.778345,space,0.23335,0,111,111,164,1,0_targ_10_dist_green/trial15.png,,,0,10,greenverival,a,33,20,female,2021-02-22_13h22.00.669,exp11,2020.2.6,Linux x86_64,60,,,,,,,,,,,
,,,,,,,,,,,,,,p,1,0.680715,space,0.620315,0,112,112,79,1,15_dist_green/trial5.png,,,1,15,greenverival,p,33,20,female,2021-02-22_13h22.00.669,exp11,2020.2.6,Linux x86_64,60,,,,,,,,,,,
,,,,,,,,,,,,,,p,1,0.51838,space,0.2798,0,113,113,22,1,0_dist_green/trial23.png,,,1,0,greenverival,p,33,20,female,2021-02-22_13h22.00.669,exp11,2020.2.6,Linux x86_64,60,,,,,,,,,,,
,,,,,,,,,,,,,,p,1,1.014105,space,0.22523,0,114,114,76,1,15_dist_green/trial2.png,,,1,15,greenverival,p,33,20,female,2021-02-22_13h22.00.669,exp11,2020.2.6,Linux x86_64,60,,,,,,,,,,,
,,,,,,,,,,,,,,a,1,0.80674,space,0.23974,0,115,115,182,1,0_targ_16_dist_green/trial8.png,,,0,16,greenverival,a,33,20,female,2021-02-22_13h22.00.669,exp11,2020.2.6,Linux x86_64,60,,,,,,,,,,,
,,,,,,,,,,,,,,p,1,0.5985,space,0.23187,0,116,116,10,1,0_dist_green/trial11.png,,,1,0,greenverival,p,33,20,female,2021-02-22_13h22.00.669,exp11,2020.2.6,Linux x86_64,60,,,,,,,,,,,
,,,,,,,,,,,,,,a,1,0.63872,space,0.259175,0,117,117,191,1,0_targ_16_dist_green/trial17.png,,,0,16,greenverival,a,33,20,female,2021-02-22_13h22.00.669,exp11,2020.2.6,Linux x86_64,60,,,,,,,,,,,
,,,,,,,,,,,,,,p,1,0.71528,space,0.33868,0,118,118,92,1,15_dist_green/trial18.png,,,1,15,greenverival,p,33,20,female,2021-02-22_13h22.00.669,exp11,2020.2.6,Linux x86_64,60,,,,,,,,,,,
,,,,,,,,,,,,,,a,1,0.704765,space,0.228815,0,119,119,176,1,0_targ_16_dist_green/trial2.png,,,0,16,greenverival,a,33,20,female,2021-02-22_13h22.00.669,exp11,2020.2.6,Linux x86_64,60,,,,,,,,,,,
,,,,,,,,,,,,,,p,1,0.669235,space,0.24804,0,120,120,66,1,9_dist_green/trial17.png,,,1,9,greenverival,p,33,20,female,2021-02-22_13h22.00.669,exp11,2020.2.6,Linux x86_64,60,,,,,,,,,,,
,,,,,,,,,,,,,,a,1,1.05828,space,0.22628,0,121,121,194,1,0_targ_16_dist_green/trial20.png,,,0,16,greenverival,a,33,20,female,2021-02-22_13h22.00.669,exp11,2020.2.6,Linux x86_64,60,,,,,,,,,,,
,,,,,,,,,,,,,,a,1,0.859045,space,0.229355,0,122,122,180,1,0_targ_16_dist_green/trial6.png,,,0,16,greenverival,a,33,20,female,2021-02-22_13h22.00.669,exp11,2020.2.6,Linux x86_64,60,,,,,,,,,,,
,,,,,,,,,,,,,,p,1,0.580805,space,0.240505,0,123,123,32,1,3_dist_green/trial8.png,,,1,3,greenverival,p,33,20,female,2021-02-22_13h22.00.669,exp11,2020.2.6,Linux x86_64,60,,,,,,,,,,,
,,,,,,,,,,,,,,a,1,0.781055,space,0.234485,0,124,124,192,1,0_targ_16_dist_green/trial18.png,,,0,16,greenverival,a,33,20,female,2021-02-22_13h22.00.669,exp11,2020.2.6,Linux x86_64,60,,,,,,,,,,,
,,,,,,,,,,,,,,p,1,0.680215,space,0.25413,0,125,125,43,1,3_dist_green/trial19.png,,,1,3,greenverival,p,33,20,female,2021-02-22_13h22.00.669,exp11,2020.2.6,Linux x86_64,60,,,,,,,,,,,
,,,,,,,,,,,,,,a,1,0.76751,space,0.216515,0,126,126,189,1,0_targ_16_dist_green/trial15.png,,,0,16,greenverival,a,33,20,female,2021-02-22_13h22.00.669,exp11,2020.2.6,Linux x86_64,60,,,,,,,,,,,
,,,,,,,,,,,,,,a,1,0.81021,space,0.245805,0,127,127,128,1,0_targ_4_dist_green/trial4.png,,,0,4,greenverival,a,33,20,female,2021-02-22_13h22.00.669,exp11,2020.2.6,Linux x86_64,60,,,,,,,,,,,
,,,,,,,,,,,,,,a,1,0.68792,space,0.374125,0,128,128,145,1,0_targ_4_dist_green/trial21.png,,,0,4,greenverival,a,33,20,female,2021-02-22_13h22.00.669,exp11,2020.2.6,Linux x86_64,60,,,,,,,,,,,
,,,,,,,,,,,,,,a,0,0.71548,space,1.13472,0,129,129,71,1,9_dist_green/trial22.png,,,1,9,greenverival,p,33,20,female,2021-02-22_13h22.00.669,exp11,2020.2.6,Linux x86_64,60,,,,,,,,,,,
,,,,,,,,,,,,,,a,1,0.79512,space,0.176345,0,130,130,134,1,0_targ_4_dist_green/trial10.png,,,0,4,greenverival,a,33,20,female,2021-02-22_13h22.00.669,exp11,2020.2.6,Linux x86_64,60,,,,,,,,,,,
,,,,,,,,,,,,,,a,1,0.719765,space,0.857505,0,131,131,100,1,0_targ_1_dist_green/trial1.png,,,0,1,greenverival,a,33,20,female,2021-02-22_13h22.00.669,exp11,2020.2.6,Linux x86_64,60,,,,,,,,,,,
,,,,,,,,,,,,,,p,1,0.62765,space,0.401715,0,132,132,48,1,3_dist_green/trial24.png,,,1,3,greenverival,p,33,20,female,2021-02-22_13h22.00.669,exp11,2020.2.6,Linux x86_64,60,,,,,,,,,,,
,,,,,,,,,,,,,,a,1,1.04098,space,0.24206,0,133,133,118,1,0_targ_1_dist_green/trial19.png,,,0,1,greenverival,a,33,20,female,2021-02-22_13h22.00.669,exp11,2020.2.6,Linux x86_64,60,,,,,,,,,,,
,,,,,,,,,,,,,,a,1,0.99271,space,0.30187,0,134,134,139,1,0_targ_4_dist_green/trial15.png,,,0,4,greenverival,a,33,20,female,2021-02-22_13h22.00.669,exp11,2020.2.6,Linux x86_64,60,,,,,,,,,,,
,,,,,,,,,,,,,,p,1,0.623765,space,0.21309,0,135,135,84,1,15_dist_green/trial10.png,,,1,15,greenverival,p,33,20,female,2021-02-22_13h22.00.669,exp11,2020.2.6,Linux x86_64,60,,,,,,,,,,,
,,,,,,,,,,,,,,a,1,0.58251,space,0.269305,0,136,136,108,1,0_targ_1_dist_green/trial9.png,,,0,1,greenverival,a,33,20,female,2021-02-22_13h22.00.669,exp11,2020.2.6,Linux x86_64,60,,,,,,,,,,,
,,,,,,,,,,,,,,a,1,0.75385,space,0.249475,0,137,137,173,1,0_targ_10_dist_green/trial24.png,,,0,10,greenverival,a,33,20,female,2021-02-22_13h22.00.669,exp11,2020.2.6,Linux x86_64,60,,,,,,,,,,,
,,,,,,,,,,,,,,a,1,0.58502,space,0.23924,0,138,138,136,1,0_targ_4_dist_green/trial12.png,,,0,4,greenverival,a,33,20,female,2021-02-22_13h22.00.669,exp11,2020.2.6,Linux x86_64,60,,,,,,,,,,,
,,,,,,,,,,,,,,a,1,0.709165,space,0.25737,0,139,139,119,1,0_targ_1_dist_green/trial20.png,,,0,1,greenverival,a,33,20,female,2021-02-22_13h22.00.669,exp11,2020.2.6,Linux x86_64,60,,,,,,,,,,,
,,,,,,,,,,,,,,a,1,0.841025,space,0.29124,0,140,140,198,1,0_targ_16_dist_green/trial24.png,,,0,16,greenverival,a,33,20,female,2021-02-22_13h22.00.669,exp11,2020.2.6,Linux x86_64,60,,,,,,,,,,,
,,,,,,,,,,,,,,a,1,0.801935,space,0.345135,0,141,141,193,1,0_targ_16_dist_green/trial19.png,,,0,16,greenverival,a,33,20,female,2021-02-22_13h22.00.669,exp11,2020.2.6,Linux x86_64,60,,,,,,,,,,,
,,,,,,,,,,,,,,a,1,0.64961,space,0.315495,0,142,142,166,1,0_targ_10_dist_green/trial17.png,,,0,10,greenverival,a,33,20,female,2021-02-22_13h22.00.669,exp11,2020.2.6,Linux x86_64,60,,,,,,,,,,,
,,,,,,,,,,,,,,p,1,0.67199,space,0.22069,0,143,143,70,1,9_dist_green/trial21.png,,,1,9,greenverival,p,33,20,female,2021-02-22_13h22.00.669,exp11,2020.2.6,Linux x86_64,60,,,,,,,,,,,
,,,,,,,,,,,,,,a,1,0.647125,space,0.22767,0,144,144,185,1,0_targ_16_dist_green/trial11.png,,,0,16,greenverival,a,33,20,female,2021-02-22_13h22.00.669,exp11,2020.2.6,Linux x86_64,60,,,,,,,,,,,
,,,,,,,,,,,,,,a,1,0.60232,space,0.26873,0,145,145,111,1,0_targ_1_dist_green/trial12.png,,,0,1,greenverival,a,33,20,female,2021-02-22_13h22.00.669,exp11,2020.2.6,Linux x86_64,60,,,,,,,,,,,
,,,,,,,,,,,,,,p,1,0.5643,space,0.23942,0,146,146,7,1,0_dist_green/trial8.png,,,1,0,greenverival,p,33,20,female,2021-02-22_13h22.00.669,exp11,2020.2.6,Linux x86_64,60,,,,,,,,,,,
,,,,,,,,,,,,,,a,1,0.586925,space,0.232465,0,147,147,153,1,0_targ_10_dist_green/trial4.png,,,0,10,greenverival,a,33,20,female,2021-02-22_13h22.00.669,exp11,2020.2.6,Linux x86_64,60,,,,,,,,,,,
,,,,,,,,,,,,,,a,1,0.74484,space,0.24105,0,148,148,127,1,0_targ_4_dist_green/trial3.png,,,0,4,greenverival,a,33,20,female,2021-02-22_13h22.00.669,exp11,2020.2.6,Linux x86_64,60,,,,,,,,,,,
,,,,,,,,,,,,,,a,1,0.65047,space,0.239275,0,149,149,158,1,0_targ_10_dist_green/trial9.png,,,0,10,greenverival,a,33,20,female,2021-02-22_13h22.00.669,exp11,2020.2.6,Linux x86_64,60,,,,,,,,,,,
,,,,,,,,,,,,,,a,1,0.77616,space,0.26621,0,150,150,142,1,0_targ_4_dist_green/trial18.png,,,0,4,greenverival,a,33,20,female,2021-02-22_13h22.00.669,exp11,2020.2.6,Linux x86_64,60,,,,,,,,,,,
,,,,,,,,,,,,,,a,1,0.811085,space,0.28948,0,151,151,117,1,0_targ_1_dist_green/trial18.png,,,0,1,greenverival,a,33,20,female,2021-02-22_13h22.00.669,exp11,2020.2.6,Linux x86_64,60,,,,,,,,,,,
,,,,,,,,,,,,,,p,1,0.637035,space,0.2721,0,152,152,36,1,3_dist_green/trial12.png,,,1,3,greenverival,p,33,20,female,2021-02-22_13h22.00.669,exp11,2020.2.6,Linux x86_64,60,,,,,,,,,,,
,,,,,,,,,,,,,,p,1,0.57174,space,0.25155,0,153,153,12,1,0_dist_green/trial13.png,,,1,0,greenverival,p,33,20,female,2021-02-22_13h22.00.669,exp11,2020.2.6,Linux x86_64,60,,,,,,,,,,,
,,,,,,,,,,,,,,p,1,0.684995,space,0.2191,0,154,154,98,1,15_dist_green/trial24.png,,,1,15,greenverival,p,33,20,female,2021-02-22_13h22.00.669,exp11,2020.2.6,Linux x86_64,60,,,,,,,,,,,
,,,,,,,,,,,,,,p,1,0.964365,space,0.266665,0,155,155,57,1,9_dist_green/trial8.png,,,1,9,greenverival,p,33,20,female,2021-02-22_13h22.00.669,exp11,2020.2.6,Linux x86_64,60,,,,,,,,,,,
,,,,,,,,,,,,,,a,1,0.60459,space,0.223855,0,156,156,141,1,0_targ_4_dist_green/trial17.png,,,0,4,greenverival,a,33,20,female,2021-02-22_13h22.00.669,exp11,2020.2.6,Linux x86_64,60,,,,,,,,,,,
,,,,,,,,,,,,,,p,1,0.742645,space,0.298705,0,157,157,80,1,15_dist_green/trial6.png,,,1,15,greenverival,p,33,20,female,2021-02-22_13h22.00.669,exp11,2020.2.6,Linux x86_64,60,,,,,,,,,,,
,,,,,,,,,,,,,,a,1,0.637975,space,0.261375,0,158,158,121,1,0_targ_1_dist_green/trial22.png,,,0,1,greenverival,a,33,20,female,2021-02-22_13h22.00.669,exp11,2020.2.6,Linux x86_64,60,,,,,,,,,,,
,,,,,,,,,,,,,,p,1,0.6317,space,0.24111,0,159,159,3,1,0_dist_green/trial4.png,,,1,0,greenverival,p,33,20,female,2021-02-22_13h22.00.669,exp11,2020.2.6,Linux x86_64,60,,,,,,,,,,,
,,,,,,,,,,,,,,a,1,0.70785,space,0.216685,0,160,160,135,1,0_targ_4_dist_green/trial11.png,,,0,4,greenverival,a,33,20,female,2021-02-22_13h22.00.669,exp11,2020.2.6,Linux x86_64,60,,,,,,,,,,,
,,,,,,,,,,,,,,p,1,0.712445,space,0.31321,0,161,161,94,1,15_dist_green/trial20.png,,,1,15,greenverival,p,33,20,female,2021-02-22_13h22.00.669,exp11,2020.2.6,Linux x86_64,60,,,,,,,,,,,
,,,,,,,,,,,,,,a,1,0.8764,space,0.221145,0,162,162,125,1,0_targ_4_dist_green/trial1.png,,,0,4,greenverival,a,33,20,female,2021-02-22_13h22.00.669,exp11,2020.2.6,Linux x86_64,60,,,,,,,,,,,
,,,,,,,,,,,,,,a,1,0.665255,space,0.25973,0,163,163,150,1,0_targ_10_dist_green/trial1.png,,,0,10,greenverival,a,33,20,female,2021-02-22_13h22.00.669,exp11,2020.2.6,Linux x86_64,60,,,,,,,,,,,
,,,,,,,,,,,,,,p,1,0.58371,space,0.3245,0,164,164,35,1,3_dist_green/trial11.png,,,1,3,greenverival,p,33,20,female,2021-02-22_13h22.00.669,exp11,2020.2.6,Linux x86_64,60,,,,,,,,,,,
,,,,,,,,,,,,,,a,1,0.74726,space,0.309765,0,165,165,161,1,0_targ_10_dist_green/trial12.png,,,0,10,greenverival,a,33,20,female,2021-02-22_13h22.00.669,exp11,2020.2.6,Linux x86_64,60,,,,,,,,,,,
,,,,,,,,,,,,,,p,1,0.60789,space,0.27234,0,166,166,41,1,3_dist_green/trial17.png,,,1,3,greenverival,p,33,20,female,2021-02-22_13h22.00.669,exp11,2020.2.6,Linux x86_64,60,,,,,,,,,,,
,,,,,,,,,,,,,,p,1,0.667335,space,0.26535,0,167,167,77,1,15_dist_green/trial3.png,,,1,15,greenverival,p,33,20,female,2021-02-22_13h22.00.669,exp11,2020.2.6,Linux x86_64,60,,,,,,,,,,,
,,,,,,,,,,,,,,p,1,0.57881,space,0.269205,0,168,168,8,1,0_dist_green/trial9.png,,,1,0,greenverival,p,33,20,female,2021-02-22_13h22.00.669,exp11,2020.2.6,Linux x86_64,60,,,,,,,,,,,
,,,,,,,,,,,,,,a,1,0.63685,space,0.257185,0,169,169,120,1,0_targ_1_dist_green/trial21.png,,,0,1,greenverival,a,33,20,female,2021-02-22_13h22.00.669,exp11,2020.2.6,Linux x86_64,60,,,,,,,,,,,
,,,,,,,,,,,,,,a,1,0.81302,space,0.352165,0,170,170,137,1,0_targ_4_dist_green/trial13.png,,,0,4,greenverival,a,33,20,female,2021-02-22_13h22.00.669,exp11,2020.2.6,Linux x86_64,60,,,,,,,,,,,
,,,,,,,,,,,,,,a,1,0.56801,space,0.243875,0,171,171,130,1,0_targ_4_dist_green/trial6.png,,,0,4,greenverival,a,33,20,female,2021-02-22_13h22.00.669,exp11,2020.2.6,Linux x86_64,60,,,,,,,,,,,
,,,,,,,,,,,,,,p,1,0.67058,space,0.422915,0,172,172,60,1,9_dist_green/trial11.png,,,1,9,greenverival,p,33,20,female,2021-02-22_13h22.00.669,exp11,2020.2.6,Linux x86_64,60,,,,,,,,,,,
,,,,,,,,,,,,,,a,1,0.688265,space,0.221555,0,173,173,177,1,0_targ_16_dist_green/trial3.png,,,0,16,greenverival,a,33,20,female,2021-02-22_13h22.00.669,exp11,2020.2.6,Linux x86_64,60,,,,,,,,,,,
,,,,,,,,,,,,,,p,1,0.54898,space,0.21397,0,174,174,13,1,0_dist_green/trial14.png,,,1,0,greenverival,p,33,20,female,2021-02-22_13h22.00.669,exp11,2020.2.6,Linux x86_64,60,,,,,,,,,,,
,,,,,,,,,,,,,,p,1,0.63164,space,0.2346,0,175,175,47,1,3_dist_green/trial23.png,,,1,3,greenverival,p,33,20,female,2021-02-22_13h22.00.669,exp11,2020.2.6,Linux x86_64,60,,,,,,,,,,,
,,,,,,,,,,,,,,p,1,0.62861,space,0.22103,0,176,176,82,1,15_dist_green/trial8.png,,,1,15,greenverival,p,33,20,female,2021-02-22_13h22.00.669,exp11,2020.2.6,Linux x86_64,60,,,,,,,,,,,
,,,,,,,,,,,,,,p,1,1.06996,space,0.216465,0,177,177,97,1,15_dist_green/trial23.png,,,1,15,greenverival,p,33,20,female,2021-02-22_13h22.00.669,exp11,2020.2.6,Linux x86_64,60,,,,,,,,,,,
,,,,,,,,,,,,,,p,1,0.63065,space,0.2107,0,178,178,30,1,3_dist_green/trial6.png,,,1,3,greenverival,p,33,20,female,2021-02-22_13h22.00.669,exp11,2020.2.6,Linux x86_64,60,,,,,,,,,,,
,,,,,,,,,,,,,,p,1,0.567695,space,0.202035,0,179,179,18,1,0_dist_green/trial19.png,,,1,0,greenverival,p,33,20,female,2021-02-22_13h22.00.669,exp11,2020.2.6,Linux x86_64,60,,,,,,,,,,,
,,,,,,,,,,,,,,p,1,0.600905,space,0.225665,0,180,180,64,1,9_dist_green/trial15.png,,,1,9,greenverival,p,33,20,female,2021-02-22_13h22.00.669,exp11,2020.2.6,Linux x86_64,60,,,,,,,,,,,
,,,,,,,,,,,,,,p,1,0.685375,space,0.35434,0,181,181,95,1,15_dist_green/trial21.png,,,1,15,greenverival,p,33,20,female,2021-02-22_13h22.00.669,exp11,2020.2.6,Linux x86_64,60,,,,,,,,,,,
,,,,,,,,,,,,,,a,1,0.69327,space,0.21788,0,182,182,151,1,0_targ_10_dist_green/trial2.png,,,0,10,greenverival,a,33,20,female,2021-02-22_13h22.00.669,exp11,2020.2.6,Linux x86_64,60,,,,,,,,,,,
,,,,,,,,,,,,,,a,1,0.724505,space,0.295345,0,183,183,126,1,0_targ_4_dist_green/trial2.png,,,0,4,greenverival,a,33,20,female,2021-02-22_13h22.00.669,exp11,2020.2.6,Linux x86_64,60,,,,,,,,,,,
,,,,,,,,,,,,,,a,1,0.549895,space,0.261525,0,184,184,140,1,0_targ_4_dist_green/trial6.png,,,0,4,greenverival,a,33,20,female,2021-02-22_13h22.00.669,exp11,2020.2.6,Linux x86_64,60,,,,,,,,,,,
,,,,,,,,,,,,,,a,1,0.533495,space,0.248865,0,185,185,123,1,0_targ_1_dist_green/trial24.png,,,0,1,greenverival,a,33,20,female,2021-02-22_13h22.00.669,exp11,2020.2.6,Linux x86_64,60,,,,,,,,,,,
,,,,,,,,,,,,,,p,1,0.636695,space,0.235405,0,186,186,50,1,9_dist_green/trial1.png,,,1,9,greenverival,p,33,20,female,2021-02-22_13h22.00.669,exp11,2020.2.6,Linux x86_64,60,,,,,,,,,,,
,,,,,,,,,,,,,,a,1,0.73471,space,0.18745,0,187,187,178,1,0_targ_16_dist_green/trial4.png,,,0,16,greenverival,a,33,20,female,2021-02-22_13h22.00.669,exp11,2020.2.6,Linux x86_64,60,,,,,,,,,,,
,,,,,,,,,,,,,,p,1,0.59637,space,0.22262,0,188,188,5,1,0_dist_green/trial6.png,,,1,0,greenverival,p,33,20,female,2021-02-22_13h22.00.669,exp11,2020.2.6,Linux x86_64,60,,,,,,,,,,,
,,,,,,,,,,,,,,a,1,0.622885,space,0.216305,0,189,189,160,1,0_targ_10_dist_green/trial11.png,,,0,10,greenverival,a,33,20,female,2021-02-22_13h22.00.669,exp11,2020.2.6,Linux x86_64,60,,,,,,,,,,,
,,,,,,,,,,,,,,a,1,0.65552,space,0.187295,0,190,190,183,1,0_targ_16_dist_green/trial9.png,,,0,16,greenverival,a,33,20,female,2021-02-22_13h22.00.669,exp11,2020.2.6,Linux x86_64,60,,,,,,,,,,,
,,,,,,,,,,,,,,p,1,0.7147,space,0.20763,0,191,191,81,1,15_dist_green/trial7.png,,,1,15,greenverival,p,33,20,female,2021-02-22_13h22.00.669,exp11,2020.2.6,Linux x86_64,60,,,,,,,,,,,
,,,,,,,,,,,,,,p,1,0.562875,space,0.234575,0,192,192,23,1,0_dist_green/trial24.png,,,1,0,greenverival,p,33,20,female,2021-02-22_13h22.00.669,exp11,2020.2.6,Linux x86_64,60,,,,,,,,,,,
,,,,,,,,,,,,,,a,1,0.606645,space,0.185605,0,193,193,131,1,0_targ_4_dist_green/trial7.png,,,0,4,greenverival,a,33,20,female,2021-02-22_13h22.00.669,exp11,2020.2.6,Linux x86_64,60,,,,,,,,,,,
,,,,,,,,,,,,,,a,1,0.64022,space,0.22861,0,194,194,170,1,0_targ_10_dist_green/trial21.png,,,0,10,greenverival,a,33,20,female,2021-02-22_13h22.00.669,exp11,2020.2.6,Linux x86_64,60,,,,,,,,,,,
,,,,,,,,,,,,,,a,1,0.668055,space,0.239965,0,195,195,167,1,0_targ_10_dist_green/trial18.png,,,0,10,greenverival,a,33,20,female,2021-02-22_13h22.00.669,exp11,2020.2.6,Linux x86_64,60,,,,,,,,,,,
,,,,,,,,,,,,,,p,1,0.566085,space,0.223125,0,196,196,0,1,0_dist_green/trial1.png,,,1,0,greenverival,p,33,20,female,2021-02-22_13h22.00.669,exp11,2020.2.6,Linux x86_64,60,,,,,,,,,,,
,,,,,,,,,,,,,,a,1,0.62447,space,0.20771,0,197,197,162,1,0_targ_10_dist_green/trial13.png,,,0,10,greenverival,a,33,20,female,2021-02-22_13h22.00.669,exp11,2020.2.6,Linux x86_64,60,,,,,,,,,,,
,,,,,,,,,,,,,,p,1,0.64904,space,0.245015,0,198,198,85,1,15_dist_green/trial11.png,,,1,15,greenverival,p,33,20,female,2021-02-22_13h22.00.669,exp11,2020.2.6,Linux x86_64,60,,,,,,,,,,,
,,,,,,,,,,,,,,p,1,0.59606,space,0.21201,0,199,199,88,1,15_dist_green/trial14.png,,,1,15,greenverival,p,33,20,female,2021-02-22_13h22.00.669,exp11,2020.2.6,Linux x86_64,60,,,,,,,,,,,
,,,,,,,,,,,,,,,,,,,,,,,,,,,,,,,33,20,female,2021-02-22_13h22.00.669,exp11,2020.2.6,Linux x86_64,60,0,0,0,0,1,conGreen.xlsx,green vertical,Look for green vertical bar (target) and indicate if it is present or absent in the array. If green vertical target is present press 'p' and if absent press 'a'. Press SPACE to start.,,,
,,,,,,,,,,space,12.770005,space,5.21893,a,1,0.944105,space,0.250515,0,0,0,129,1,0_targ_4_dist_red/trial5.png,,,0,4,redHorizontal,a,33,20,female,2021-02-22_13h22.00.669,exp11,2020.2.6,Linux x86_64,60,,,,,,,,,,,
,,,,,,,,,,,,,,p,1,0.73035,space,0.20037,0,1,1,51,1,9_dist_red/trial2.png,,,1,9,redHorizontal,p,33,20,female,2021-02-22_13h22.00.669,exp11,2020.2.6,Linux x86_64,60,,,,,,,,,,,
,,,,,,,,,,,,,,a,1,0.79967,space,0.25441,0,2,2,154,1,0_targ_10_dist_red/trial5.png,,,0,10,redHorizontal,a,33,20,female,2021-02-22_13h22.00.669,exp11,2020.2.6,Linux x86_64,60,,,,,,,,,,,
,,,,,,,,,,,,,,p,1,0.63102,space,0.223605,0,3,3,33,1,3_dist_red/trial9.png,,,1,3,redHorizontal,p,33,20,female,2021-02-22_13h22.00.669,exp11,2020.2.6,Linux x86_64,60,,,,,,,,,,,
,,,,,,,,,,,,,,p,1,0.596165,space,0.271165,0,4,4,32,1,3_dist_red/trial8.png,,,1,3,redHorizontal,p,33,20,female,2021-02-22_13h22.00.669,exp11,2020.2.6,Linux x86_64,60,,,,,,,,,,,
,,,,,,,,,,,,,,p,1,0.68746,space,0.2132,0,5,5,81,1,15_dist_red/trial7.png,,,1,15,redHorizontal,p,33,20,female,2021-02-22_13h22.00.669,exp11,2020.2.6,Linux x86_64,60,,,,,,,,,,,
,,,,,,,,,,,,,,p,1,0.689305,space,0.224225,0,6,6,26,1,3_dist_red/trial2.png,,,1,3,redHorizontal,p,33,20,female,2021-02-22_13h22.00.669,exp11,2020.2.6,Linux x86_64,60,,,,,,,,,,,
,,,,,,,,,,,,,,p,1,1.00798,space,0.20778,0,7,7,24,1,0_dist_red/trial25.png,,,1,0,redHorizontal,p,33,20,female,2021-02-22_13h22.00.669,exp11,2020.2.6,Linux x86_64,60,,,,,,,,,,,
,,,,,,,,,,,,,,a,1,0.613835,space,0.204585,0,8,8,131,1,0_targ_4_dist_red/trial7.png,,,0,4,redHorizontal,a,33,20,female,2021-02-22_13h22.00.669,exp11,2020.2.6,Linux x86_64,60,,,,,,,,,,,
,,,,,,,,,,,,,,a,1,0.837975,space,0.216005,0,9,9,168,1,0_targ_10_dist_red/trial19.png,,,0,10,redHorizontal,a,33,20,female,2021-02-22_13h22.00.669,exp11,2020.2.6,Linux x86_64,60,,,,,,,,,,,
,,,,,,,,,,,,,,p,1,0.87177,space,0.204205,0,10,10,77,1,15_dist_red/trial3.png,,,1,15,redHorizontal,p,33,20,female,2021-02-22_13h22.00.669,exp11,2020.2.6,Linux x86_64,60,,,,,,,,,,,
,,,,,,,,,,,,,,p,1,0.96455,space,0.196745,0,11,11,92,1,15_dist_red/trial18.png,,,1,15,redHorizontal,p,33,20,female,2021-02-22_13h22.00.669,exp11,2020.2.6,Linux x86_64,60,,,,,,,,,,,
,,,,,,,,,,,,,,a,1,0.919955,space,0.19959,0,12,12,158,1,0_targ_10_dist_red/trial9.png,,,0,10,redHorizontal,a,33,20,female,2021-02-22_13h22.00.669,exp11,2020.2.6,Linux x86_64,60,,,,,,,,,,,
,,,,,,,,,,,,,,p,1,0.743665,space,0.189175,0,13,13,73,1,9_dist_red/trial24.png,,,1,9,redHorizontal,p,33,20,female,2021-02-22_13h22.00.669,exp11,2020.2.6,Linux x86_64,60,,,,,,,,,,,
,,,,,,,,,,,,,,a,1,0.69547,space,0.21101,0,14,14,114,1,0_targ_1_dist_red/trial15.png,,,0,1,redHorizontal,a,33,20,female,2021-02-22_13h22.00.669,exp11,2020.2.6,Linux x86_64,60,,,,,,,,,,,
,,,,,,,,,,,,,,a,1,0.91094,space,0.210805,0,15,15,145,1,0_targ_4_dist_red/trial21.png,,,0,4,redHorizontal,a,33,20,female,2021-02-22_13h22.00.669,exp11,2020.2.6,Linux x86_64,60,,,,,,,,,,,
,,,,,,,,,,,,,,p,1,1.33005,space,0.22564,0,16,16,17,1,0_dist_red/trial18.png,,,1,0,redHorizontal,p,33,20,female,2021-02-22_13h22.00.669,exp11,2020.2.6,Linux x86_64,60,,,,,,,,,,,
,,,,,,,,,,,,,,p,1,0.610725,space,0.20608,0,17,17,62,1,9_dist_red/trial13.png,,,1,9,redHorizontal,p,33,20,female,2021-02-22_13h22.00.669,exp11,2020.2.6,Linux x86_64,60,,,,,,,,,,,
,,,,,,,,,,,,,,p,1,0.66895,space,0.24111,0,18,18,37,1,3_dist_red/trial13.png,,,1,3,redHorizontal,p,33,20,female,2021-02-22_13h22.00.669,exp11,2020.2.6,Linux x86_64,60,,,,,,,,,,,
,,,,,,,,,,,,,,a,1,0.806565,space,0.19682,0,19,19,146,1,0_targ_4_dist_red/trial22.png,,,0,4,redHorizontal,a,33,20,female,2021-02-22_13h22.00.669,exp11,2020.2.6,Linux x86_64,60,,,,,,,,,,,
,,,,,,,,,,,,,,a,1,0.883645,space,0.29173,0,20,20,191,1,0_targ_16_dist_red/trial17.png,,,0,16,redHorizontal,a,33,20,female,2021-02-22_13h22.00.669,exp11,2020.2.6,Linux x86_64,60,,,,,,,,,,,
,,,,,,,,,,,,,,p,1,0.74934,space,0.193705,0,21,21,88,1,15_dist_red/trial14.png,,,1,15,redHorizontal,p,33,20,female,2021-02-22_13h22.00.669,exp11,2020.2.6,Linux x86_64,60,,,,,,,,,,,
,,,,,,,,,,,,,,p,1,0.64534,space,0.225695,0,22,22,64,1,9_dist_red/trial15.png,,,1,9,redHorizontal,p,33,20,female,2021-02-22_13h22.00.669,exp11,2020.2.6,Linux x86_64,60,,,,,,,,,,,
,,,,,,,,,,,,,,p,1,0.53196,space,0.21833,0,23,23,48,1,3_dist_red/trial24.png,,,1,3,redHorizontal,p,33,20,female,2021-02-22_13h22.00.669,exp11,2020.2.6,Linux x86_64,60,,,,,,,,,,,
,,,,,,,,,,,,,,a,1,1.1993,space,0.242485,0,24,24,112,1,0_targ_1_dist_red/trial13.png,,,0,1,redHorizontal,a,33,20,female,2021-02-22_13h22.00.669,exp11,2020.2.6,Linux x86_64,60,,,,,,,,,,,
,,,,,,,,,,,,,,p,1,0.746805,space,0.264945,0,25,25,71,1,9_dist_red/trial22.png,,,1,9,redHorizontal,p,33,20,female,2021-02-22_13h22.00.669,exp11,2020.2.6,Linux x86_64,60,,,,,,,,,,,
,,,,,,,,,,,,,,p,1,1.358915,space,0.2031,0,26,26,58,1,9_dist_red/trial9.png,,,1,9,redHorizontal,p,33,20,female,2021-02-22_13h22.00.669,exp11,2020.2.6,Linux x86_64,60,,,,,,,,,,,
,,,,,,,,,,,,,,a,0,0.78046,space,0.716475,0,27,27,90,1,15_dist_red/trial16.png,,,1,15,redHorizontal,p,33,20,female,2021-02-22_13h22.00.669,exp11,2020.2.6,Linux x86_64,60,,,,,,,,,,,
,,,,,,,,,,,,,,p,1,0.820665,space,0.22092,0,28,28,46,1,3_dist_red/trial22.png,,,1,3,redHorizontal,p,33,20,female,2021-02-22_13h22.00.669,exp11,2020.2.6,Linux x86_64,60,,,,,,,,,,,
,,,,,,,,,,,,,,p,1,0.90758,space,0.229875,0,29,29,40,1,3_dist_red/trial16.png,,,1,3,redHorizontal,p,33,20,female,2021-02-22_13h22.00.669,exp11,2020.2.6,Linux x86_64,60,,,,,,,,,,,
,,,,,,,,,,,,,,p,1,0.95803,space,0.304065,0,30,30,59,1,9_dist_red/trial10.png,,,1,9,redHorizontal,p,33,20,female,2021-02-22_13h22.00.669,exp11,2020.2.6,Linux x86_64,60,,,,,,,,,,,
,,,,,,,,,,,,,,p,1,0.67361,space,0.24876,0,31,31,55,1,9_dist_red/trial6.png,,,1,9,redHorizontal,p,33,20,female,2021-02-22_13h22.00.669,exp11,2020.2.6,Linux x86_64,60,,,,,,,,,,,
,,,,,,,,,,,,,,a,1,1.55044,space,0.19173,0,32,32,175,1,0_targ_16_dist_red/trial1.png,,,0,16,redHorizontal,a,33,20,female,2021-02-22_13h22.00.669,exp11,2020.2.6,Linux x86_64,60,,,,,,,,,,,
,,,,,,,,,,,,,,a,1,0.73813,space,0.228275,0,33,33,147,1,0_targ_4_dist_red/trial23.png,,,0,4,redHorizontal,a,33,20,female,2021-02-22_13h22.00.669,exp11,2020.2.6,Linux x86_64,60,,,,,,,,,,,
,,,,,,,,,,,,,,a,1,0.563345,space,0.23768,0,34,34,134,1,0_targ_4_dist_red/trial10.png,,,0,4,redHorizontal,a,33,20,female,2021-02-22_13h22.00.669,exp11,2020.2.6,Linux x86_64,60,,,,,,,,,,,
,,,,,,,,,,,,,,a,1,0.60009,space,0.321775,0,35,35,136,1,0_targ_4_dist_red/trial12.png,,,0,4,redHorizontal,a,33,20,female,2021-02-22_13h22.00.669,exp11,2020.2.6,Linux x86_64,60,,,,,,,,,,,
,,,,,,,,,,,,,,p,1,0.69776,space,0.205225,0,36,36,50,1,9_dist_red/trial1.png,,,1,9,redHorizontal,p,33,20,female,2021-02-22_13h22.00.669,exp11,2020.2.6,Linux x86_64,60,,,,,,,,,,,
,,,,,,,,,,,,,,p,1,0.52749,space,0.24368,0,37,37,35,1,3_dist_red/trial11.png,,,1,3,redHorizontal,p,33,20,female,2021-02-22_13h22.00.669,exp11,2020.2.6,Linux x86_64,60,,,,,,,,,,,
,,,,,,,,,,,,,,a,1,1.06105,space,0.23914,0,38,38,155,1,0_targ_10_dist_red/trial6.png,,,0,10,redHorizontal,a,33,20,female,2021-02-22_13h22.00.669,exp11,2020.2.6,Linux x86_64,60,,,,,,,,,,,
,,,,,,,,,,,,,,p,1,0.634975,space,0.20556,0,39,39,15,1,0_dist_red/trial16.png,,,1,0,redHorizontal,p,33,20,female,2021-02-22_13h22.00.669,exp11,2020.2.6,Linux x86_64,60,,,,,,,,,,,
,,,,,,,,,,,,,,p,1,0.629745,space,0.283525,0,40,40,91,1,15_dist_red/trial17.png,,,1,15,redHorizontal,p,33,20,female,2021-02-22_13h22.00.669,exp11,2020.2.6,Linux x86_64,60,,,,,,,,,,,
,,,,,,,,,,,,,,a,1,0.79339,space,0.31397,0,41,41,169,1,0_targ_10_dist_red/trial20.png,,,0,10,redHorizontal,a,33,20,female,2021-02-22_13h22.00.669,exp11,2020.2.6,Linux x86_64,60,,,,,,,,,,,
,,,,,,,,,,,,,,a,1,0.663775,space,0.33035,0,42,42,152,1,0_targ_10_dist_red/trial3.png,,,0,10,redHorizontal,a,33,20,female,2021-02-22_13h22.00.669,exp11,2020.2.6,Linux x86_64,60,,,,,,,,,,,
,,,,,,,,,,,,,,p,1,0.664245,space,0.22835,0,43,43,94,1,15_dist_red/trial20.png,,,1,15,redHorizontal,p,33,20,female,2021-02-22_13h22.00.669,exp11,2020.2.6,Linux x86_64,60,,,,,,,,,,,
,,,,,,,,,,,,,,p,1,0.713035,space,0.20174,0,44,44,9,1,0_dist_red/trial10.png,,,1,0,redHorizontal,p,33,20,female,2021-02-22_13h22.00.669,exp11,2020.2.6,Linux x86_64,60,,,,,,,,,,,
,,,,,,,,,,,,,,p,1,0.74383,space,0.20876,0,45,45,20,1,0_dist_red/trial21.png,,,1,0,redHorizontal,p,33,20,female,2021-02-22_13h22.00.669,exp11,2020.2.6,Linux x86_64,60,,,,,,,,,,,
,,,,,,,,,,,,,,p,1,0.638385,space,0.214985,0,46,46,87,1,15_dist_red/trial13.png,,,1,15,redHorizontal,p,33,20,female,2021-02-22_13h22.00.669,exp11,2020.2.6,Linux x86_64,60,,,,,,,,,,,
,,,,,,,,,,,,,,a,1,0.83458,space,0.22932,0,47,47,122,1,0_targ_1_dist_red/trial23.png,,,0,1,redHorizontal,a,33,20,female,2021-02-22_13h22.00.669,exp11,2020.2.6,Linux x86_64,60,,,,,,,,,,,
,,,,,,,,,,,,,,p,1,0.58317,space,0.184335,0,48,48,39,1,3_dist_red/trial15.png,,,1,3,redHorizontal,p,33,20,female,2021-02-22_13h22.00.669,exp11,2020.2.6,Linux x86_64,60,,,,,,,,,,,
,,,,,,,,,,,,,,a,1,0.83385,space,0.28705,0,49,49,183,1,0_targ_16_dist_red/trial9.png,,,0,16,redHorizontal,a,33,20,female,2021-02-22_13h22.00.669,exp11,2020.2.6,Linux x86_64,60,,,,,,,,,,,
,,,,,,,,,,,,,,a,1,0.82392,space,0.2876,0,50,50,186,1,0_targ_16_dist_red/trial12.png,,,0,16,redHorizontal,a,33,20,female,2021-02-22_13h22.00.669,exp11,2020.2.6,Linux x86_64,60,,,,,,,,,,,
,,,,,,,,,,,,,,a,1,1.33959,space,0.29318,0,51,51,184,1,0_targ_16_dist_red/trial10.png,,,0,16,redHorizontal,a,33,20,female,2021-02-22_13h22.00.669,exp11,2020.2.6,Linux x86_64,60,,,,,,,,,,,
,,,,,,,,,,,,,,a,1,0.739485,space,0.213275,0,52,52,107,1,0_targ_1_dist_red/trial8.png,,,0,1,redHorizontal,a,33,20,female,2021-02-22_13h22.00.669,exp11,2020.2.6,Linux x86_64,60,,,,,,,,,,,
,,,,,,,,,,,,,,a,1,0.694785,space,0.23331,0,53,53,181,1,0_targ_16_dist_red/trial7.png,,,0,16,redHorizontal,a,33,20,female,2021-02-22_13h22.00.669,exp11,2020.2.6,Linux x86_64,60,,,,,,,,,,,
,,,,,,,,,,,,,,a,1,0.624275,space,0.29887,0,54,54,133,1,0_targ_4_dist_red/trial9.png,,,0,4,redHorizontal,a,33,20,female,2021-02-22_13h22.00.669,exp11,2020.2.6,Linux x86_64,60,,,,,,,,,,,
,,,,,,,,,,,,,,a,1,0.732225,space,0.22268,0,55,55,117,1,0_targ_1_dist_red/trial18.png,,,0,1,redHorizontal,a,33,20,female,2021-02-22_13h22.00.669,exp11,2020.2.6,Linux x86_64,60,,,,,,,,,,,
,,,,,,,,,,,,,,a,1,0.565315,space,0.22995,0,56,56,101,1,0_targ_1_dist_red/trial2.png,,,0,1,redHorizontal,a,33,20,female,2021-02-22_13h22.00.669,exp11,2020.2.6,Linux x86_64,60,,,,,,,,,,,
,,,,,,,,,,,,,,a,1,0.800045,space,0.19232,0,57,57,161,1,0_targ_10_dist_red/trial12.png,,,0,10,redHorizontal,a,33,20,female,2021-02-22_13h22.00.669,exp11,2020.2.6,Linux x86_64,60,,,,,,,,,,,
,,,,,,,,,,,,,,a,1,0.81707,space,0.31155,0,58,58,195,1,0_targ_16_dist_red/trial21.png,,,0,16,redHorizontal,a,33,20,female,2021-02-22_13h22.00.669,exp11,2020.2.6,Linux x86_64,60,,,,,,,,,,,
,,,,,,,,,,,,,,a,1,0.69604,space,0.22461,0,59,59,189,1,0_targ_16_dist_red/trial15.png,,,0,16,redHorizontal,a,33,20,female,2021-02-22_13h22.00.669,exp11,2020.2.6,Linux x86_64,60,,,,,,,,,,,
,,,,,,,,,,,,,,p,1,0.750575,space,0.243365,0,60,60,99,1,15_dist_red/trial25.png,,,1,15,redHorizontal,p,33,20,female,2021-02-22_13h22.00.669,exp11,2020.2.6,Linux x86_64,60,,,,,,,,,,,
,,,,,,,,,,,,,,a,1,0.593405,space,0.209645,0,61,61,170,1,0_targ_10_dist_red/trial21.png,,,0,10,redHorizontal,a,33,20,female,2021-02-22_13h22.00.669,exp11,2020.2.6,Linux x86_64,60,,,,,,,,,,,
,,,,,,,,,,,,,,a,1,0.722765,space,0.21773,0,62,62,110,1,0_targ_1_dist_red/trial11.png,,,0,1,redHorizontal,a,33,20,female,2021-02-22_13h22.00.669,exp11,2020.2.6,Linux x86_64,60,,,,,,,,,,,
,,,,,,,,,,,,,,p,1,0.62013,space,0.21467,0,63,63,18,1,0_dist_red/trial19.png,,,1,0,redHorizontal,p,33,20,female,2021-02-22_13h22.00.669,exp11,2020.2.6,Linux x86_64,60,,,,,,,,,,,
,,,,,,,,,,,,,,a,1,0.55424,space,0.202155,0,64,64,198,1,0_targ_16_dist_red/trial24.png,,,0,16,redHorizontal,a,33,20,female,2021-02-22_13h22.00.669,exp11,2020.2.6,Linux x86_64,60,,,,,,,,,,,
,,,,,,,,,,,,,,a,1,0.634725,space,0.278485,0,65,65,106,1,0_targ_1_dist_red/trial7.png,,,0,1,redHorizontal,a,33,20,female,2021-02-22_13h22.00.669,exp11,2020.2.6,Linux x86_64,60,,,,,,,,,,,
,,,,,,,,,,,,,,a,1,0.647065,space,0.19626,0,66,66,142,1,0_targ_4_dist_red/trial18.png,,,0,4,redHorizontal,a,33,20,female,2021-02-22_13h22.00.669,exp11,2020.2.6,Linux x86_64,60,,,,,,,,,,,
,,,,,,,,,,,,,,a,1,0.832935,space,0.197955,0,67,67,176,1,0_targ_16_dist_red/trial2.png,,,0,16,redHorizontal,a,33,20,female,2021-02-22_13h22.00.669,exp11,2020.2.6,Linux x86_64,60,,,,,,,,,,,
,,,,,,,,,,,,,,p,1,0.65235,space,0.195505,0,68,68,86,1,15_dist_red/trial12.png,,,1,15,redHorizontal,p,33,20,female,2021-02-22_13h22.00.669,exp11,2020.2.6,Linux x86_64,60,,,,,,,,,,,
,,,,,,,,,,,,,,p,1,0.8471,space,0.223685,0,69,69,42,1,3_dist_red/trial18.png,,,1,3,redHorizontal,p,33,20,female,2021-02-22_13h22.00.669,exp11,2020.2.6,Linux x86_64,60,,,,,,,,,,,
,,,,,,,,,,,,,,p,1,0.56207,space,0.218355,0,70,70,38,1,3_dist_red/trial14.png,,,1,3,redHorizontal,p,33,20,female,2021-02-22_13h22.00.669,exp11,2020.2.6,Linux x86_64,60,,,,,,,,,,,
,,,,,,,,,,,,,,a,1,0.52734,space,0.1199,0,71,71,177,1,0_targ_16_dist_red/trial3.png,,,0,16,redHorizontal,a,33,20,female,2021-02-22_13h22.00.669,exp11,2020.2.6,Linux x86_64,60,,,,,,,,,,,
,,,,,,,,,,,,,,a,1,0.616775,space,0.229415,0,72,72,123,1,0_targ_1_dist_red/trial24.png,,,0,1,redHorizontal,a,33,20,female,2021-02-22_13h22.00.669,exp11,2020.2.6,Linux x86_64,60,,,,,,,,,,,
,,,,,,,,,,,,,,p,1,0.616415,space,0.17606,0,73,73,11,1,0_dist_red/trial12.png,,,1,0,redHorizontal,p,33,20,female,2021-02-22_13h22.00.669,exp11,2020.2.6,Linux x86_64,60,,,,,,,,,,,
,,,,,,,,,,,,,,a,0,0.68399,space,1.115485,0,74,74,34,1,3_dist_red/trial10.png,,,1,3,redHorizontal,p,33,20,female,2021-02-22_13h22.00.669,exp11,2020.2.6,Linux x86_64,60,,,,,,,,,,,
,,,,,,,,,,,,,,a,1,0.904285,space,0.184865,0,75,75,188,1,0_targ_16_dist_red/trial14.png,,,0,16,redHorizontal,a,33,20,female,2021-02-22_13h22.00.669,exp11,2020.2.6,Linux x86_64,60,,,,,,,,,,,
,,,,,,,,,,,,,,a,1,0.65887,space,0.24391,0,76,76,150,1,0_targ_10_dist_red/trial1.png,,,0,10,redHorizontal,a,33,20,female,2021-02-22_13h22.00.669,exp11,2020.2.6,Linux x86_64,60,,,,,,,,,,,
,,,,,,,,,,,,,,p,1,0.585225,space,0.24106,0,77,77,68,1,9_dist_red/trial19.png,,,1,9,redHorizontal,p,33,20,female,2021-02-22_13h22.00.669,exp11,2020.2.6,Linux x86_64,60,,,,,,,,,,,
,,,,,,,,,,,,,,p,1,0.585685,space,0.242135,0,78,78,10,1,0_dist_red/trial11.png,,,1,0,redHorizontal,p,33,20,female,2021-02-22_13h22.00.669,exp11,2020.2.6,Linux x86_64,60,,,,,,,,,,,
,,,,,,,,,,,,,,p,1,0.642395,space,0.224595,0,79,79,89,1,15_dist_red/trial15.png,,,1,15,redHorizontal,p,33,20,female,2021-02-22_13h22.00.669,exp11,2020.2.6,Linux x86_64,60,,,,,,,,,,,
,,,,,,,,,,,,,,a,1,0.636075,space,0.20597,0,80,80,144,1,0_targ_4_dist_red/trial20.png,,,0,4,redHorizontal,a,33,20,female,2021-02-22_13h22.00.669,exp11,2020.2.6,Linux x86_64,60,,,,,,,,,,,
,,,,,,,,,,,,,,a,1,0.523195,space,0.23897,0,81,81,167,1,0_targ_10_dist_red/trial18.png,,,0,10,redHorizontal,a,33,20,female,2021-02-22_13h22.00.669,exp11,2020.2.6,Linux x86_64,60,,,,,,,,,,,
,,,,,,,,,,,,,,a,1,0.71977,space,0.240245,0,82,82,178,1,0_targ_16_dist_red/trial4.png,,,0,16,redHorizontal,a,33,20,female,2021-02-22_13h22.00.669,exp11,2020.2.6,Linux x86_64,60,,,,,,,,,,,
,,,,,,,,,,,,,,a,1,0.7449,space,0.21164,0,83,83,105,1,0_targ_1_dist_red/trial6.png,,,0,1,redHorizontal,a,33,20,female,2021-02-22_13h22.00.669,exp11,2020.2.6,Linux x86_64,60,,,,,,,,,,,
,,,,,,,,,,,,,,a,1,0.755615,space,1.513275,0,84,84,103,1,0_targ_1_dist_red/trial4.png,,,0,1,redHorizontal,a,33,20,female,2021-02-22_13h22.00.669,exp11,2020.2.6,Linux x86_64,60,,,,,,,,,,,
,,,,,,,,,,,,,,p,1,0.68317,space,0.246755,0,85,85,41,1,3_dist_red/trial17.png,,,1,3,redHorizontal,p,33,20,female,2021-02-22_13h22.00.669,exp11,2020.2.6,Linux x86_64,60,,,,,,,,,,,
,,,,,,,,,,,,,,a,1,0.79966,space,0.229565,0,86,86,196,1,0_targ_16_dist_red/trial22.png,,,0,16,redHorizontal,a,33,20,female,2021-02-22_13h22.00.669,exp11,2020.2.6,Linux x86_64,60,,,,,,,,,,,
,,,,,,,,,,,,,,p,1,0.665455,space,0.163875,0,87,87,44,1,3_dist_red/trial20.png,,,1,3,redHorizontal,p,33,20,female,2021-02-22_13h22.00.669,exp11,2020.2.6,Linux x86_64,60,,,,,,,,,,,
,,,,,,,,,,,,,,a,0,0.618885,space,0.66844,0,88,88,84,1,15_dist_red/trial10.png,,,1,15,redHorizontal,p,33,20,female,2021-02-22_13h22.00.669,exp11,2020.2.6,Linux x86_64,60,,,,,,,,,,,
,,,,,,,,,,,,,,a,1,0.6819,space,0.245715,0,89,89,185,1,0_targ_16_dist_red/trial11.png,,,0,16,redHorizontal,a,33,20,female,2021-02-22_13h22.00.669,exp11,2020.2.6,Linux x86_64,60,,,,,,,,,,,
,,,,,,,,,,,,,,p,1,0.765925,space,0.212805,0,90,90,1,1,0_dist_red/trial2.png,,,1,0,redHorizontal,p,33,20,female,2021-02-22_13h22.00.669,exp11,2020.2.6,Linux x86_64,60,,,,,,,,,,,
,,,,,,,,,,,,,,p,1,0.542285,space,0.23896,0,91,91,28,1,3_dist_red/trial4.png,,,1,3,redHorizontal,p,33,20,female,2021-02-22_13h22.00.669,exp11,2020.2.6,Linux x86_64,60,,,,,,,,,,,
,,,,,,,,,,,,,,a,1,0.607545,space,0.20608,0,92,92,194,1,0_targ_16_dist_red/trial20.png,,,0,16,redHorizontal,a,33,20,female,2021-02-22_13h22.00.669,exp11,2020.2.6,Linux x86_64,60,,,,,,,,,,,
,,,,,,,,,,,,,,p,1,0.59915,space,0.23317,0,93,93,0,1,0_dist_red/trial1.png,,,1,0,redHorizontal,p,33,20,female,2021-02-22_13h22.00.669,exp11,2020.2.6,Linux x86_64,60,,,,,,,,,,,
,,,,,,,,,,,,,,a,1,1.26561,space,0.231715,0,94,94,172,1,0_targ_10_dist_red/trial23.png,,,0,10,redHorizontal,a,33,20,female,2021-02-22_13h22.00.669,exp11,2020.2.6,Linux x86_64,60,,,,,,,,,,,
,,,,,,,,,,,,,,a,1,0.6959,space,0.202305,0,95,95,192,1,0_targ_16_dist_red/trial18.png,,,0,16,redHorizontal,a,33,20,female,2021-02-22_13h22.00.669,exp11,2020.2.6,Linux x86_64,60,,,,,,,,,,,
,,,,,,,,,,,,,,p,1,0.521325,space,0.2228,0,96,96,31,1,3_dist_red/trial7.png,,,1,3,redHorizontal,p,33,20,female,2021-02-22_13h22.00.669,exp11,2020.2.6,Linux x86_64,60,,,,,,,,,,,
,,,,,,,,,,,,,,a,1,0.59781,space,0.243745,0,97,97,197,1,0_targ_16_dist_red/trial23.png,,,0,16,redHorizontal,a,33,20,female,2021-02-22_13h22.00.669,exp11,2020.2.6,Linux x86_64,60,,,,,,,,,,,
,,,,,,,,,,,,,,a,1,0.74989,space,0.211035,0,98,98,139,1,0_targ_4_dist_red/trial15.png,,,0,4,redHorizontal,a,33,20,female,2021-02-22_13h22.00.669,exp11,2020.2.6,Linux x86_64,60,,,,,,,,,,,
,,,,,,,,,,,,,,a,1,0.589235,space,0.3769,0,99,99,199,1,0_targ_16_dist_red/trial25.png,,,0,16,redHorizontal,a,33,20,female,2021-02-22_13h22.00.669,exp11,2020.2.6,Linux x86_64,60,,,,,,,,,,,
,,,,,,,,,,,,,,a,1,0.507975,space,0.27474,0,100,100,162,1,0_targ_10_dist_red/trial13.png,,,0,10,redHorizontal,a,33,20,female,2021-02-22_13h22.00.669,exp11,2020.2.6,Linux x86_64,60,,,,,,,,,,,
,,,,,,,,,,,,,,a,1,0.6469,space,0.26354,0,101,101,128,1,0_targ_4_dist_red/trial4.png,,,0,4,redHorizontal,a,33,20,female,2021-02-22_13h22.00.669,exp11,2020.2.6,Linux x86_64,60,,,,,,,,,,,
,,,,,,,,,,,,,,p,1,0.946005,space,0.262195,0,102,102,85,1,15_dist_red/trial11.png,,,1,15,redHorizontal,p,33,20,female,2021-02-22_13h22.00.669,exp11,2020.2.6,Linux x86_64,60,,,,,,,,,,,
,,,,,,,,,,,,,,a,1,0.627785,space,0.19293,0,103,103,179,1,0_targ_16_dist_red/trial5.png,,,0,16,redHorizontal,a,33,20,female,2021-02-22_13h22.00.669,exp11,2020.2.6,Linux x86_64,60,,,,,,,,,,,
,,,,,,,,,,,,,,a,0,0.62257,space,0.48517,0,104,104,79,1,15_dist_red/trial5.png,,,1,15,redHorizontal,p,33,20,female,2021-02-22_13h22.00.669,exp11,2020.2.6,Linux x86_64,60,,,,,,,,,,,
,,,,,,,,,,,,,,p,1,0.64772,space,0.233705,0,105,105,5,1,0_dist_red/trial6.png,,,1,0,redHorizontal,p,33,20,female,2021-02-22_13h22.00.669,exp11,2020.2.6,Linux x86_64,60,,,,,,,,,,,
,,,,,,,,,,,,,,a,1,0.70022,space,0.209895,0,106,106,111,1,0_targ_1_dist_red/trial12.png,,,0,1,redHorizontal,a,33,20,female,2021-02-22_13h22.00.669,exp11,2020.2.6,Linux x86_64,60,,,,,,,,,,,
,,,,,,,,,,,,,,a,1,1.157555,space,0.2037,0,107,107,193,1,0_targ_16_dist_red/trial19.png,,,0,16,redHorizontal,a,33,20,female,2021-02-22_13h22.00.669,exp11,2020.2.6,Linux x86_64,60,,,,,,,,,,,
,,,,,,,,,,,,,,a,1,0.66255,space,0.26725,0,108,108,141,1,0_targ_4_dist_red/trial17.png,,,0,4,redHorizontal,a,33,20,female,2021-02-22_13h22.00.669,exp11,2020.2.6,Linux x86_64,60,,,,,,,,,,,
,,,,,,,,,,,,,,a,1,0.606905,space,0.2649,0,109,109,143,1,0_targ_4_dist_red/trial19.png,,,0,4,redHorizontal,a,33,20,female,2021-02-22_13h22.00.669,exp11,2020.2.6,Linux x86_64,60,,,,,,,,,,,
,,,,,,,,,,,,,,p,1,0.98441,space,0.221105,0,110,110,78,1,15_dist_red/trial4.png,,,1,15,redHorizontal,p,33,20,female,2021-02-22_13h22.00.669,exp11,2020.2.6,Linux x86_64,60,,,,,,,,,,,
,,,,,,,,,,,,,,p,1,0.67658,space,0.2215,0,111,111,22,1,0_dist_red/trial23.png,,,1,0,redHorizontal,p,33,20,female,2021-02-22_13h22.00.669,exp11,2020.2.6,Linux x86_64,60,,,,,,,,,,,
,,,,,,,,,,,,,,p,1,0.64734,space,0.260105,0,112,112,82,1,15_dist_red/trial8.png,,,1,15,redHorizontal,p,33,20,female,2021-02-22_13h22.00.669,exp11,2020.2.6,Linux x86_64,60,,,,,,,,,,,
,,,,,,,,,,,,,,p,1,0.612255,space,0.22956,0,113,113,96,1,15_dist_red/trial22.png,,,1,15,redHorizontal,p,33,20,female,2021-02-22_13h22.00.669,exp11,2020.2.6,Linux x86_64,60,,,,,,,,,,,
,,,,,,,,,,,,,,p,1,0.782185,space,0.223855,0,114,114,53,1,9_dist_red/trial4.png,,,1,9,redHorizontal,p,33,20,female,2021-02-22_13h22.00.669,exp11,2020.2.6,Linux x86_64,60,,,,,,,,,,,
,,,,,,,,,,,,,,p,1,0.96753,space,0.229195,0,115,115,97,1,15_dist_red/trial23.png,,,1,15,redHorizontal,p,33,20,female,2021-02-22_13h22.00.669,exp11,2020.2.6,Linux x86_64,60,,,,,,,,,,,
,,,,,,,,,,,,,,p,1,0.74716,space,0.267465,0,116,116,49,1,3_dist_red/trial25.png,,,1,3,redHorizontal,p,33,20,female,2021-02-22_13h22.00.669,exp11,2020.2.6,Linux x86_64,60,,,,,,,,,,,
,,,,,,,,,,,,,,p,0,0.715295,space,0.183525,0,117,117,149,1,0_targ_4_dist_red/trial25.png,,,0,4,redHorizontal,a,33,20,female,2021-02-22_13h22.00.669,exp11,2020.2.6,Linux x86_64,60,,,,,,,,,,,
,,,,,,,,,,,,,,p,1,0.68885,space,0.30058,0,118,118,16,1,0_dist_red/trial17.png,,,1,0,redHorizontal,p,33,20,female,2021-02-22_13h22.00.669,exp11,2020.2.6,Linux x86_64,60,,,,,,,,,,,
,,,,,,,,,,,,,,p,1,0.903035,space,0.242595,0,119,119,30,1,3_dist_red/trial6.png,,,1,3,redHorizontal,p,33,20,female,2021-02-22_13h22.00.669,exp11,2020.2.6,Linux x86_64,60,,,,,,,,,,,
,,,,,,,,,,,,,,p,1,0.761675,space,0.25769,0,120,120,70,1,9_dist_red/trial21.png,,,1,9,redHorizontal,p,33,20,female,2021-02-22_13h22.00.669,exp11,2020.2.6,Linux x86_64,60,,,,,,,,,,,
,,,,,,,,,,,,,,p,1,0.60728,space,0.248385,0,121,121,76,1,15_dist_red/trial2.png,,,1,15,redHorizontal,p,33,20,female,2021-02-22_13h22.00.669,exp11,2020.2.6,Linux x86_64,60,,,,,,,,,,,
,,,,,,,,,,,,,,a,1,0.823105,space,0.32372,0,122,122,148,1,0_targ_4_dist_red/trial24.png,,,0,4,redHorizontal,a,33,20,female,2021-02-22_13h22.00.669,exp11,2020.2.6,Linux x86_64,60,,,,,,,,,,,
,,,,,,,,,,,,,,p,1,0.898115,space,0.28119,0,123,123,65,1,9_dist_red/trial16.png,,,1,9,redHorizontal,p,33,20,female,2021-02-22_13h22.00.669,exp11,2020.2.6,Linux x86_64,60,,,,,,,,,,,
,,,,,,,,,,,,,,p,1,0.612085,space,0.33895,0,124,124,7,1,0_dist_red/trial8.png,,,1,0,redHorizontal,p,33,20,female,2021-02-22_13h22.00.669,exp11,2020.2.6,Linux x86_64,60,,,,,,,,,,,
,,,,,,,,,,,,,,a,1,0.766095,space,0.24341,0,125,125,157,1,0_targ_10_dist_red/trial8.png,,,0,10,redHorizontal,a,33,20,female,2021-02-22_13h22.00.669,exp11,2020.2.6,Linux x86_64,60,,,,,,,,,,,
,,,,,,,,,,,,,,a,1,0.61513,space,0.17716,0,126,126,140,1,0_targ_4_dist_red/trial6.png,,,0,4,redHorizontal,a,33,20,female,2021-02-22_13h22.00.669,exp11,2020.2.6,Linux x86_64,60,,,,,,,,,,,
,,,,,,,,,,,,,,p,1,0.765585,space,0.239425,0,127,127,8,1,0_dist_red/trial9.png,,,1,0,redHorizontal,p,33,20,female,2021-02-22_13h22.00.669,exp11,2020.2.6,Linux x86_64,60,,,,,,,,,,,
,,,,,,,,,,,,,,a,1,0.965925,space,0.228815,0,128,128,151,1,0_targ_10_dist_red/trial2.png,,,0,10,redHorizontal,a,33,20,female,2021-02-22_13h22.00.669,exp11,2020.2.6,Linux x86_64,60,,,,,,,,,,,
,,,,,,,,,,,,,,p,1,0.66287,space,0.22644,0,129,129,43,1,3_dist_red/trial19.png,,,1,3,redHorizontal,p,33,20,female,2021-02-22_13h22.00.669,exp11,2020.2.6,Linux x86_64,60,,,,,,,,,,,
,,,,,,,,,,,,,,p,1,0.73873,space,0.238915,0,130,130,60,1,9_dist_red/trial11.png,,,1,9,redHorizontal,p,33,20,female,2021-02-22_13h22.00.669,exp11,2020.2.6,Linux x86_64,60,,,,,,,,,,,
,,,,,,,,,,,,,,a,1,0.82299,space,0.249705,0,131,131,164,1,0_targ_10_dist_red/trial15.png,,,0,10,redHorizontal,a,33,20,female,2021-02-22_13h22.00.669,exp11,2020.2.6,Linux x86_64,60,,,,,,,,,,,
,,,,,,,,,,,,,,a,1,1.08435,space,0.284785,0,132,132,171,1,0_targ_10_dist_red/trial22.png,,,0,10,redHorizontal,a,33,20,female,2021-02-22_13h22.00.669,exp11,2020.2.6,Linux x86_64,60,,,,,,,,,,,
,,,,,,,,,,,,,,p,1,0.946565,space,0.347185,0,133,133,21,1,0_dist_red/trial22.png,,,1,0,redHorizontal,p,33,20,female,2021-02-22_13h22.00.669,exp11,2020.2.6,Linux x86_64,60,,,,,,,,,,,
,,,,,,,,,,,,,,p,1,0.534065,space,0.29051,0,134,134,2,1,0_dist_red/trial3.png,,,1,0,redHorizontal,p,33,20,female,2021-02-22_13h22.00.669,exp11,2020.2.6,Linux x86_64,60,,,,,,,,,,,
,,,,,,,,,,,,,,p,1,0.65571,space,0.37739,0,135,135,67,1,9_dist_red/trial18.png,,,1,9,redHorizontal,p,33,20,female,2021-02-22_13h22.00.669,exp11,2020.2.6,Linux x86_64,60,,,,,,,,,,,
,,,,,,,,,,,,,,a,1,0.609265,space,0.22293,0,136,136,160,1,0_targ_10_dist_red/trial11.png,,,0,10,redHorizontal,a,33,20,female,2021-02-22_13h22.00.669,exp11,2020.2.6,Linux x86_64,60,,,,,,,,,,,
,,,,,,,,,,,,,,a,1,0.575245,space,0.271205,0,137,137,174,1,0_targ_10_dist_red/trial25.png,,,0,10,redHorizontal,a,33,20,female,2021-02-22_13h22.00.669,exp11,2020.2.6,Linux x86_64,60,,,,,,,,,,,
,,,,,,,,,,,,,,p,1,0.629495,space,0.201615,0,138,138,29,1,3_dist_red/trial5.png,,,1,3,redHorizontal,p,33,20,female,2021-02-22_13h22.00.669,exp11,2020.2.6,Linux x86_64,60,,,,,,,,,,,
,,,,,,,,,,,,,,a,1,0.803705,space,0.25748,0,139,139,120,1,0_targ_1_dist_red/trial21.png,,,0,1,redHorizontal,a,33,20,female,2021-02-22_13h22.00.669,exp11,2020.2.6,Linux x86_64,60,,,,,,,,,,,
,,,,,,,,,,,,,,p,1,0.992295,space,0.18262,0,140,140,52,1,9_dist_red/trial3.png,,,1,9,redHorizontal,p,33,20,female,2021-02-22_13h22.00.669,exp11,2020.2.6,Linux x86_64,60,,,,,,,,,,,
,,,,,,,,,,,,,,a,1,0.65603,space,0.19552,0,141,141,104,1,0_targ_1_dist_red/trial5.png,,,0,1,redHorizontal,a,33,20,female,2021-02-22_13h22.00.669,exp11,2020.2.6,Linux x86_64,60,,,,,,,,,,,
,,,,,,,,,,,,,,p,1,0.645045,space,0.208275,0,142,142,69,1,9_dist_red/trial20.png,,,1,9,redHorizontal,p,33,20,female,2021-02-22_13h22.00.669,exp11,2020.2.6,Linux x86_64,60,,,,,,,,,,,
,,,,,,,,,,,,,,a,1,1.08499,space,0.234755,0,143,143,163,1,0_targ_10_dist_red/trial14.png,,,0,10,redHorizontal,a,33,20,female,2021-02-22_13h22.00.669,exp11,2020.2.6,Linux x86_64,60,,,,,,,,,,,
,,,,,,,,,,,,,,p,1,0.55352,space,0.266535,0,144,144,54,1,9_dist_red/trial5.png,,,1,9,redHorizontal,p,33,20,female,2021-02-22_13h22.00.669,exp11,2020.2.6,Linux x86_64,60,,,,,,,,,,,
,,,,,,,,,,,,,,p,1,0.71855,space,0.244185,0,145,145,63,1,9_dist_red/trial14.png,,,1,9,redHorizontal,p,33,20,female,2021-02-22_13h22.00.669,exp11,2020.2.6,Linux x86_64,60,,,,,,,,,,,
,,,,,,,,,,,,,,p,1,0.436675,space,0.30411,0,146,146,13,1,0_dist_red/trial14.png,,,1,0,redHorizontal,p,33,20,female,2021-02-22_13h22.00.669,exp11,2020.2.6,Linux x86_64,60,,,,,,,,,,,
,,,,,,,,,,,,,,p,1,0.70248,space,0.23556,0,147,147,72,1,9_dist_red/trial23.png,,,1,9,redHorizontal,p,33,20,female,2021-02-22_13h22.00.669,exp11,2020.2.6,Linux x86_64,60,,,,,,,,,,,
,,,,,,,,,,,,,,a,1,0.71332,space,1.481705,0,148,148,135,1,0_targ_4_dist_red/trial11.png,,,0,4,redHorizontal,a,33,20,female,2021-02-22_13h22.00.669,exp11,2020.2.6,Linux x86_64,60,,,,,,,,,,,
,,,,,,,,,,,,,,a,1,1.040925,space,0.216655,0,149,149,126,1,0_targ_4_dist_red/trial2.png,,,0,4,redHorizontal,a,33,20,female,2021-02-22_13h22.00.669,exp11,2020.2.6,Linux x86_64,60,,,,,,,,,,,
,,,,,,,,,,,,,,p,1,0.642205,space,0.24523,0,150,150,14,1,0_dist_red/trial15.png,,,1,0,redHorizontal,p,33,20,female,2021-02-22_13h22.00.669,exp11,2020.2.6,Linux x86_64,60,,,,,,,,,,,
,,,,,,,,,,,,,,a,0,0.831695,space,0.302455,0,151,151,25,1,3_dist_red/trial1.png,,,1,3,redHorizontal,p,33,20,female,2021-02-22_13h22.00.669,exp11,2020.2.6,Linux x86_64,60,,,,,,,,,,,
,,,,,,,,,,,,,,a,1,0.68406,space,0.24111,0,152,152,109,1,0_targ_1_dist_red/trial10.png,,,0,1,redHorizontal,a,33,20,female,2021-02-22_13h22.00.669,exp11,2020.2.6,Linux x86_64,60,,,,,,,,,,,
,,,,,,,,,,,,,,a,1,0.71673,space,0.221955,0,153,153,173,1,0_targ_10_dist_red/trial24.png,,,0,10,redHorizontal,a,33,20,female,2021-02-22_13h22.00.669,exp11,2020.2.6,Linux x86_64,60,,,,,,,,,,,
,,,,,,,,,,,,,,a,0,0.49122,space,0.6658,0,154,154,98,1,15_dist_red/trial24.png,,,1,15,redHorizontal,p,33,20,female,2021-02-22_13h22.00.669,exp11,2020.2.6,Linux x86_64,60,,,,,,,,,,,
,,,,,,,,,,,,,,a,1,0.683405,space,0.253845,0,155,155,121,1,0_targ_1_dist_red/trial22.png,,,0,1,redHorizontal,a,33,20,female,2021-02-22_13h22.00.669,exp11,2020.2.6,Linux x86_64,60,,,,,,,,,,,
,,,,,,,,,,,,,,p,1,1.922225,space,0.271415,0,156,156,74,1,9_dist_red/trial25.png,,,1,9,redHorizontal,p,33,20,female,2021-02-22_13h22.00.669,exp11,2020.2.6,Linux x86_64,60,,,,,,,,,,,
,,,,,,,,,,,,,,p,1,0.926475,space,0.240255,0,157,157,56,1,9_dist_red/trial7.png,,,1,9,redHorizontal,p,33,20,female,2021-02-22_13h22.00.669,exp11,2020.2.6,Linux x86_64,60,,,,,,,,,,,
,,,,,,,,,,,,,,a,1,0.68658,space,0.258905,0,158,158,108,1,0_targ_1_dist_red/trial9.png,,,0,1,redHorizontal,a,33,20,female,2021-02-22_13h22.00.669,exp11,2020.2.6,Linux x86_64,60,,,,,,,,,,,
,,,,,,,,,,,,,,a,1,0.848085,space,0.29552,0,159,159,187,1,0_targ_16_dist_red/trial13.png,,,0,16,redHorizontal,a,33,20,female,2021-02-22_13h22.00.669,exp11,2020.2.6,Linux x86_64,60,,,,,,,,,,,
,,,,,,,,,,,,,,a,1,0.783455,space,0.220705,0,160,160,119,1,0_targ_1_dist_red/trial20.png,,,0,1,redHorizontal,a,33,20,female,2021-02-22_13h22.00.669,exp11,2020.2.6,Linux x86_64,60,,,,,,,,,,,
,,,,,,,,,,,,,,p,1,1.20943,space,0.30779,0,161,161,80,1,15_dist_red/trial6.png,,,1,15,redHorizontal,p,33,20,female,2021-02-22_13h22.00.669,exp11,2020.2.6,Linux x86_64,60,,,,,,,,,,,
,,,,,,,,,,,,,,a,1,1.419025,space,0.25301,0,162,162,116,1,0_targ_1_dist_red/trial17.png,,,0,1,redHorizontal,a,33,20,female,2021-02-22_13h22.00.669,exp11,2020.2.6,Linux x86_64,60,,,,,,,,,,,
,,,,,,,,,,,,,,a,1,0.61024,space,0.2801,0,163,163,100,1,0_targ_1_dist_red/trial1.png,,,0,1,redHorizontal,a,33,20,female,2021-02-22_13h22.00.669,exp11,2020.2.6,Linux x86_64,60,,,,,,,,,,,
,,,,,,,,,,,,,,a,1,1.023445,space,0.270295,0,164,164,180,1,0_targ_16_dist_red/trial6.png,,,0,16,redHorizontal,a,33,20,female,2021-02-22_13h22.00.669,exp11,2020.2.6,Linux x86_64,60,,,,,,,,,,,
,,,,,,,,,,,,,,p,1,0.7193,space,0.20914,0,165,165,19,1,0_dist_red/trial20.png,,,1,0,redHorizontal,p,33,20,female,2021-02-22_13h22.00.669,exp11,2020.2.6,Linux x86_64,60,,,,,,,,,,,
,,,,,,,,,,,,,,a,1,0.717905,space,0.222695,0,166,166,127,1,0_targ_4_dist_red/trial3.png,,,0,4,redHorizontal,a,33,20,female,2021-02-22_13h22.00.669,exp11,2020.2.6,Linux x86_64,60,,,,,,,,,,,
,,,,,,,,,,,,,,a,1,0.661705,space,0.25376,0,167,167,137,1,0_targ_4_dist_red/trial13.png,,,0,4,redHorizontal,a,33,20,female,2021-02-22_13h22.00.669,exp11,2020.2.6,Linux x86_64,60,,,,,,,,,,,
,,,,,,,,,,,,,,p,1,0.647425,space,0.225265,0,168,168,57,1,9_dist_red/trial8.png,,,1,9,redHorizontal,p,33,20,female,2021-02-22_13h22.00.669,exp11,2020.2.6,Linux x86_64,60,,,,,,,,,,,
,,,,,,,,,,,,,,p,1,0.658815,space,0.30028,0,169,169,4,1,0_dist_red/trial5.png,,,1,0,redHorizontal,p,33,20,female,2021-02-22_13h22.00.669,exp11,2020.2.6,Linux x86_64,60,,,,,,,,,,,
,,,,,,,,,,,,,,p,1,0.633635,space,0.31558,0,170,170,6,1,0_dist_red/trial7.png,,,1,0,redHorizontal,p,33,20,female,2021-02-22_13h22.00.669,exp11,2020.2.6,Linux x86_64,60,,,,,,,,,,,
,,,,,,,,,,,,,,a,1,0.67419,space,0.20688,0,171,171,102,1,0_targ_1_dist_red/trial3.png,,,0,1,redHorizontal,a,33,20,female,2021-02-22_13h22.00.669,exp11,2020.2.6,Linux x86_64,60,,,,,,,,,,,
,,,,,,,,,,,,,,p,1,0.540575,space,0.258405,0,172,172,23,1,0_dist_red/trial24.png,,,1,0,redHorizontal,p,33,20,female,2021-02-22_13h22.00.669,exp11,2020.2.6,Linux x86_64,60,,,,,,,,,,,
,,,,,,,,,,,,,,p,1,0.78348,space,0.227115,0,173,173,47,1,3_dist_red/trial23.png,,,1,3,redHorizontal,p,33,20,female,2021-02-22_13h22.00.669,exp11,2020.2.6,Linux x86_64,60,,,,,,,,,,,
,,,,,,,,,,,,,,a,1,0.683775,space,0.28826,0,174,174,125,1,0_targ_4_dist_red/trial1.png,,,0,4,redHorizontal,a,33,20,female,2021-02-22_13h22.00.669,exp11,2020.2.6,Linux x86_64,60,,,,,,,,,,,
,,,,,,,,,,,,,,a,1,1.12695,space,0.19873,0,175,175,130,1,0_targ_4_dist_red/trial6.png,,,0,4,redHorizontal,a,33,20,female,2021-02-22_13h22.00.669,exp11,2020.2.6,Linux x86_64,60,,,,,,,,,,,
,,,,,,,,,,,,,,a,1,0.64048,space,0.23283,0,176,176,132,1,0_targ_4_dist_red/trial8.png,,,0,4,redHorizontal,a,33,20,female,2021-02-22_13h22.00.669,exp11,2020.2.6,Linux x86_64,60,,,,,,,,,,,
,,,,,,,,,,,,,,a,1,0.64255,space,0.278445,0,177,177,153,1,0_targ_10_dist_red/trial4.png,,,0,10,redHorizontal,a,33,20,female,2021-02-22_13h22.00.669,exp11,2020.2.6,Linux x86_64,60,,,,,,,,,,,
,,,,,,,,,,,,,,a,1,0.700235,space,0.233495,0,178,178,138,1,0_targ_4_dist_red/trial14.png,,,0,4,redHorizontal,a,33,20,female,2021-02-22_13h22.00.669,exp11,2020.2.6,Linux x86_64,60,,,,,,,,,,,
,,,,,,,,,,,,,,p,0,1.120415,space,0.23263,0,179,179,118,1,0_targ_1_dist_red/trial19.png,,,0,1,redHorizontal,a,33,20,female,2021-02-22_13h22.00.669,exp11,2020.2.6,Linux x86_64,60,,,,,,,,,,,
,,,,,,,,,,,,,,a,1,0.718705,space,0.208145,0,180,180,165,1,0_targ_10_dist_red/trial16.png,,,0,10,redHorizontal,a,33,20,female,2021-02-22_13h22.00.669,exp11,2020.2.6,Linux x86_64,60,,,,,,,,,,,
,,,,,,,,,,,,,,p,1,1.068855,space,0.19266,0,181,181,45,1,3_dist_red/trial21.png,,,1,3,redHorizontal,p,33,20,female,2021-02-22_13h22.00.669,exp11,2020.2.6,Linux x86_64,60,,,,,,,,,,,
,,,,,,,,,,,,,,a,1,0.569765,space,0.209965,0,182,182,113,1,0_targ_1_dist_red/trial14.png,,,0,1,redHorizontal,a,33,20,female,2021-02-22_13h22.00.669,exp11,2020.2.6,Linux x86_64,60,,,,,,,,,,,
,,,,,,,,,,,,,,p,1,0.688095,space,0.19476,0,183,183,27,1,3_dist_red/trial3.png,,,1,3,redHorizontal,p,33,20,female,2021-02-22_13h22.00.669,exp11,2020.2.6,Linux x86_64,60,,,,,,,,,,,
,,,,,,,,,,,,,,a,1,0.87303,space,0.21395,0,184,184,190,1,0_targ_16_dist_red/trial16.png,,,0,16,redHorizontal,a,33,20,female,2021-02-22_13h22.00.669,exp11,2020.2.6,Linux x86_64,60,,,,,,,,,,,
,,,,,,,,,,,,,,a,1,0.63044,space,0.24345,0,185,185,166,1,0_targ_10_dist_red/trial17.png,,,0,10,redHorizontal,a,33,20,female,2021-02-22_13h22.00.669,exp11,2020.2.6,Linux x86_64,60,,,,,,,,,,,
,,,,,,,,,,,,,,a,1,0.933275,space,0.21246,0,186,186,159,1,0_targ_10_dist_red/trial10.png,,,0,10,redHorizontal,a,33,20,female,2021-02-22_13h22.00.669,exp11,2020.2.6,Linux x86_64,60,,,,,,,,,,,
,,,,,,,,,,,,,,p,1,0.91478,space,0.251885,0,187,187,83,1,15_dist_red/trial9.png,,,1,15,redHorizontal,p,33,20,female,2021-02-22_13h22.00.669,exp11,2020.2.6,Linux x86_64,60,,,,,,,,,,,
,,,,,,,,,,,,,,a,1,0.658425,space,0.205235,0,188,188,156,1,0_targ_10_dist_red/trial7.png,,,0,10,redHorizontal,a,33,20,female,2021-02-22_13h22.00.669,exp11,2020.2.6,Linux x86_64,60,,,,,,,,,,,
,,,,,,,,,,,,,,a,1,1.041805,space,0.25339,0,189,189,124,1,0_targ_1_dist_red/trial25.png,,,0,1,redHorizontal,a,33,20,female,2021-02-22_13h22.00.669,exp11,2020.2.6,Linux x86_64,60,,,,,,,,,,,
,,,,,,,,,,,,,,a,1,0.9812,space,0.19361,0,190,190,182,1,0_targ_16_dist_red/trial8.png,,,0,16,redHorizontal,a,33,20,female,2021-02-22_13h22.00.669,exp11,2020.2.6,Linux x86_64,60,,,,,,,,,,,
,,,,,,,,,,,,,,p,1,1.16507,space,1.12355,0,191,191,12,1,0_dist_red/trial13.png,,,1,0,redHorizontal,p,33,20,female,2021-02-22_13h22.00.669,exp11,2020.2.6,Linux x86_64,60,,,,,,,,,,,
,,,,,,,,,,,,,,p,1,0.612125,space,0.913795,0,192,192,3,1,0_dist_red/trial4.png,,,1,0,redHorizontal,p,33,20,female,2021-02-22_13h22.00.669,exp11,2020.2.6,Linux x86_64,60,,,,,,,,,,,
,,,,,,,,,,,,,,p,1,0.777735,space,0.18921,0,193,193,66,1,9_dist_red/trial17.png,,,1,9,redHorizontal,p,33,20,female,2021-02-22_13h22.00.669,exp11,2020.2.6,Linux x86_64,60,,,,,,,,,,,
,,,,,,,,,,,,,,p,1,0.634295,space,0.218235,0,194,194,36,1,3_dist_red/trial12.png,,,1,3,redHorizontal,p,33,20,female,2021-02-22_13h22.00.669,exp11,2020.2.6,Linux x86_64,60,,,,,,,,,,,
,,,,,,,,,,,,,,p,1,0.49971,space,0.392435,0,195,195,93,1,15_dist_red/trial19.png,,,1,15,redHorizontal,p,33,20,female,2021-02-22_13h22.00.669,exp11,2020.2.6,Linux x86_64,60,,,,,,,,,,,
,,,,,,,,,,,,,,p,1,0.961895,space,0.214,0,196,196,95,1,15_dist_red/trial21.png,,,1,15,redHorizontal,p,33,20,female,2021-02-22_13h22.00.669,exp11,2020.2.6,Linux x86_64,60,,,,,,,,,,,
,,,,,,,,,,,,,,p,1,0.727305,space,0.21227,0,197,197,75,1,15_dist_red/trial1.png,,,1,15,redHorizontal,p,33,20,female,2021-02-22_13h22.00.669,exp11,2020.2.6,Linux x86_64,60,,,,,,,,,,,
,,,,,,,,,,,,,,p,1,0.676145,space,0.39343,0,198,198,61,1,9_dist_red/trial12.png,,,1,9,redHorizontal,p,33,20,female,2021-02-22_13h22.00.669,exp11,2020.2.6,Linux x86_64,60,,,,,,,,,,,
,,,,,,,,,,,,,,a,1,0.61401,space,0.19644,0,199,199,115,1,0_targ_1_dist_red/trial6.png,,,0,1,redHorizontal,a,33,20,female,2021-02-22_13h22.00.669,exp11,2020.2.6,Linux x86_64,60,,,,,,,,,,,
,,,,,,,,,,,,,,,,,,,,,,,,,,,,,,,33,20,female,2021-02-22_13h22.00.669,exp11,2020.2.6,Linux x86_64,60,0,1,1,1,1,conRed.xlsx,red horizontal,Look for red horizontal bar (target) and indicate if it is present or absent in the array. If red horizontal target is present press 'p' and if absent press 'a'. Press SPACE to start.,,,
