key_resp_6.keys,key_resp_6.rt,key_resp_7.keys,key_resp_7.rt,key_resp_8.keys,key_resp_8.rt,key_resp_10.keys,key_resp_10.rt,key_resp_9.keys,key_resp_9.rt,key_resp_3.keys,key_resp_3.rt,key_resp_5.keys,key_resp_5.rt,key_resp.keys,key_resp.corr,key_resp.rt,key_resp_4.keys,key_resp_4.rt,trials.thisRepN,trials.thisTrialN,trials.thisN,trials.thisIndex,trials.ran,ImageFile,tarPos,tarSize,targPres,numDist,targetName,correctAns,participant,age,sex,date,expName,psychopyVersion,OS,frameRate,fbclid,trials_2.thisRepN,trials_2.thisTrialN,trials_2.thisN,trials_2.thisIndex,trials_2.ran,condsFile,targName,instructionText,colTarget,sizeTarg,posit
space,9.353655,space,36.328715,space,11.712175,space,22.64383,space,14.86186,space,11.91536,space,13.477735,p,1,0.96021,space,5.409215,0,0,0,12,1,0_dist_green/trial13.png,,,1,0,greenverival,p,35,21,Female,2021-02-21_21h15.20.132,exp11,2020.2.6,Win32,60,IwAR2g_uZYATue8hKJ8HfVdoWjE957yzHhgttO7-VktzKDo8X01NmsegucXCM,,,,,,,,,,,
,,,,,,,,,,,,,,p,1,1.09682,space,1.1512,0,1,1,1,1,0_dist_green/trial2.png,,,1,0,greenverival,p,35,21,Female,2021-02-21_21h15.20.132,exp11,2020.2.6,Win32,60,IwAR2g_uZYATue8hKJ8HfVdoWjE957yzHhgttO7-VktzKDo8X01NmsegucXCM,,,,,,,,,,,
,,,,,,,,,,,,,,p,1,0.91712,space,0.80666,0,2,2,47,1,3_dist_green/trial23.png,,,1,3,greenverival,p,35,21,Female,2021-02-21_21h15.20.132,exp11,2020.2.6,Win32,60,IwAR2g_uZYATue8hKJ8HfVdoWjE957yzHhgttO7-VktzKDo8X01NmsegucXCM,,,,,,,,,,,
,,,,,,,,,,,,,,a,1,0.841689999,space,0.850965001,0,3,3,106,1,0_targ_1_dist_green/trial7.png,,,0,1,greenverival,a,35,21,Female,2021-02-21_21h15.20.132,exp11,2020.2.6,Win32,60,IwAR2g_uZYATue8hKJ8HfVdoWjE957yzHhgttO7-VktzKDo8X01NmsegucXCM,,,,,,,,,,,
,,,,,,,,,,,,,,a,1,1.628810001,space,1.05161,0,4,4,197,1,0_targ_16_dist_green/trial23.png,,,0,16,greenverival,a,35,21,Female,2021-02-21_21h15.20.132,exp11,2020.2.6,Win32,60,IwAR2g_uZYATue8hKJ8HfVdoWjE957yzHhgttO7-VktzKDo8X01NmsegucXCM,,,,,,,,,,,
,,,,,,,,,,,,,,p,1,0.770285,space,0.84423,0,5,5,73,1,9_dist_green/trial24.png,,,1,9,greenverival,p,35,21,Female,2021-02-21_21h15.20.132,exp11,2020.2.6,Win32,60,IwAR2g_uZYATue8hKJ8HfVdoWjE957yzHhgttO7-VktzKDo8X01NmsegucXCM,,,,,,,,,,,
,,,,,,,,,,,,,,p,1,0.603265,space,0.57993,0,6,6,6,1,0_dist_green/trial7.png,,,1,0,greenverival,p,35,21,Female,2021-02-21_21h15.20.132,exp11,2020.2.6,Win32,60,IwAR2g_uZYATue8hKJ8HfVdoWjE957yzHhgttO7-VktzKDo8X01NmsegucXCM,,,,,,,,,,,
,,,,,,,,,,,,,,a,1,0.93253,space,0.633775,0,7,7,123,1,0_targ_1_dist_green/trial24.png,,,0,1,greenverival,a,35,21,Female,2021-02-21_21h15.20.132,exp11,2020.2.6,Win32,60,IwAR2g_uZYATue8hKJ8HfVdoWjE957yzHhgttO7-VktzKDo8X01NmsegucXCM,,,,,,,,,,,
,,,,,,,,,,,,,,a,1,1.22482,space,0.528445,0,8,8,188,1,0_targ_16_dist_green/trial14.png,,,0,16,greenverival,a,35,21,Female,2021-02-21_21h15.20.132,exp11,2020.2.6,Win32,60,IwAR2g_uZYATue8hKJ8HfVdoWjE957yzHhgttO7-VktzKDo8X01NmsegucXCM,,,,,,,,,,,
,,,,,,,,,,,,,,a,1,0.668260001,space,0.56864,0,9,9,113,1,0_targ_1_dist_green/trial14.png,,,0,1,greenverival,a,35,21,Female,2021-02-21_21h15.20.132,exp11,2020.2.6,Win32,60,IwAR2g_uZYATue8hKJ8HfVdoWjE957yzHhgttO7-VktzKDo8X01NmsegucXCM,,,,,,,,,,,
,,,,,,,,,,,,,,p,1,0.82095,space,0.707374999,0,10,10,26,1,3_dist_green/trial2.png,,,1,3,greenverival,p,35,21,Female,2021-02-21_21h15.20.132,exp11,2020.2.6,Win32,60,IwAR2g_uZYATue8hKJ8HfVdoWjE957yzHhgttO7-VktzKDo8X01NmsegucXCM,,,,,,,,,,,
,,,,,,,,,,,,,,p,1,0.69194,space,0.701665,0,11,11,79,1,15_dist_green/trial5.png,,,1,15,greenverival,p,35,21,Female,2021-02-21_21h15.20.132,exp11,2020.2.6,Win32,60,IwAR2g_uZYATue8hKJ8HfVdoWjE957yzHhgttO7-VktzKDo8X01NmsegucXCM,,,,,,,,,,,
,,,,,,,,,,,,,,a,1,0.59647,space,0.535845,0,12,12,112,1,0_targ_1_dist_green/trial13.png,,,0,1,greenverival,a,35,21,Female,2021-02-21_21h15.20.132,exp11,2020.2.6,Win32,60,IwAR2g_uZYATue8hKJ8HfVdoWjE957yzHhgttO7-VktzKDo8X01NmsegucXCM,,,,,,,,,,,
,,,,,,,,,,,,,,a,1,1.10776,space,0.750375001,0,13,13,134,1,0_targ_4_dist_green/trial10.png,,,0,4,greenverival,a,35,21,Female,2021-02-21_21h15.20.132,exp11,2020.2.6,Win32,60,IwAR2g_uZYATue8hKJ8HfVdoWjE957yzHhgttO7-VktzKDo8X01NmsegucXCM,,,,,,,,,,,
,,,,,,,,,,,,,,p,1,1.265075,space,0.675045,0,14,14,90,1,15_dist_green/trial16.png,,,1,15,greenverival,p,35,21,Female,2021-02-21_21h15.20.132,exp11,2020.2.6,Win32,60,IwAR2g_uZYATue8hKJ8HfVdoWjE957yzHhgttO7-VktzKDo8X01NmsegucXCM,,,,,,,,,,,
,,,,,,,,,,,,,,a,1,0.7459,space,0.418165,0,15,15,130,1,0_targ_4_dist_green/trial6.png,,,0,4,greenverival,a,35,21,Female,2021-02-21_21h15.20.132,exp11,2020.2.6,Win32,60,IwAR2g_uZYATue8hKJ8HfVdoWjE957yzHhgttO7-VktzKDo8X01NmsegucXCM,,,,,,,,,,,
,,,,,,,,,,,,,,p,1,1.658115,space,0.723345,0,16,16,92,1,15_dist_green/trial18.png,,,1,15,greenverival,p,35,21,Female,2021-02-21_21h15.20.132,exp11,2020.2.6,Win32,60,IwAR2g_uZYATue8hKJ8HfVdoWjE957yzHhgttO7-VktzKDo8X01NmsegucXCM,,,,,,,,,,,
,,,,,,,,,,,,,,a,1,0.658575,space,0.446615,0,17,17,148,1,0_targ_4_dist_green/trial24.png,,,0,4,greenverival,a,35,21,Female,2021-02-21_21h15.20.132,exp11,2020.2.6,Win32,60,IwAR2g_uZYATue8hKJ8HfVdoWjE957yzHhgttO7-VktzKDo8X01NmsegucXCM,,,,,,,,,,,
,,,,,,,,,,,,,,a,1,0.852624999,space,0.427665,0,18,18,181,1,0_targ_16_dist_green/trial7.png,,,0,16,greenverival,a,35,21,Female,2021-02-21_21h15.20.132,exp11,2020.2.6,Win32,60,IwAR2g_uZYATue8hKJ8HfVdoWjE957yzHhgttO7-VktzKDo8X01NmsegucXCM,,,,,,,,,,,
,,,,,,,,,,,,,,a,1,0.862685001,space,0.65063,0,19,19,161,1,0_targ_10_dist_green/trial12.png,,,0,10,greenverival,a,35,21,Female,2021-02-21_21h15.20.132,exp11,2020.2.6,Win32,60,IwAR2g_uZYATue8hKJ8HfVdoWjE957yzHhgttO7-VktzKDo8X01NmsegucXCM,,,,,,,,,,,
,,,,,,,,,,,,,,p,1,0.60033,space,0.588620001,0,20,20,11,1,0_dist_green/trial12.png,,,1,0,greenverival,p,35,21,Female,2021-02-21_21h15.20.132,exp11,2020.2.6,Win32,60,IwAR2g_uZYATue8hKJ8HfVdoWjE957yzHhgttO7-VktzKDo8X01NmsegucXCM,,,,,,,,,,,
,,,,,,,,,,,,,,a,1,0.669785,space,0.534155,0,21,21,119,1,0_targ_1_dist_green/trial20.png,,,0,1,greenverival,a,35,21,Female,2021-02-21_21h15.20.132,exp11,2020.2.6,Win32,60,IwAR2g_uZYATue8hKJ8HfVdoWjE957yzHhgttO7-VktzKDo8X01NmsegucXCM,,,,,,,,,,,
,,,,,,,,,,,,,,a,1,0.870449999,space,0.83243,0,22,22,153,1,0_targ_10_dist_green/trial4.png,,,0,10,greenverival,a,35,21,Female,2021-02-21_21h15.20.132,exp11,2020.2.6,Win32,60,IwAR2g_uZYATue8hKJ8HfVdoWjE957yzHhgttO7-VktzKDo8X01NmsegucXCM,,,,,,,,,,,
,,,,,,,,,,,,,,a,1,0.75327,space,0.383125,0,23,23,173,1,0_targ_10_dist_green/trial24.png,,,0,10,greenverival,a,35,21,Female,2021-02-21_21h15.20.132,exp11,2020.2.6,Win32,60,IwAR2g_uZYATue8hKJ8HfVdoWjE957yzHhgttO7-VktzKDo8X01NmsegucXCM,,,,,,,,,,,
,,,,,,,,,,,,,,a,1,0.62986,space,0.985175,0,24,24,104,1,0_targ_1_dist_green/trial5.png,,,0,1,greenverival,a,35,21,Female,2021-02-21_21h15.20.132,exp11,2020.2.6,Win32,60,IwAR2g_uZYATue8hKJ8HfVdoWjE957yzHhgttO7-VktzKDo8X01NmsegucXCM,,,,,,,,,,,
,,,,,,,,,,,,,,a,1,0.573605,space,0.477635,0,25,25,164,1,0_targ_10_dist_green/trial15.png,,,0,10,greenverival,a,35,21,Female,2021-02-21_21h15.20.132,exp11,2020.2.6,Win32,60,IwAR2g_uZYATue8hKJ8HfVdoWjE957yzHhgttO7-VktzKDo8X01NmsegucXCM,,,,,,,,,,,
,,,,,,,,,,,,,,a,1,0.669655,space,0.43605,0,26,26,156,1,0_targ_10_dist_green/trial7.png,,,0,10,greenverival,a,35,21,Female,2021-02-21_21h15.20.132,exp11,2020.2.6,Win32,60,IwAR2g_uZYATue8hKJ8HfVdoWjE957yzHhgttO7-VktzKDo8X01NmsegucXCM,,,,,,,,,,,
,,,,,,,,,,,,,,p,1,0.77304,space,0.46334,0,27,27,75,1,15_dist_green/trial1.png,,,1,15,greenverival,p,35,21,Female,2021-02-21_21h15.20.132,exp11,2020.2.6,Win32,60,IwAR2g_uZYATue8hKJ8HfVdoWjE957yzHhgttO7-VktzKDo8X01NmsegucXCM,,,,,,,,,,,
,,,,,,,,,,,,,,a,1,0.625694999,space,0.435175001,0,28,28,107,1,0_targ_1_dist_green/trial8.png,,,0,1,greenverival,a,35,21,Female,2021-02-21_21h15.20.132,exp11,2020.2.6,Win32,60,IwAR2g_uZYATue8hKJ8HfVdoWjE957yzHhgttO7-VktzKDo8X01NmsegucXCM,,,,,,,,,,,
,,,,,,,,,,,,,,p,1,0.619229999,space,0.508295001,0,29,29,32,1,3_dist_green/trial8.png,,,1,3,greenverival,p,35,21,Female,2021-02-21_21h15.20.132,exp11,2020.2.6,Win32,60,IwAR2g_uZYATue8hKJ8HfVdoWjE957yzHhgttO7-VktzKDo8X01NmsegucXCM,,,,,,,,,,,
,,,,,,,,,,,,,,p,1,0.557605,space,0.471575,0,30,30,21,1,0_dist_green/trial22.png,,,1,0,greenverival,p,35,21,Female,2021-02-21_21h15.20.132,exp11,2020.2.6,Win32,60,IwAR2g_uZYATue8hKJ8HfVdoWjE957yzHhgttO7-VktzKDo8X01NmsegucXCM,,,,,,,,,,,
,,,,,,,,,,,,,,a,1,0.60293,space,0.584290001,0,31,31,127,1,0_targ_4_dist_green/trial3.png,,,0,4,greenverival,a,35,21,Female,2021-02-21_21h15.20.132,exp11,2020.2.6,Win32,60,IwAR2g_uZYATue8hKJ8HfVdoWjE957yzHhgttO7-VktzKDo8X01NmsegucXCM,,,,,,,,,,,
,,,,,,,,,,,,,,a,1,1.086320001,space,0.525005,0,32,32,194,1,0_targ_16_dist_green/trial20.png,,,0,16,greenverival,a,35,21,Female,2021-02-21_21h15.20.132,exp11,2020.2.6,Win32,60,IwAR2g_uZYATue8hKJ8HfVdoWjE957yzHhgttO7-VktzKDo8X01NmsegucXCM,,,,,,,,,,,
,,,,,,,,,,,,,,a,1,0.908195,space,0.410949999,0,33,33,117,1,0_targ_1_dist_green/trial18.png,,,0,1,greenverival,a,35,21,Female,2021-02-21_21h15.20.132,exp11,2020.2.6,Win32,60,IwAR2g_uZYATue8hKJ8HfVdoWjE957yzHhgttO7-VktzKDo8X01NmsegucXCM,,,,,,,,,,,
,,,,,,,,,,,,,,a,1,0.73121,space,0.485265,0,34,34,101,1,0_targ_1_dist_green/trial2.png,,,0,1,greenverival,a,35,21,Female,2021-02-21_21h15.20.132,exp11,2020.2.6,Win32,60,IwAR2g_uZYATue8hKJ8HfVdoWjE957yzHhgttO7-VktzKDo8X01NmsegucXCM,,,,,,,,,,,
,,,,,,,,,,,,,,a,1,0.9091,space,0.42581,0,35,35,187,1,0_targ_16_dist_green/trial13.png,,,0,16,greenverival,a,35,21,Female,2021-02-21_21h15.20.132,exp11,2020.2.6,Win32,60,IwAR2g_uZYATue8hKJ8HfVdoWjE957yzHhgttO7-VktzKDo8X01NmsegucXCM,,,,,,,,,,,
,,,,,,,,,,,,,,p,1,0.826304999,space,0.469265,0,36,36,56,1,9_dist_green/trial7.png,,,1,9,greenverival,p,35,21,Female,2021-02-21_21h15.20.132,exp11,2020.2.6,Win32,60,IwAR2g_uZYATue8hKJ8HfVdoWjE957yzHhgttO7-VktzKDo8X01NmsegucXCM,,,,,,,,,,,
,,,,,,,,,,,,,,a,1,1.14038,space,0.402145,0,37,37,196,1,0_targ_16_dist_green/trial22.png,,,0,16,greenverival,a,35,21,Female,2021-02-21_21h15.20.132,exp11,2020.2.6,Win32,60,IwAR2g_uZYATue8hKJ8HfVdoWjE957yzHhgttO7-VktzKDo8X01NmsegucXCM,,,,,,,,,,,
,,,,,,,,,,,,,,a,1,0.916719999,space,0.569265001,0,38,38,176,1,0_targ_16_dist_green/trial2.png,,,0,16,greenverival,a,35,21,Female,2021-02-21_21h15.20.132,exp11,2020.2.6,Win32,60,IwAR2g_uZYATue8hKJ8HfVdoWjE957yzHhgttO7-VktzKDo8X01NmsegucXCM,,,,,,,,,,,
,,,,,,,,,,,,,,a,1,0.817345,space,0.412575,0,39,39,163,1,0_targ_10_dist_green/trial14.png,,,0,10,greenverival,a,35,21,Female,2021-02-21_21h15.20.132,exp11,2020.2.6,Win32,60,IwAR2g_uZYATue8hKJ8HfVdoWjE957yzHhgttO7-VktzKDo8X01NmsegucXCM,,,,,,,,,,,
,,,,,,,,,,,,,,p,1,0.81815,space,0.492325,0,40,40,52,1,9_dist_green/trial3.png,,,1,9,greenverival,p,35,21,Female,2021-02-21_21h15.20.132,exp11,2020.2.6,Win32,60,IwAR2g_uZYATue8hKJ8HfVdoWjE957yzHhgttO7-VktzKDo8X01NmsegucXCM,,,,,,,,,,,
,,,,,,,,,,,,,,p,1,0.642735,space,0.49373,0,41,41,15,1,0_dist_green/trial16.png,,,1,0,greenverival,p,35,21,Female,2021-02-21_21h15.20.132,exp11,2020.2.6,Win32,60,IwAR2g_uZYATue8hKJ8HfVdoWjE957yzHhgttO7-VktzKDo8X01NmsegucXCM,,,,,,,,,,,
,,,,,,,,,,,,,,a,1,1.48052,space,0.633300001,0,42,42,165,1,0_targ_10_dist_green/trial16.png,,,0,10,greenverival,a,35,21,Female,2021-02-21_21h15.20.132,exp11,2020.2.6,Win32,60,IwAR2g_uZYATue8hKJ8HfVdoWjE957yzHhgttO7-VktzKDo8X01NmsegucXCM,,,,,,,,,,,
,,,,,,,,,,,,,,a,1,1.308915,space,0.50744,0,43,43,185,1,0_targ_16_dist_green/trial11.png,,,0,16,greenverival,a,35,21,Female,2021-02-21_21h15.20.132,exp11,2020.2.6,Win32,60,IwAR2g_uZYATue8hKJ8HfVdoWjE957yzHhgttO7-VktzKDo8X01NmsegucXCM,,,,,,,,,,,
,,,,,,,,,,,,,,p,1,0.683455,space,0.53389,0,44,44,54,1,9_dist_green/trial5.png,,,1,9,greenverival,p,35,21,Female,2021-02-21_21h15.20.132,exp11,2020.2.6,Win32,60,IwAR2g_uZYATue8hKJ8HfVdoWjE957yzHhgttO7-VktzKDo8X01NmsegucXCM,,,,,,,,,,,
,,,,,,,,,,,,,,a,1,0.80038,space,0.485485,0,45,45,180,1,0_targ_16_dist_green/trial6.png,,,0,16,greenverival,a,35,21,Female,2021-02-21_21h15.20.132,exp11,2020.2.6,Win32,60,IwAR2g_uZYATue8hKJ8HfVdoWjE957yzHhgttO7-VktzKDo8X01NmsegucXCM,,,,,,,,,,,
,,,,,,,,,,,,,,a,1,0.668055,space,0.354075,0,46,46,141,1,0_targ_4_dist_green/trial17.png,,,0,4,greenverival,a,35,21,Female,2021-02-21_21h15.20.132,exp11,2020.2.6,Win32,60,IwAR2g_uZYATue8hKJ8HfVdoWjE957yzHhgttO7-VktzKDo8X01NmsegucXCM,,,,,,,,,,,
,,,,,,,,,,,,,,p,1,0.73648,space,0.402215,0,47,47,69,1,9_dist_green/trial20.png,,,1,9,greenverival,p,35,21,Female,2021-02-21_21h15.20.132,exp11,2020.2.6,Win32,60,IwAR2g_uZYATue8hKJ8HfVdoWjE957yzHhgttO7-VktzKDo8X01NmsegucXCM,,,,,,,,,,,
,,,,,,,,,,,,,,p,1,0.53545,space,0.390125,0,48,48,22,1,0_dist_green/trial23.png,,,1,0,greenverival,p,35,21,Female,2021-02-21_21h15.20.132,exp11,2020.2.6,Win32,60,IwAR2g_uZYATue8hKJ8HfVdoWjE957yzHhgttO7-VktzKDo8X01NmsegucXCM,,,,,,,,,,,
,,,,,,,,,,,,,,p,1,0.522585,space,0.317655,0,49,49,41,1,3_dist_green/trial17.png,,,1,3,greenverival,p,35,21,Female,2021-02-21_21h15.20.132,exp11,2020.2.6,Win32,60,IwAR2g_uZYATue8hKJ8HfVdoWjE957yzHhgttO7-VktzKDo8X01NmsegucXCM,,,,,,,,,,,
,,,,,,,,,,,,,,a,1,0.649535,space,0.310335,0,50,50,139,1,0_targ_4_dist_green/trial15.png,,,0,4,greenverival,a,35,21,Female,2021-02-21_21h15.20.132,exp11,2020.2.6,Win32,60,IwAR2g_uZYATue8hKJ8HfVdoWjE957yzHhgttO7-VktzKDo8X01NmsegucXCM,,,,,,,,,,,
,,,,,,,,,,,,,,p,1,0.525204999,space,0.354935,0,51,51,20,1,0_dist_green/trial21.png,,,1,0,greenverival,p,35,21,Female,2021-02-21_21h15.20.132,exp11,2020.2.6,Win32,60,IwAR2g_uZYATue8hKJ8HfVdoWjE957yzHhgttO7-VktzKDo8X01NmsegucXCM,,,,,,,,,,,
,,,,,,,,,,,,,,a,1,0.970935,space,0.28586,0,52,52,118,1,0_targ_1_dist_green/trial19.png,,,0,1,greenverival,a,35,21,Female,2021-02-21_21h15.20.132,exp11,2020.2.6,Win32,60,IwAR2g_uZYATue8hKJ8HfVdoWjE957yzHhgttO7-VktzKDo8X01NmsegucXCM,,,,,,,,,,,
,,,,,,,,,,,,,,a,1,0.78279,space,0.501355,0,53,53,124,1,0_targ_1_dist_green/trial25.png,,,0,1,greenverival,a,35,21,Female,2021-02-21_21h15.20.132,exp11,2020.2.6,Win32,60,IwAR2g_uZYATue8hKJ8HfVdoWjE957yzHhgttO7-VktzKDo8X01NmsegucXCM,,,,,,,,,,,
,,,,,,,,,,,,,,a,1,0.64845,space,0.32928,0,54,54,149,1,0_targ_4_dist_green/trial25.png,,,0,4,greenverival,a,35,21,Female,2021-02-21_21h15.20.132,exp11,2020.2.6,Win32,60,IwAR2g_uZYATue8hKJ8HfVdoWjE957yzHhgttO7-VktzKDo8X01NmsegucXCM,,,,,,,,,,,
,,,,,,,,,,,,,,a,1,0.76093,space,0.338020001,0,55,55,174,1,0_targ_10_dist_green/trial25.png,,,0,10,greenverival,a,35,21,Female,2021-02-21_21h15.20.132,exp11,2020.2.6,Win32,60,IwAR2g_uZYATue8hKJ8HfVdoWjE957yzHhgttO7-VktzKDo8X01NmsegucXCM,,,,,,,,,,,
,,,,,,,,,,,,,,p,1,1.25004,space,0.373164999,0,56,56,81,1,15_dist_green/trial7.png,,,1,15,greenverival,p,35,21,Female,2021-02-21_21h15.20.132,exp11,2020.2.6,Win32,60,IwAR2g_uZYATue8hKJ8HfVdoWjE957yzHhgttO7-VktzKDo8X01NmsegucXCM,,,,,,,,,,,
,,,,,,,,,,,,,,p,1,0.707595,space,0.284035,0,57,57,30,1,3_dist_green/trial6.png,,,1,3,greenverival,p,35,21,Female,2021-02-21_21h15.20.132,exp11,2020.2.6,Win32,60,IwAR2g_uZYATue8hKJ8HfVdoWjE957yzHhgttO7-VktzKDo8X01NmsegucXCM,,,,,,,,,,,
,,,,,,,,,,,,,,p,1,0.48306,space,0.29388,0,58,58,24,1,0_dist_green/trial25.png,,,1,0,greenverival,p,35,21,Female,2021-02-21_21h15.20.132,exp11,2020.2.6,Win32,60,IwAR2g_uZYATue8hKJ8HfVdoWjE957yzHhgttO7-VktzKDo8X01NmsegucXCM,,,,,,,,,,,
,,,,,,,,,,,,,,p,1,0.566405,space,0.476695,0,59,59,82,1,15_dist_green/trial8.png,,,1,15,greenverival,p,35,21,Female,2021-02-21_21h15.20.132,exp11,2020.2.6,Win32,60,IwAR2g_uZYATue8hKJ8HfVdoWjE957yzHhgttO7-VktzKDo8X01NmsegucXCM,,,,,,,,,,,
,,,,,,,,,,,,,,p,1,0.489695,space,0.307705,0,60,60,65,1,9_dist_green/trial16.png,,,1,9,greenverival,p,35,21,Female,2021-02-21_21h15.20.132,exp11,2020.2.6,Win32,60,IwAR2g_uZYATue8hKJ8HfVdoWjE957yzHhgttO7-VktzKDo8X01NmsegucXCM,,,,,,,,,,,
,,,,,,,,,,,,,,a,1,0.84938,space,0.277574999,0,61,61,155,1,0_targ_10_dist_green/trial6.png,,,0,10,greenverival,a,35,21,Female,2021-02-21_21h15.20.132,exp11,2020.2.6,Win32,60,IwAR2g_uZYATue8hKJ8HfVdoWjE957yzHhgttO7-VktzKDo8X01NmsegucXCM,,,,,,,,,,,
,,,,,,,,,,,,,,p,1,1.850740001,space,0.344155,0,62,62,97,1,15_dist_green/trial23.png,,,1,15,greenverival,p,35,21,Female,2021-02-21_21h15.20.132,exp11,2020.2.6,Win32,60,IwAR2g_uZYATue8hKJ8HfVdoWjE957yzHhgttO7-VktzKDo8X01NmsegucXCM,,,,,,,,,,,
,,,,,,,,,,,,,,p,1,0.915434999,space,0.42201,0,63,63,60,1,9_dist_green/trial11.png,,,1,9,greenverival,p,35,21,Female,2021-02-21_21h15.20.132,exp11,2020.2.6,Win32,60,IwAR2g_uZYATue8hKJ8HfVdoWjE957yzHhgttO7-VktzKDo8X01NmsegucXCM,,,,,,,,,,,
,,,,,,,,,,,,,,p,1,1.01352,space,0.468685,0,64,64,88,1,15_dist_green/trial14.png,,,1,15,greenverival,p,35,21,Female,2021-02-21_21h15.20.132,exp11,2020.2.6,Win32,60,IwAR2g_uZYATue8hKJ8HfVdoWjE957yzHhgttO7-VktzKDo8X01NmsegucXCM,,,,,,,,,,,
,,,,,,,,,,,,,,p,1,0.854005001,space,0.53393,0,65,65,71,1,9_dist_green/trial22.png,,,1,9,greenverival,p,35,21,Female,2021-02-21_21h15.20.132,exp11,2020.2.6,Win32,60,IwAR2g_uZYATue8hKJ8HfVdoWjE957yzHhgttO7-VktzKDo8X01NmsegucXCM,,,,,,,,,,,
,,,,,,,,,,,,,,a,1,1.443305,space,0.54809,0,66,66,150,1,0_targ_10_dist_green/trial1.png,,,0,10,greenverival,a,35,21,Female,2021-02-21_21h15.20.132,exp11,2020.2.6,Win32,60,IwAR2g_uZYATue8hKJ8HfVdoWjE957yzHhgttO7-VktzKDo8X01NmsegucXCM,,,,,,,,,,,
,,,,,,,,,,,,,,p,1,0.772985,space,0.36663,0,67,67,28,1,3_dist_green/trial4.png,,,1,3,greenverival,p,35,21,Female,2021-02-21_21h15.20.132,exp11,2020.2.6,Win32,60,IwAR2g_uZYATue8hKJ8HfVdoWjE957yzHhgttO7-VktzKDo8X01NmsegucXCM,,,,,,,,,,,
,,,,,,,,,,,,,,a,1,0.705295,space,1.523814999,0,68,68,136,1,0_targ_4_dist_green/trial12.png,,,0,4,greenverival,a,35,21,Female,2021-02-21_21h15.20.132,exp11,2020.2.6,Win32,60,IwAR2g_uZYATue8hKJ8HfVdoWjE957yzHhgttO7-VktzKDo8X01NmsegucXCM,,,,,,,,,,,
,,,,,,,,,,,,,,p,1,0.80141,space,0.418555,0,69,69,80,1,15_dist_green/trial6.png,,,1,15,greenverival,p,35,21,Female,2021-02-21_21h15.20.132,exp11,2020.2.6,Win32,60,IwAR2g_uZYATue8hKJ8HfVdoWjE957yzHhgttO7-VktzKDo8X01NmsegucXCM,,,,,,,,,,,
,,,,,,,,,,,,,,p,1,0.979979999,space,0.416804999,0,70,70,61,1,9_dist_green/trial12.png,,,1,9,greenverival,p,35,21,Female,2021-02-21_21h15.20.132,exp11,2020.2.6,Win32,60,IwAR2g_uZYATue8hKJ8HfVdoWjE957yzHhgttO7-VktzKDo8X01NmsegucXCM,,,,,,,,,,,
,,,,,,,,,,,,,,a,1,0.771595,space,0.435409999,0,71,71,128,1,0_targ_4_dist_green/trial4.png,,,0,4,greenverival,a,35,21,Female,2021-02-21_21h15.20.132,exp11,2020.2.6,Win32,60,IwAR2g_uZYATue8hKJ8HfVdoWjE957yzHhgttO7-VktzKDo8X01NmsegucXCM,,,,,,,,,,,
,,,,,,,,,,,,,,p,1,1.33498,space,0.371205,0,72,72,74,1,9_dist_green/trial25.png,,,1,9,greenverival,p,35,21,Female,2021-02-21_21h15.20.132,exp11,2020.2.6,Win32,60,IwAR2g_uZYATue8hKJ8HfVdoWjE957yzHhgttO7-VktzKDo8X01NmsegucXCM,,,,,,,,,,,
,,,,,,,,,,,,,,p,1,0.793415001,space,0.433924999,0,73,73,62,1,9_dist_green/trial13.png,,,1,9,greenverival,p,35,21,Female,2021-02-21_21h15.20.132,exp11,2020.2.6,Win32,60,IwAR2g_uZYATue8hKJ8HfVdoWjE957yzHhgttO7-VktzKDo8X01NmsegucXCM,,,,,,,,,,,
,,,,,,,,,,,,,,a,1,0.582239999,space,0.374884999,0,74,74,129,1,0_targ_4_dist_green/trial5.png,,,0,4,greenverival,a,35,21,Female,2021-02-21_21h15.20.132,exp11,2020.2.6,Win32,60,IwAR2g_uZYATue8hKJ8HfVdoWjE957yzHhgttO7-VktzKDo8X01NmsegucXCM,,,,,,,,,,,
,,,,,,,,,,,,,,p,1,0.788795,space,0.40298,0,75,75,63,1,9_dist_green/trial14.png,,,1,9,greenverival,p,35,21,Female,2021-02-21_21h15.20.132,exp11,2020.2.6,Win32,60,IwAR2g_uZYATue8hKJ8HfVdoWjE957yzHhgttO7-VktzKDo8X01NmsegucXCM,,,,,,,,,,,
,,,,,,,,,,,,,,p,1,0.812419999,space,0.35027,0,76,76,51,1,9_dist_green/trial2.png,,,1,9,greenverival,p,35,21,Female,2021-02-21_21h15.20.132,exp11,2020.2.6,Win32,60,IwAR2g_uZYATue8hKJ8HfVdoWjE957yzHhgttO7-VktzKDo8X01NmsegucXCM,,,,,,,,,,,
,,,,,,,,,,,,,,p,1,0.69507,space,0.282664999,0,77,77,46,1,3_dist_green/trial22.png,,,1,3,greenverival,p,35,21,Female,2021-02-21_21h15.20.132,exp11,2020.2.6,Win32,60,IwAR2g_uZYATue8hKJ8HfVdoWjE957yzHhgttO7-VktzKDo8X01NmsegucXCM,,,,,,,,,,,
,,,,,,,,,,,,,,a,1,0.940564999,space,0.343165,0,78,78,183,1,0_targ_16_dist_green/trial9.png,,,0,16,greenverival,a,35,21,Female,2021-02-21_21h15.20.132,exp11,2020.2.6,Win32,60,IwAR2g_uZYATue8hKJ8HfVdoWjE957yzHhgttO7-VktzKDo8X01NmsegucXCM,,,,,,,,,,,
,,,,,,,,,,,,,,a,1,0.82774,space,0.305165,0,79,79,144,1,0_targ_4_dist_green/trial20.png,,,0,4,greenverival,a,35,21,Female,2021-02-21_21h15.20.132,exp11,2020.2.6,Win32,60,IwAR2g_uZYATue8hKJ8HfVdoWjE957yzHhgttO7-VktzKDo8X01NmsegucXCM,,,,,,,,,,,
,,,,,,,,,,,,,,p,1,0.91962,space,0.386185001,0,80,80,91,1,15_dist_green/trial17.png,,,1,15,greenverival,p,35,21,Female,2021-02-21_21h15.20.132,exp11,2020.2.6,Win32,60,IwAR2g_uZYATue8hKJ8HfVdoWjE957yzHhgttO7-VktzKDo8X01NmsegucXCM,,,,,,,,,,,
,,,,,,,,,,,,,,a,1,0.63019,space,0.441745,0,81,81,120,1,0_targ_1_dist_green/trial21.png,,,0,1,greenverival,a,35,21,Female,2021-02-21_21h15.20.132,exp11,2020.2.6,Win32,60,IwAR2g_uZYATue8hKJ8HfVdoWjE957yzHhgttO7-VktzKDo8X01NmsegucXCM,,,,,,,,,,,
,,,,,,,,,,,,,,a,1,1.312055,space,0.359405,0,82,82,157,1,0_targ_10_dist_green/trial8.png,,,0,10,greenverival,a,35,21,Female,2021-02-21_21h15.20.132,exp11,2020.2.6,Win32,60,IwAR2g_uZYATue8hKJ8HfVdoWjE957yzHhgttO7-VktzKDo8X01NmsegucXCM,,,,,,,,,,,
,,,,,,,,,,,,,,a,1,0.650745,space,0.331475,0,83,83,103,1,0_targ_1_dist_green/trial4.png,,,0,1,greenverival,a,35,21,Female,2021-02-21_21h15.20.132,exp11,2020.2.6,Win32,60,IwAR2g_uZYATue8hKJ8HfVdoWjE957yzHhgttO7-VktzKDo8X01NmsegucXCM,,,,,,,,,,,
,,,,,,,,,,,,,,a,1,0.614375,space,0.30295,0,84,84,110,1,0_targ_1_dist_green/trial11.png,,,0,1,greenverival,a,35,21,Female,2021-02-21_21h15.20.132,exp11,2020.2.6,Win32,60,IwAR2g_uZYATue8hKJ8HfVdoWjE957yzHhgttO7-VktzKDo8X01NmsegucXCM,,,,,,,,,,,
,,,,,,,,,,,,,,p,1,0.618175,space,0.328175,0,85,85,50,1,9_dist_green/trial1.png,,,1,9,greenverival,p,35,21,Female,2021-02-21_21h15.20.132,exp11,2020.2.6,Win32,60,IwAR2g_uZYATue8hKJ8HfVdoWjE957yzHhgttO7-VktzKDo8X01NmsegucXCM,,,,,,,,,,,
,,,,,,,,,,,,,,a,1,0.942935,space,0.386585,0,86,86,182,1,0_targ_16_dist_green/trial8.png,,,0,16,greenverival,a,35,21,Female,2021-02-21_21h15.20.132,exp11,2020.2.6,Win32,60,IwAR2g_uZYATue8hKJ8HfVdoWjE957yzHhgttO7-VktzKDo8X01NmsegucXCM,,,,,,,,,,,
,,,,,,,,,,,,,,p,1,0.69368,space,0.38723,0,87,87,49,1,3_dist_green/trial25.png,,,1,3,greenverival,p,35,21,Female,2021-02-21_21h15.20.132,exp11,2020.2.6,Win32,60,IwAR2g_uZYATue8hKJ8HfVdoWjE957yzHhgttO7-VktzKDo8X01NmsegucXCM,,,,,,,,,,,
,,,,,,,,,,,,,,p,1,0.646795,space,0.29056,0,88,88,19,1,0_dist_green/trial20.png,,,1,0,greenverival,p,35,21,Female,2021-02-21_21h15.20.132,exp11,2020.2.6,Win32,60,IwAR2g_uZYATue8hKJ8HfVdoWjE957yzHhgttO7-VktzKDo8X01NmsegucXCM,,,,,,,,,,,
,,,,,,,,,,,,,,p,1,0.764935,space,0.28381,0,89,89,96,1,15_dist_green/trial22.png,,,1,15,greenverival,p,35,21,Female,2021-02-21_21h15.20.132,exp11,2020.2.6,Win32,60,IwAR2g_uZYATue8hKJ8HfVdoWjE957yzHhgttO7-VktzKDo8X01NmsegucXCM,,,,,,,,,,,
,,,,,,,,,,,,,,a,1,0.72073,space,0.308584999,0,90,90,142,1,0_targ_4_dist_green/trial18.png,,,0,4,greenverival,a,35,21,Female,2021-02-21_21h15.20.132,exp11,2020.2.6,Win32,60,IwAR2g_uZYATue8hKJ8HfVdoWjE957yzHhgttO7-VktzKDo8X01NmsegucXCM,,,,,,,,,,,
,,,,,,,,,,,,,,a,1,0.764760001,space,0.267805,0,91,91,168,1,0_targ_10_dist_green/trial19.png,,,0,10,greenverival,a,35,21,Female,2021-02-21_21h15.20.132,exp11,2020.2.6,Win32,60,IwAR2g_uZYATue8hKJ8HfVdoWjE957yzHhgttO7-VktzKDo8X01NmsegucXCM,,,,,,,,,,,
,,,,,,,,,,,,,,a,1,0.709175,space,0.31776,0,92,92,178,1,0_targ_16_dist_green/trial4.png,,,0,16,greenverival,a,35,21,Female,2021-02-21_21h15.20.132,exp11,2020.2.6,Win32,60,IwAR2g_uZYATue8hKJ8HfVdoWjE957yzHhgttO7-VktzKDo8X01NmsegucXCM,,,,,,,,,,,
,,,,,,,,,,,,,,p,1,0.642840001,space,0.31125,0,93,93,87,1,15_dist_green/trial13.png,,,1,15,greenverival,p,35,21,Female,2021-02-21_21h15.20.132,exp11,2020.2.6,Win32,60,IwAR2g_uZYATue8hKJ8HfVdoWjE957yzHhgttO7-VktzKDo8X01NmsegucXCM,,,,,,,,,,,
,,,,,,,,,,,,,,a,1,0.629845001,space,0.2779,0,94,94,135,1,0_targ_4_dist_green/trial11.png,,,0,4,greenverival,a,35,21,Female,2021-02-21_21h15.20.132,exp11,2020.2.6,Win32,60,IwAR2g_uZYATue8hKJ8HfVdoWjE957yzHhgttO7-VktzKDo8X01NmsegucXCM,,,,,,,,,,,
,,,,,,,,,,,,,,a,1,0.673605,space,0.289055,0,95,95,126,1,0_targ_4_dist_green/trial2.png,,,0,4,greenverival,a,35,21,Female,2021-02-21_21h15.20.132,exp11,2020.2.6,Win32,60,IwAR2g_uZYATue8hKJ8HfVdoWjE957yzHhgttO7-VktzKDo8X01NmsegucXCM,,,,,,,,,,,
,,,,,,,,,,,,,,p,1,0.78339,space,0.299525,0,96,96,77,1,15_dist_green/trial3.png,,,1,15,greenverival,p,35,21,Female,2021-02-21_21h15.20.132,exp11,2020.2.6,Win32,60,IwAR2g_uZYATue8hKJ8HfVdoWjE957yzHhgttO7-VktzKDo8X01NmsegucXCM,,,,,,,,,,,
,,,,,,,,,,,,,,p,1,0.71169,space,0.30045,0,97,97,98,1,15_dist_green/trial24.png,,,1,15,greenverival,p,35,21,Female,2021-02-21_21h15.20.132,exp11,2020.2.6,Win32,60,IwAR2g_uZYATue8hKJ8HfVdoWjE957yzHhgttO7-VktzKDo8X01NmsegucXCM,,,,,,,,,,,
,,,,,,,,,,,,,,a,1,0.5959,space,0.336885001,0,98,98,100,1,0_targ_1_dist_green/trial1.png,,,0,1,greenverival,a,35,21,Female,2021-02-21_21h15.20.132,exp11,2020.2.6,Win32,60,IwAR2g_uZYATue8hKJ8HfVdoWjE957yzHhgttO7-VktzKDo8X01NmsegucXCM,,,,,,,,,,,
,,,,,,,,,,,,,,p,1,0.770695,space,0.32441,0,99,99,66,1,9_dist_green/trial17.png,,,1,9,greenverival,p,35,21,Female,2021-02-21_21h15.20.132,exp11,2020.2.6,Win32,60,IwAR2g_uZYATue8hKJ8HfVdoWjE957yzHhgttO7-VktzKDo8X01NmsegucXCM,,,,,,,,,,,
,,,,,,,,,,,,,,p,1,0.57003,space,0.351325,0,100,100,16,1,0_dist_green/trial17.png,,,1,0,greenverival,p,35,21,Female,2021-02-21_21h15.20.132,exp11,2020.2.6,Win32,60,IwAR2g_uZYATue8hKJ8HfVdoWjE957yzHhgttO7-VktzKDo8X01NmsegucXCM,,,,,,,,,,,
,,,,,,,,,,,,,,a,1,0.970905,space,0.409515,0,101,101,179,1,0_targ_16_dist_green/trial5.png,,,0,16,greenverival,a,35,21,Female,2021-02-21_21h15.20.132,exp11,2020.2.6,Win32,60,IwAR2g_uZYATue8hKJ8HfVdoWjE957yzHhgttO7-VktzKDo8X01NmsegucXCM,,,,,,,,,,,
,,,,,,,,,,,,,,p,1,0.841395,space,0.395205,0,102,102,85,1,15_dist_green/trial11.png,,,1,15,greenverival,p,35,21,Female,2021-02-21_21h15.20.132,exp11,2020.2.6,Win32,60,IwAR2g_uZYATue8hKJ8HfVdoWjE957yzHhgttO7-VktzKDo8X01NmsegucXCM,,,,,,,,,,,
,,,,,,,,,,,,,,p,1,0.9591,space,0.33408,0,103,103,67,1,9_dist_green/trial18.png,,,1,9,greenverival,p,35,21,Female,2021-02-21_21h15.20.132,exp11,2020.2.6,Win32,60,IwAR2g_uZYATue8hKJ8HfVdoWjE957yzHhgttO7-VktzKDo8X01NmsegucXCM,,,,,,,,,,,
,,,,,,,,,,,,,,p,1,0.662760001,space,0.302005,0,104,104,27,1,3_dist_green/trial3.png,,,1,3,greenverival,p,35,21,Female,2021-02-21_21h15.20.132,exp11,2020.2.6,Win32,60,IwAR2g_uZYATue8hKJ8HfVdoWjE957yzHhgttO7-VktzKDo8X01NmsegucXCM,,,,,,,,,,,
,,,,,,,,,,,,,,p,1,1.19104,space,0.302104999,0,105,105,29,1,3_dist_green/trial5.png,,,1,3,greenverival,p,35,21,Female,2021-02-21_21h15.20.132,exp11,2020.2.6,Win32,60,IwAR2g_uZYATue8hKJ8HfVdoWjE957yzHhgttO7-VktzKDo8X01NmsegucXCM,,,,,,,,,,,
,,,,,,,,,,,,,,p,1,0.79772,space,0.337875,0,106,106,35,1,3_dist_green/trial11.png,,,1,3,greenverival,p,35,21,Female,2021-02-21_21h15.20.132,exp11,2020.2.6,Win32,60,IwAR2g_uZYATue8hKJ8HfVdoWjE957yzHhgttO7-VktzKDo8X01NmsegucXCM,,,,,,,,,,,
,,,,,,,,,,,,,,a,1,0.939995,space,0.31751,0,107,107,175,1,0_targ_16_dist_green/trial1.png,,,0,16,greenverival,a,35,21,Female,2021-02-21_21h15.20.132,exp11,2020.2.6,Win32,60,IwAR2g_uZYATue8hKJ8HfVdoWjE957yzHhgttO7-VktzKDo8X01NmsegucXCM,,,,,,,,,,,
,,,,,,,,,,,,,,a,1,0.830695,space,0.25066,0,108,108,170,1,0_targ_10_dist_green/trial21.png,,,0,10,greenverival,a,35,21,Female,2021-02-21_21h15.20.132,exp11,2020.2.6,Win32,60,IwAR2g_uZYATue8hKJ8HfVdoWjE957yzHhgttO7-VktzKDo8X01NmsegucXCM,,,,,,,,,,,
,,,,,,,,,,,,,,p,1,0.83973,space,0.34091,0,109,109,99,1,15_dist_green/trial25.png,,,1,15,greenverival,p,35,21,Female,2021-02-21_21h15.20.132,exp11,2020.2.6,Win32,60,IwAR2g_uZYATue8hKJ8HfVdoWjE957yzHhgttO7-VktzKDo8X01NmsegucXCM,,,,,,,,,,,
,,,,,,,,,,,,,,p,1,1.31141,space,0.38706,0,110,110,53,1,9_dist_green/trial4.png,,,1,9,greenverival,p,35,21,Female,2021-02-21_21h15.20.132,exp11,2020.2.6,Win32,60,IwAR2g_uZYATue8hKJ8HfVdoWjE957yzHhgttO7-VktzKDo8X01NmsegucXCM,,,,,,,,,,,
,,,,,,,,,,,,,,a,1,0.653530001,space,0.606535001,0,111,111,108,1,0_targ_1_dist_green/trial9.png,,,0,1,greenverival,a,35,21,Female,2021-02-21_21h15.20.132,exp11,2020.2.6,Win32,60,IwAR2g_uZYATue8hKJ8HfVdoWjE957yzHhgttO7-VktzKDo8X01NmsegucXCM,,,,,,,,,,,
,,,,,,,,,,,,,,p,1,0.72418,space,0.39483,0,112,112,57,1,9_dist_green/trial8.png,,,1,9,greenverival,p,35,21,Female,2021-02-21_21h15.20.132,exp11,2020.2.6,Win32,60,IwAR2g_uZYATue8hKJ8HfVdoWjE957yzHhgttO7-VktzKDo8X01NmsegucXCM,,,,,,,,,,,
,,,,,,,,,,,,,,p,1,0.62514,space,0.350695,0,113,113,7,1,0_dist_green/trial8.png,,,1,0,greenverival,p,35,21,Female,2021-02-21_21h15.20.132,exp11,2020.2.6,Win32,60,IwAR2g_uZYATue8hKJ8HfVdoWjE957yzHhgttO7-VktzKDo8X01NmsegucXCM,,,,,,,,,,,
,,,,,,,,,,,,,,a,1,0.78281,space,0.37027,0,114,114,109,1,0_targ_1_dist_green/trial10.png,,,0,1,greenverival,a,35,21,Female,2021-02-21_21h15.20.132,exp11,2020.2.6,Win32,60,IwAR2g_uZYATue8hKJ8HfVdoWjE957yzHhgttO7-VktzKDo8X01NmsegucXCM,,,,,,,,,,,
,,,,,,,,,,,,,,a,1,0.95734,space,0.34369,0,115,115,172,1,0_targ_10_dist_green/trial23.png,,,0,10,greenverival,a,35,21,Female,2021-02-21_21h15.20.132,exp11,2020.2.6,Win32,60,IwAR2g_uZYATue8hKJ8HfVdoWjE957yzHhgttO7-VktzKDo8X01NmsegucXCM,,,,,,,,,,,
,,,,,,,,,,,,,,a,1,0.828225,space,0.34919,0,116,116,158,1,0_targ_10_dist_green/trial9.png,,,0,10,greenverival,a,35,21,Female,2021-02-21_21h15.20.132,exp11,2020.2.6,Win32,60,IwAR2g_uZYATue8hKJ8HfVdoWjE957yzHhgttO7-VktzKDo8X01NmsegucXCM,,,,,,,,,,,
,,,,,,,,,,,,,,p,1,0.78288,space,0.642545,0,117,117,78,1,15_dist_green/trial4.png,,,1,15,greenverival,p,35,21,Female,2021-02-21_21h15.20.132,exp11,2020.2.6,Win32,60,IwAR2g_uZYATue8hKJ8HfVdoWjE957yzHhgttO7-VktzKDo8X01NmsegucXCM,,,,,,,,,,,
,,,,,,,,,,,,,,p,1,0.94355,space,0.30068,0,118,118,0,1,0_dist_green/trial1.png,,,1,0,greenverival,p,35,21,Female,2021-02-21_21h15.20.132,exp11,2020.2.6,Win32,60,IwAR2g_uZYATue8hKJ8HfVdoWjE957yzHhgttO7-VktzKDo8X01NmsegucXCM,,,,,,,,,,,
,,,,,,,,,,,,,,p,1,0.66281,space,0.34071,0,119,119,36,1,3_dist_green/trial12.png,,,1,3,greenverival,p,35,21,Female,2021-02-21_21h15.20.132,exp11,2020.2.6,Win32,60,IwAR2g_uZYATue8hKJ8HfVdoWjE957yzHhgttO7-VktzKDo8X01NmsegucXCM,,,,,,,,,,,
,,,,,,,,,,,,,,p,1,0.610394999,space,0.402265,0,120,120,5,1,0_dist_green/trial6.png,,,1,0,greenverival,p,35,21,Female,2021-02-21_21h15.20.132,exp11,2020.2.6,Win32,60,IwAR2g_uZYATue8hKJ8HfVdoWjE957yzHhgttO7-VktzKDo8X01NmsegucXCM,,,,,,,,,,,
,,,,,,,,,,,,,,p,1,0.612805001,space,0.3629,0,121,121,55,1,9_dist_green/trial6.png,,,1,9,greenverival,p,35,21,Female,2021-02-21_21h15.20.132,exp11,2020.2.6,Win32,60,IwAR2g_uZYATue8hKJ8HfVdoWjE957yzHhgttO7-VktzKDo8X01NmsegucXCM,,,,,,,,,,,
,,,,,,,,,,,,,,p,1,0.642265,space,0.31833,0,122,122,33,1,3_dist_green/trial9.png,,,1,3,greenverival,p,35,21,Female,2021-02-21_21h15.20.132,exp11,2020.2.6,Win32,60,IwAR2g_uZYATue8hKJ8HfVdoWjE957yzHhgttO7-VktzKDo8X01NmsegucXCM,,,,,,,,,,,
,,,,,,,,,,,,,,a,1,0.663275,space,0.345985,0,123,123,143,1,0_targ_4_dist_green/trial19.png,,,0,4,greenverival,a,35,21,Female,2021-02-21_21h15.20.132,exp11,2020.2.6,Win32,60,IwAR2g_uZYATue8hKJ8HfVdoWjE957yzHhgttO7-VktzKDo8X01NmsegucXCM,,,,,,,,,,,
,,,,,,,,,,,,,,a,1,0.75581,space,0.328670001,0,124,124,154,1,0_targ_10_dist_green/trial5.png,,,0,10,greenverival,a,35,21,Female,2021-02-21_21h15.20.132,exp11,2020.2.6,Win32,60,IwAR2g_uZYATue8hKJ8HfVdoWjE957yzHhgttO7-VktzKDo8X01NmsegucXCM,,,,,,,,,,,
,,,,,,,,,,,,,,p,1,1.07733,space,0.78399,0,125,125,95,1,15_dist_green/trial21.png,,,1,15,greenverival,p,35,21,Female,2021-02-21_21h15.20.132,exp11,2020.2.6,Win32,60,IwAR2g_uZYATue8hKJ8HfVdoWjE957yzHhgttO7-VktzKDo8X01NmsegucXCM,,,,,,,,,,,
,,,,,,,,,,,,,,p,1,0.854185,space,0.523539999,0,126,126,37,1,3_dist_green/trial13.png,,,1,3,greenverival,p,35,21,Female,2021-02-21_21h15.20.132,exp11,2020.2.6,Win32,60,IwAR2g_uZYATue8hKJ8HfVdoWjE957yzHhgttO7-VktzKDo8X01NmsegucXCM,,,,,,,,,,,
,,,,,,,,,,,,,,p,1,0.64011,space,0.300115,0,127,127,8,1,0_dist_green/trial9.png,,,1,0,greenverival,p,35,21,Female,2021-02-21_21h15.20.132,exp11,2020.2.6,Win32,60,IwAR2g_uZYATue8hKJ8HfVdoWjE957yzHhgttO7-VktzKDo8X01NmsegucXCM,,,,,,,,,,,
,,,,,,,,,,,,,,a,1,0.568865,space,0.352295,0,128,128,111,1,0_targ_1_dist_green/trial12.png,,,0,1,greenverival,a,35,21,Female,2021-02-21_21h15.20.132,exp11,2020.2.6,Win32,60,IwAR2g_uZYATue8hKJ8HfVdoWjE957yzHhgttO7-VktzKDo8X01NmsegucXCM,,,,,,,,,,,
,,,,,,,,,,,,,,a,1,0.616950001,space,0.36275,0,129,129,147,1,0_targ_4_dist_green/trial23.png,,,0,4,greenverival,a,35,21,Female,2021-02-21_21h15.20.132,exp11,2020.2.6,Win32,60,IwAR2g_uZYATue8hKJ8HfVdoWjE957yzHhgttO7-VktzKDo8X01NmsegucXCM,,,,,,,,,,,
,,,,,,,,,,,,,,a,1,1.191325,space,0.4171,0,130,130,191,1,0_targ_16_dist_green/trial17.png,,,0,16,greenverival,a,35,21,Female,2021-02-21_21h15.20.132,exp11,2020.2.6,Win32,60,IwAR2g_uZYATue8hKJ8HfVdoWjE957yzHhgttO7-VktzKDo8X01NmsegucXCM,,,,,,,,,,,
,,,,,,,,,,,,,,p,1,0.534010001,space,0.37756,0,131,131,3,1,0_dist_green/trial4.png,,,1,0,greenverival,p,35,21,Female,2021-02-21_21h15.20.132,exp11,2020.2.6,Win32,60,IwAR2g_uZYATue8hKJ8HfVdoWjE957yzHhgttO7-VktzKDo8X01NmsegucXCM,,,,,,,,,,,
,,,,,,,,,,,,,,p,1,0.489715,space,0.389675,0,132,132,4,1,0_dist_green/trial5.png,,,1,0,greenverival,p,35,21,Female,2021-02-21_21h15.20.132,exp11,2020.2.6,Win32,60,IwAR2g_uZYATue8hKJ8HfVdoWjE957yzHhgttO7-VktzKDo8X01NmsegucXCM,,,,,,,,,,,
,,,,,,,,,,,,,,p,1,0.59723,space,0.37743,0,133,133,42,1,3_dist_green/trial18.png,,,1,3,greenverival,p,35,21,Female,2021-02-21_21h15.20.132,exp11,2020.2.6,Win32,60,IwAR2g_uZYATue8hKJ8HfVdoWjE957yzHhgttO7-VktzKDo8X01NmsegucXCM,,,,,,,,,,,
,,,,,,,,,,,,,,a,1,1.124215,space,0.37169,0,134,134,167,1,0_targ_10_dist_green/trial18.png,,,0,10,greenverival,a,35,21,Female,2021-02-21_21h15.20.132,exp11,2020.2.6,Win32,60,IwAR2g_uZYATue8hKJ8HfVdoWjE957yzHhgttO7-VktzKDo8X01NmsegucXCM,,,,,,,,,,,
,,,,,,,,,,,,,,p,1,1.174435,space,0.466250001,0,135,135,72,1,9_dist_green/trial23.png,,,1,9,greenverival,p,35,21,Female,2021-02-21_21h15.20.132,exp11,2020.2.6,Win32,60,IwAR2g_uZYATue8hKJ8HfVdoWjE957yzHhgttO7-VktzKDo8X01NmsegucXCM,,,,,,,,,,,
,,,,,,,,,,,,,,p,1,1.158175,space,0.367749999,0,136,136,64,1,9_dist_green/trial15.png,,,1,9,greenverival,p,35,21,Female,2021-02-21_21h15.20.132,exp11,2020.2.6,Win32,60,IwAR2g_uZYATue8hKJ8HfVdoWjE957yzHhgttO7-VktzKDo8X01NmsegucXCM,,,,,,,,,,,
,,,,,,,,,,,,,,a,1,0.79248,space,0.368205,0,137,137,116,1,0_targ_1_dist_green/trial17.png,,,0,1,greenverival,a,35,21,Female,2021-02-21_21h15.20.132,exp11,2020.2.6,Win32,60,IwAR2g_uZYATue8hKJ8HfVdoWjE957yzHhgttO7-VktzKDo8X01NmsegucXCM,,,,,,,,,,,
,,,,,,,,,,,,,,a,1,0.82485,space,0.309975,0,138,138,140,1,0_targ_4_dist_green/trial6.png,,,0,4,greenverival,a,35,21,Female,2021-02-21_21h15.20.132,exp11,2020.2.6,Win32,60,IwAR2g_uZYATue8hKJ8HfVdoWjE957yzHhgttO7-VktzKDo8X01NmsegucXCM,,,,,,,,,,,
,,,,,,,,,,,,,,a,1,0.979265,space,0.406875,0,139,139,189,1,0_targ_16_dist_green/trial15.png,,,0,16,greenverival,a,35,21,Female,2021-02-21_21h15.20.132,exp11,2020.2.6,Win32,60,IwAR2g_uZYATue8hKJ8HfVdoWjE957yzHhgttO7-VktzKDo8X01NmsegucXCM,,,,,,,,,,,
,,,,,,,,,,,,,,p,1,0.623085,space,0.38434,0,140,140,10,1,0_dist_green/trial11.png,,,1,0,greenverival,p,35,21,Female,2021-02-21_21h15.20.132,exp11,2020.2.6,Win32,60,IwAR2g_uZYATue8hKJ8HfVdoWjE957yzHhgttO7-VktzKDo8X01NmsegucXCM,,,,,,,,,,,
,,,,,,,,,,,,,,p,1,0.64343,space,0.322885,0,141,141,31,1,3_dist_green/trial7.png,,,1,3,greenverival,p,35,21,Female,2021-02-21_21h15.20.132,exp11,2020.2.6,Win32,60,IwAR2g_uZYATue8hKJ8HfVdoWjE957yzHhgttO7-VktzKDo8X01NmsegucXCM,,,,,,,,,,,
,,,,,,,,,,,,,,a,1,0.75299,space,0.33935,0,142,142,160,1,0_targ_10_dist_green/trial11.png,,,0,10,greenverival,a,35,21,Female,2021-02-21_21h15.20.132,exp11,2020.2.6,Win32,60,IwAR2g_uZYATue8hKJ8HfVdoWjE957yzHhgttO7-VktzKDo8X01NmsegucXCM,,,,,,,,,,,
,,,,,,,,,,,,,,p,1,0.652645,space,0.372305,0,143,143,68,1,9_dist_green/trial19.png,,,1,9,greenverival,p,35,21,Female,2021-02-21_21h15.20.132,exp11,2020.2.6,Win32,60,IwAR2g_uZYATue8hKJ8HfVdoWjE957yzHhgttO7-VktzKDo8X01NmsegucXCM,,,,,,,,,,,
,,,,,,,,,,,,,,p,1,0.78897,space,0.380445,0,144,144,89,1,15_dist_green/trial15.png,,,1,15,greenverival,p,35,21,Female,2021-02-21_21h15.20.132,exp11,2020.2.6,Win32,60,IwAR2g_uZYATue8hKJ8HfVdoWjE957yzHhgttO7-VktzKDo8X01NmsegucXCM,,,,,,,,,,,
,,,,,,,,,,,,,,p,1,0.60303,space,0.405040001,0,145,145,2,1,0_dist_green/trial3.png,,,1,0,greenverival,p,35,21,Female,2021-02-21_21h15.20.132,exp11,2020.2.6,Win32,60,IwAR2g_uZYATue8hKJ8HfVdoWjE957yzHhgttO7-VktzKDo8X01NmsegucXCM,,,,,,,,,,,
,,,,,,,,,,,,,,p,1,0.629445,space,0.353285001,0,146,146,76,1,15_dist_green/trial2.png,,,1,15,greenverival,p,35,21,Female,2021-02-21_21h15.20.132,exp11,2020.2.6,Win32,60,IwAR2g_uZYATue8hKJ8HfVdoWjE957yzHhgttO7-VktzKDo8X01NmsegucXCM,,,,,,,,,,,
,,,,,,,,,,,,,,a,1,0.613495,space,0.384525,0,147,147,102,1,0_targ_1_dist_green/trial3.png,,,0,1,greenverival,a,35,21,Female,2021-02-21_21h15.20.132,exp11,2020.2.6,Win32,60,IwAR2g_uZYATue8hKJ8HfVdoWjE957yzHhgttO7-VktzKDo8X01NmsegucXCM,,,,,,,,,,,
,,,,,,,,,,,,,,p,1,0.56364,space,0.382345,0,148,148,18,1,0_dist_green/trial19.png,,,1,0,greenverival,p,35,21,Female,2021-02-21_21h15.20.132,exp11,2020.2.6,Win32,60,IwAR2g_uZYATue8hKJ8HfVdoWjE957yzHhgttO7-VktzKDo8X01NmsegucXCM,,,,,,,,,,,
,,,,,,,,,,,,,,p,1,1.036385,space,0.41896,0,149,149,34,1,3_dist_green/trial10.png,,,1,3,greenverival,p,35,21,Female,2021-02-21_21h15.20.132,exp11,2020.2.6,Win32,60,IwAR2g_uZYATue8hKJ8HfVdoWjE957yzHhgttO7-VktzKDo8X01NmsegucXCM,,,,,,,,,,,
,,,,,,,,,,,,,,a,1,0.611994999,space,0.45262,0,150,150,115,1,0_targ_1_dist_green/trial6.png,,,0,1,greenverival,a,35,21,Female,2021-02-21_21h15.20.132,exp11,2020.2.6,Win32,60,IwAR2g_uZYATue8hKJ8HfVdoWjE957yzHhgttO7-VktzKDo8X01NmsegucXCM,,,,,,,,,,,
,,,,,,,,,,,,,,a,1,0.631315,space,0.55232,0,151,151,145,1,0_targ_4_dist_green/trial21.png,,,0,4,greenverival,a,35,21,Female,2021-02-21_21h15.20.132,exp11,2020.2.6,Win32,60,IwAR2g_uZYATue8hKJ8HfVdoWjE957yzHhgttO7-VktzKDo8X01NmsegucXCM,,,,,,,,,,,
,,,,,,,,,,,,,,a,1,1.009684999,space,0.44291,0,152,152,122,1,0_targ_1_dist_green/trial23.png,,,0,1,greenverival,a,35,21,Female,2021-02-21_21h15.20.132,exp11,2020.2.6,Win32,60,IwAR2g_uZYATue8hKJ8HfVdoWjE957yzHhgttO7-VktzKDo8X01NmsegucXCM,,,,,,,,,,,
,,,,,,,,,,,,,,a,1,1.442185,space,0.396325001,0,153,153,169,1,0_targ_10_dist_green/trial20.png,,,0,10,greenverival,a,35,21,Female,2021-02-21_21h15.20.132,exp11,2020.2.6,Win32,60,IwAR2g_uZYATue8hKJ8HfVdoWjE957yzHhgttO7-VktzKDo8X01NmsegucXCM,,,,,,,,,,,
,,,,,,,,,,,,,,p,1,0.61612,space,0.356055,0,154,154,40,1,3_dist_green/trial16.png,,,1,3,greenverival,p,35,21,Female,2021-02-21_21h15.20.132,exp11,2020.2.6,Win32,60,IwAR2g_uZYATue8hKJ8HfVdoWjE957yzHhgttO7-VktzKDo8X01NmsegucXCM,,,,,,,,,,,
,,,,,,,,,,,,,,a,1,1.35007,space,0.407125,0,155,155,190,1,0_targ_16_dist_green/trial16.png,,,0,16,greenverival,a,35,21,Female,2021-02-21_21h15.20.132,exp11,2020.2.6,Win32,60,IwAR2g_uZYATue8hKJ8HfVdoWjE957yzHhgttO7-VktzKDo8X01NmsegucXCM,,,,,,,,,,,
,,,,,,,,,,,,,,a,1,0.915709999,space,0.39134,0,156,156,166,1,0_targ_10_dist_green/trial17.png,,,0,10,greenverival,a,35,21,Female,2021-02-21_21h15.20.132,exp11,2020.2.6,Win32,60,IwAR2g_uZYATue8hKJ8HfVdoWjE957yzHhgttO7-VktzKDo8X01NmsegucXCM,,,,,,,,,,,
,,,,,,,,,,,,,,a,1,0.823295,space,0.386159999,0,157,157,195,1,0_targ_16_dist_green/trial21.png,,,0,16,greenverival,a,35,21,Female,2021-02-21_21h15.20.132,exp11,2020.2.6,Win32,60,IwAR2g_uZYATue8hKJ8HfVdoWjE957yzHhgttO7-VktzKDo8X01NmsegucXCM,,,,,,,,,,,
,,,,,,,,,,,,,,a,1,0.695275,space,0.36017,0,158,158,133,1,0_targ_4_dist_green/trial9.png,,,0,4,greenverival,a,35,21,Female,2021-02-21_21h15.20.132,exp11,2020.2.6,Win32,60,IwAR2g_uZYATue8hKJ8HfVdoWjE957yzHhgttO7-VktzKDo8X01NmsegucXCM,,,,,,,,,,,
,,,,,,,,,,,,,,a,1,0.622839999,space,0.390435,0,159,159,146,1,0_targ_4_dist_green/trial22.png,,,0,4,greenverival,a,35,21,Female,2021-02-21_21h15.20.132,exp11,2020.2.6,Win32,60,IwAR2g_uZYATue8hKJ8HfVdoWjE957yzHhgttO7-VktzKDo8X01NmsegucXCM,,,,,,,,,,,
,,,,,,,,,,,,,,p,1,0.639645,space,0.400955,0,160,160,44,1,3_dist_green/trial20.png,,,1,3,greenverival,p,35,21,Female,2021-02-21_21h15.20.132,exp11,2020.2.6,Win32,60,IwAR2g_uZYATue8hKJ8HfVdoWjE957yzHhgttO7-VktzKDo8X01NmsegucXCM,,,,,,,,,,,
,,,,,,,,,,,,,,a,1,0.571760001,space,0.405535,0,161,161,132,1,0_targ_4_dist_green/trial8.png,,,0,4,greenverival,a,35,21,Female,2021-02-21_21h15.20.132,exp11,2020.2.6,Win32,60,IwAR2g_uZYATue8hKJ8HfVdoWjE957yzHhgttO7-VktzKDo8X01NmsegucXCM,,,,,,,,,,,
,,,,,,,,,,,,,,p,1,0.996069999,space,0.417565,0,162,162,86,1,15_dist_green/trial12.png,,,1,15,greenverival,p,35,21,Female,2021-02-21_21h15.20.132,exp11,2020.2.6,Win32,60,IwAR2g_uZYATue8hKJ8HfVdoWjE957yzHhgttO7-VktzKDo8X01NmsegucXCM,,,,,,,,,,,
,,,,,,,,,,,,,,a,1,1.043280001,space,0.432585,0,163,163,186,1,0_targ_16_dist_green/trial12.png,,,0,16,greenverival,a,35,21,Female,2021-02-21_21h15.20.132,exp11,2020.2.6,Win32,60,IwAR2g_uZYATue8hKJ8HfVdoWjE957yzHhgttO7-VktzKDo8X01NmsegucXCM,,,,,,,,,,,
,,,,,,,,,,,,,,p,1,1.03959,space,0.370165,0,164,164,45,1,3_dist_green/trial21.png,,,1,3,greenverival,p,35,21,Female,2021-02-21_21h15.20.132,exp11,2020.2.6,Win32,60,IwAR2g_uZYATue8hKJ8HfVdoWjE957yzHhgttO7-VktzKDo8X01NmsegucXCM,,,,,,,,,,,
,,,,,,,,,,,,,,p,1,1.24656,space,0.40791,0,165,165,59,1,9_dist_green/trial10.png,,,1,9,greenverival,p,35,21,Female,2021-02-21_21h15.20.132,exp11,2020.2.6,Win32,60,IwAR2g_uZYATue8hKJ8HfVdoWjE957yzHhgttO7-VktzKDo8X01NmsegucXCM,,,,,,,,,,,
,,,,,,,,,,,,,,p,1,0.695555001,space,0.350825,0,166,166,38,1,3_dist_green/trial14.png,,,1,3,greenverival,p,35,21,Female,2021-02-21_21h15.20.132,exp11,2020.2.6,Win32,60,IwAR2g_uZYATue8hKJ8HfVdoWjE957yzHhgttO7-VktzKDo8X01NmsegucXCM,,,,,,,,,,,
,,,,,,,,,,,,,,a,1,0.96843,space,0.386875001,0,167,167,152,1,0_targ_10_dist_green/trial3.png,,,0,10,greenverival,a,35,21,Female,2021-02-21_21h15.20.132,exp11,2020.2.6,Win32,60,IwAR2g_uZYATue8hKJ8HfVdoWjE957yzHhgttO7-VktzKDo8X01NmsegucXCM,,,,,,,,,,,
,,,,,,,,,,,,,,a,1,0.919055,space,0.28269,0,168,168,105,1,0_targ_1_dist_green/trial6.png,,,0,1,greenverival,a,35,21,Female,2021-02-21_21h15.20.132,exp11,2020.2.6,Win32,60,IwAR2g_uZYATue8hKJ8HfVdoWjE957yzHhgttO7-VktzKDo8X01NmsegucXCM,,,,,,,,,,,
,,,,,,,,,,,,,,p,1,0.87256,space,0.290355001,0,169,169,94,1,15_dist_green/trial20.png,,,1,15,greenverival,p,35,21,Female,2021-02-21_21h15.20.132,exp11,2020.2.6,Win32,60,IwAR2g_uZYATue8hKJ8HfVdoWjE957yzHhgttO7-VktzKDo8X01NmsegucXCM,,,,,,,,,,,
,,,,,,,,,,,,,,a,1,0.994639999,space,0.27044,0,170,170,159,1,0_targ_10_dist_green/trial10.png,,,0,10,greenverival,a,35,21,Female,2021-02-21_21h15.20.132,exp11,2020.2.6,Win32,60,IwAR2g_uZYATue8hKJ8HfVdoWjE957yzHhgttO7-VktzKDo8X01NmsegucXCM,,,,,,,,,,,
,,,,,,,,,,,,,,p,1,1.313095,space,0.45932,0,171,171,58,1,9_dist_green/trial9.png,,,1,9,greenverival,p,35,21,Female,2021-02-21_21h15.20.132,exp11,2020.2.6,Win32,60,IwAR2g_uZYATue8hKJ8HfVdoWjE957yzHhgttO7-VktzKDo8X01NmsegucXCM,,,,,,,,,,,
,,,,,,,,,,,,,,p,1,0.770455,space,0.567369999,0,172,172,23,1,0_dist_green/trial24.png,,,1,0,greenverival,p,35,21,Female,2021-02-21_21h15.20.132,exp11,2020.2.6,Win32,60,IwAR2g_uZYATue8hKJ8HfVdoWjE957yzHhgttO7-VktzKDo8X01NmsegucXCM,,,,,,,,,,,
,,,,,,,,,,,,,,a,1,0.63085,space,0.295209999,0,173,173,138,1,0_targ_4_dist_green/trial14.png,,,0,4,greenverival,a,35,21,Female,2021-02-21_21h15.20.132,exp11,2020.2.6,Win32,60,IwAR2g_uZYATue8hKJ8HfVdoWjE957yzHhgttO7-VktzKDo8X01NmsegucXCM,,,,,,,,,,,
,,,,,,,,,,,,,,a,1,0.924425,space,0.281835,0,174,174,151,1,0_targ_10_dist_green/trial2.png,,,0,10,greenverival,a,35,21,Female,2021-02-21_21h15.20.132,exp11,2020.2.6,Win32,60,IwAR2g_uZYATue8hKJ8HfVdoWjE957yzHhgttO7-VktzKDo8X01NmsegucXCM,,,,,,,,,,,
,,,,,,,,,,,,,,a,1,0.765805,space,0.38857,0,175,175,131,1,0_targ_4_dist_green/trial7.png,,,0,4,greenverival,a,35,21,Female,2021-02-21_21h15.20.132,exp11,2020.2.6,Win32,60,IwAR2g_uZYATue8hKJ8HfVdoWjE957yzHhgttO7-VktzKDo8X01NmsegucXCM,,,,,,,,,,,
,,,,,,,,,,,,,,p,1,0.667040001,space,0.31231,0,176,176,39,1,3_dist_green/trial15.png,,,1,3,greenverival,p,35,21,Female,2021-02-21_21h15.20.132,exp11,2020.2.6,Win32,60,IwAR2g_uZYATue8hKJ8HfVdoWjE957yzHhgttO7-VktzKDo8X01NmsegucXCM,,,,,,,,,,,
,,,,,,,,,,,,,,a,1,0.952959999,space,0.384489999,0,177,177,121,1,0_targ_1_dist_green/trial22.png,,,0,1,greenverival,a,35,21,Female,2021-02-21_21h15.20.132,exp11,2020.2.6,Win32,60,IwAR2g_uZYATue8hKJ8HfVdoWjE957yzHhgttO7-VktzKDo8X01NmsegucXCM,,,,,,,,,,,
,,,,,,,,,,,,,,p,1,0.819715001,space,0.377595,0,178,178,83,1,15_dist_green/trial9.png,,,1,15,greenverival,p,35,21,Female,2021-02-21_21h15.20.132,exp11,2020.2.6,Win32,60,IwAR2g_uZYATue8hKJ8HfVdoWjE957yzHhgttO7-VktzKDo8X01NmsegucXCM,,,,,,,,,,,
,,,,,,,,,,,,,,a,1,0.720405,space,0.335454999,0,179,179,171,1,0_targ_10_dist_green/trial22.png,,,0,10,greenverival,a,35,21,Female,2021-02-21_21h15.20.132,exp11,2020.2.6,Win32,60,IwAR2g_uZYATue8hKJ8HfVdoWjE957yzHhgttO7-VktzKDo8X01NmsegucXCM,,,,,,,,,,,
,,,,,,,,,,,,,,a,1,1.42498,space,0.38051,0,180,180,192,1,0_targ_16_dist_green/trial18.png,,,0,16,greenverival,a,35,21,Female,2021-02-21_21h15.20.132,exp11,2020.2.6,Win32,60,IwAR2g_uZYATue8hKJ8HfVdoWjE957yzHhgttO7-VktzKDo8X01NmsegucXCM,,,,,,,,,,,
,,,,,,,,,,,,,,p,1,0.568525,space,0.34665,0,181,181,9,1,0_dist_green/trial10.png,,,1,0,greenverival,p,35,21,Female,2021-02-21_21h15.20.132,exp11,2020.2.6,Win32,60,IwAR2g_uZYATue8hKJ8HfVdoWjE957yzHhgttO7-VktzKDo8X01NmsegucXCM,,,,,,,,,,,
,,,,,,,,,,,,,,a,1,1.002185,space,0.2859,0,182,182,193,1,0_targ_16_dist_green/trial19.png,,,0,16,greenverival,a,35,21,Female,2021-02-21_21h15.20.132,exp11,2020.2.6,Win32,60,IwAR2g_uZYATue8hKJ8HfVdoWjE957yzHhgttO7-VktzKDo8X01NmsegucXCM,,,,,,,,,,,
,,,,,,,,,,,,,,p,1,0.848095,space,0.37987,0,183,183,48,1,3_dist_green/trial24.png,,,1,3,greenverival,p,35,21,Female,2021-02-21_21h15.20.132,exp11,2020.2.6,Win32,60,IwAR2g_uZYATue8hKJ8HfVdoWjE957yzHhgttO7-VktzKDo8X01NmsegucXCM,,,,,,,,,,,
,,,,,,,,,,,,,,a,1,0.85057,space,0.351535001,0,184,184,125,1,0_targ_4_dist_green/trial1.png,,,0,4,greenverival,a,35,21,Female,2021-02-21_21h15.20.132,exp11,2020.2.6,Win32,60,IwAR2g_uZYATue8hKJ8HfVdoWjE957yzHhgttO7-VktzKDo8X01NmsegucXCM,,,,,,,,,,,
,,,,,,,,,,,,,,p,1,0.84051,space,0.342294999,0,185,185,93,1,15_dist_green/trial19.png,,,1,15,greenverival,p,35,21,Female,2021-02-21_21h15.20.132,exp11,2020.2.6,Win32,60,IwAR2g_uZYATue8hKJ8HfVdoWjE957yzHhgttO7-VktzKDo8X01NmsegucXCM,,,,,,,,,,,
,,,,,,,,,,,,,,a,1,0.819015,space,0.335195,0,186,186,184,1,0_targ_16_dist_green/trial10.png,,,0,16,greenverival,a,35,21,Female,2021-02-21_21h15.20.132,exp11,2020.2.6,Win32,60,IwAR2g_uZYATue8hKJ8HfVdoWjE957yzHhgttO7-VktzKDo8X01NmsegucXCM,,,,,,,,,,,
,,,,,,,,,,,,,,a,1,0.742670001,space,0.30743,0,187,187,137,1,0_targ_4_dist_green/trial13.png,,,0,4,greenverival,a,35,21,Female,2021-02-21_21h15.20.132,exp11,2020.2.6,Win32,60,IwAR2g_uZYATue8hKJ8HfVdoWjE957yzHhgttO7-VktzKDo8X01NmsegucXCM,,,,,,,,,,,
,,,,,,,,,,,,,,p,1,0.662815,space,0.309125,0,188,188,25,1,3_dist_green/trial1.png,,,1,3,greenverival,p,35,21,Female,2021-02-21_21h15.20.132,exp11,2020.2.6,Win32,60,IwAR2g_uZYATue8hKJ8HfVdoWjE957yzHhgttO7-VktzKDo8X01NmsegucXCM,,,,,,,,,,,
,,,,,,,,,,,,,,p,1,0.562445001,space,0.31709,0,189,189,17,1,0_dist_green/trial18.png,,,1,0,greenverival,p,35,21,Female,2021-02-21_21h15.20.132,exp11,2020.2.6,Win32,60,IwAR2g_uZYATue8hKJ8HfVdoWjE957yzHhgttO7-VktzKDo8X01NmsegucXCM,,,,,,,,,,,
,,,,,,,,,,,,,,p,1,0.44556,space,0.301554999,0,190,190,13,1,0_dist_green/trial14.png,,,1,0,greenverival,p,35,21,Female,2021-02-21_21h15.20.132,exp11,2020.2.6,Win32,60,IwAR2g_uZYATue8hKJ8HfVdoWjE957yzHhgttO7-VktzKDo8X01NmsegucXCM,,,,,,,,,,,
,,,,,,,,,,,,,,a,1,0.494764999,space,0.319859999,0,191,191,114,1,0_targ_1_dist_green/trial15.png,,,0,1,greenverival,a,35,21,Female,2021-02-21_21h15.20.132,exp11,2020.2.6,Win32,60,IwAR2g_uZYATue8hKJ8HfVdoWjE957yzHhgttO7-VktzKDo8X01NmsegucXCM,,,,,,,,,,,
,,,,,,,,,,,,,,a,1,0.758855,space,0.25598,0,192,192,162,1,0_targ_10_dist_green/trial13.png,,,0,10,greenverival,a,35,21,Female,2021-02-21_21h15.20.132,exp11,2020.2.6,Win32,60,IwAR2g_uZYATue8hKJ8HfVdoWjE957yzHhgttO7-VktzKDo8X01NmsegucXCM,,,,,,,,,,,
,,,,,,,,,,,,,,p,1,0.635629999,space,0.321040001,0,193,193,84,1,15_dist_green/trial10.png,,,1,15,greenverival,p,35,21,Female,2021-02-21_21h15.20.132,exp11,2020.2.6,Win32,60,IwAR2g_uZYATue8hKJ8HfVdoWjE957yzHhgttO7-VktzKDo8X01NmsegucXCM,,,,,,,,,,,
,,,,,,,,,,,,,,a,1,0.92001,space,0.28952,0,194,194,198,1,0_targ_16_dist_green/trial24.png,,,0,16,greenverival,a,35,21,Female,2021-02-21_21h15.20.132,exp11,2020.2.6,Win32,60,IwAR2g_uZYATue8hKJ8HfVdoWjE957yzHhgttO7-VktzKDo8X01NmsegucXCM,,,,,,,,,,,
,,,,,,,,,,,,,,p,1,0.49053,space,0.29411,0,195,195,14,1,0_dist_green/trial15.png,,,1,0,greenverival,p,35,21,Female,2021-02-21_21h15.20.132,exp11,2020.2.6,Win32,60,IwAR2g_uZYATue8hKJ8HfVdoWjE957yzHhgttO7-VktzKDo8X01NmsegucXCM,,,,,,,,,,,
,,,,,,,,,,,,,,a,1,0.661845,space,0.278065,0,196,196,177,1,0_targ_16_dist_green/trial3.png,,,0,16,greenverival,a,35,21,Female,2021-02-21_21h15.20.132,exp11,2020.2.6,Win32,60,IwAR2g_uZYATue8hKJ8HfVdoWjE957yzHhgttO7-VktzKDo8X01NmsegucXCM,,,,,,,,,,,
,,,,,,,,,,,,,,p,1,0.59528,space,0.28339,0,197,197,43,1,3_dist_green/trial19.png,,,1,3,greenverival,p,35,21,Female,2021-02-21_21h15.20.132,exp11,2020.2.6,Win32,60,IwAR2g_uZYATue8hKJ8HfVdoWjE957yzHhgttO7-VktzKDo8X01NmsegucXCM,,,,,,,,,,,
,,,,,,,,,,,,,,a,1,0.974925,space,0.323075,0,198,198,199,1,0_targ_16_dist_green/trial25.png,,,0,16,greenverival,a,35,21,Female,2021-02-21_21h15.20.132,exp11,2020.2.6,Win32,60,IwAR2g_uZYATue8hKJ8HfVdoWjE957yzHhgttO7-VktzKDo8X01NmsegucXCM,,,,,,,,,,,
,,,,,,,,,,,,,,p,1,0.873219999,space,0.269715,0,199,199,70,1,9_dist_green/trial21.png,,,1,9,greenverival,p,35,21,Female,2021-02-21_21h15.20.132,exp11,2020.2.6,Win32,60,IwAR2g_uZYATue8hKJ8HfVdoWjE957yzHhgttO7-VktzKDo8X01NmsegucXCM,,,,,,,,,,,
,,,,,,,,,,,,,,,,,,,,,,,,,,,,,,,35,21,Female,2021-02-21_21h15.20.132,exp11,2020.2.6,Win32,60,IwAR2g_uZYATue8hKJ8HfVdoWjE957yzHhgttO7-VktzKDo8X01NmsegucXCM,0,0,0,0,1,conGreen.xlsx,green vertical,Look for green vertical bar (target) and indicate if it is present or absent in the array. If green vertical target is present press 'p' and if absent press 'a'. Press SPACE to start.,,,
,,,,,,,,,,space,20.494915,space,13.5289,a,1,1.197974999,space,0.384240001,0,0,0,131,1,0_targ_4_dist_red/trial7.png,,,0,4,redHorizontal,a,35,21,Female,2021-02-21_21h15.20.132,exp11,2020.2.6,Win32,60,IwAR2g_uZYATue8hKJ8HfVdoWjE957yzHhgttO7-VktzKDo8X01NmsegucXCM,,,,,,,,,,,
,,,,,,,,,,,,,,p,1,1.27215,space,0.516969999,0,1,1,54,1,9_dist_red/trial5.png,,,1,9,redHorizontal,p,35,21,Female,2021-02-21_21h15.20.132,exp11,2020.2.6,Win32,60,IwAR2g_uZYATue8hKJ8HfVdoWjE957yzHhgttO7-VktzKDo8X01NmsegucXCM,,,,,,,,,,,
,,,,,,,,,,,,,,a,0,1.156175,space,0.301985,0,2,2,10,1,0_dist_red/trial11.png,,,1,0,redHorizontal,p,35,21,Female,2021-02-21_21h15.20.132,exp11,2020.2.6,Win32,60,IwAR2g_uZYATue8hKJ8HfVdoWjE957yzHhgttO7-VktzKDo8X01NmsegucXCM,,,,,,,,,,,
,,,,,,,,,,,,,,a,1,1.7453,space,0.478185,0,3,3,168,1,0_targ_10_dist_red/trial19.png,,,0,10,redHorizontal,a,35,21,Female,2021-02-21_21h15.20.132,exp11,2020.2.6,Win32,60,IwAR2g_uZYATue8hKJ8HfVdoWjE957yzHhgttO7-VktzKDo8X01NmsegucXCM,,,,,,,,,,,
,,,,,,,,,,,,,,a,1,0.87423,space,0.33439,0,4,4,108,1,0_targ_1_dist_red/trial9.png,,,0,1,redHorizontal,a,35,21,Female,2021-02-21_21h15.20.132,exp11,2020.2.6,Win32,60,IwAR2g_uZYATue8hKJ8HfVdoWjE957yzHhgttO7-VktzKDo8X01NmsegucXCM,,,,,,,,,,,
,,,,,,,,,,,,,,p,1,0.96182,space,0.400345,0,5,5,61,1,9_dist_red/trial12.png,,,1,9,redHorizontal,p,35,21,Female,2021-02-21_21h15.20.132,exp11,2020.2.6,Win32,60,IwAR2g_uZYATue8hKJ8HfVdoWjE957yzHhgttO7-VktzKDo8X01NmsegucXCM,,,,,,,,,,,
,,,,,,,,,,,,,,a,1,0.66664,space,0.375725,0,6,6,135,1,0_targ_4_dist_red/trial11.png,,,0,4,redHorizontal,a,35,21,Female,2021-02-21_21h15.20.132,exp11,2020.2.6,Win32,60,IwAR2g_uZYATue8hKJ8HfVdoWjE957yzHhgttO7-VktzKDo8X01NmsegucXCM,,,,,,,,,,,
,,,,,,,,,,,,,,a,1,0.810505,space,0.35123,0,7,7,194,1,0_targ_16_dist_red/trial20.png,,,0,16,redHorizontal,a,35,21,Female,2021-02-21_21h15.20.132,exp11,2020.2.6,Win32,60,IwAR2g_uZYATue8hKJ8HfVdoWjE957yzHhgttO7-VktzKDo8X01NmsegucXCM,,,,,,,,,,,
,,,,,,,,,,,,,,p,1,0.86336,space,0.39606,0,8,8,89,1,15_dist_red/trial15.png,,,1,15,redHorizontal,p,35,21,Female,2021-02-21_21h15.20.132,exp11,2020.2.6,Win32,60,IwAR2g_uZYATue8hKJ8HfVdoWjE957yzHhgttO7-VktzKDo8X01NmsegucXCM,,,,,,,,,,,
,,,,,,,,,,,,,,p,1,0.595145,space,0.344155001,0,9,9,0,1,0_dist_red/trial1.png,,,1,0,redHorizontal,p,35,21,Female,2021-02-21_21h15.20.132,exp11,2020.2.6,Win32,60,IwAR2g_uZYATue8hKJ8HfVdoWjE957yzHhgttO7-VktzKDo8X01NmsegucXCM,,,,,,,,,,,
,,,,,,,,,,,,,,a,1,0.602015,space,0.309950001,0,10,10,140,1,0_targ_4_dist_red/trial6.png,,,0,4,redHorizontal,a,35,21,Female,2021-02-21_21h15.20.132,exp11,2020.2.6,Win32,60,IwAR2g_uZYATue8hKJ8HfVdoWjE957yzHhgttO7-VktzKDo8X01NmsegucXCM,,,,,,,,,,,
,,,,,,,,,,,,,,a,1,0.672275,space,0.385729999,0,11,11,111,1,0_targ_1_dist_red/trial12.png,,,0,1,redHorizontal,a,35,21,Female,2021-02-21_21h15.20.132,exp11,2020.2.6,Win32,60,IwAR2g_uZYATue8hKJ8HfVdoWjE957yzHhgttO7-VktzKDo8X01NmsegucXCM,,,,,,,,,,,
,,,,,,,,,,,,,,p,1,0.66997,space,0.404785,0,12,12,44,1,3_dist_red/trial20.png,,,1,3,redHorizontal,p,35,21,Female,2021-02-21_21h15.20.132,exp11,2020.2.6,Win32,60,IwAR2g_uZYATue8hKJ8HfVdoWjE957yzHhgttO7-VktzKDo8X01NmsegucXCM,,,,,,,,,,,
,,,,,,,,,,,,,,a,1,1.77157,space,0.41909,0,13,13,103,1,0_targ_1_dist_red/trial4.png,,,0,1,redHorizontal,a,35,21,Female,2021-02-21_21h15.20.132,exp11,2020.2.6,Win32,60,IwAR2g_uZYATue8hKJ8HfVdoWjE957yzHhgttO7-VktzKDo8X01NmsegucXCM,,,,,,,,,,,
,,,,,,,,,,,,,,p,1,1.167084999,space,0.367555001,0,14,14,76,1,15_dist_red/trial2.png,,,1,15,redHorizontal,p,35,21,Female,2021-02-21_21h15.20.132,exp11,2020.2.6,Win32,60,IwAR2g_uZYATue8hKJ8HfVdoWjE957yzHhgttO7-VktzKDo8X01NmsegucXCM,,,,,,,,,,,
,,,,,,,,,,,,,,a,1,1.095854999,space,0.334335,0,15,15,152,1,0_targ_10_dist_red/trial3.png,,,0,10,redHorizontal,a,35,21,Female,2021-02-21_21h15.20.132,exp11,2020.2.6,Win32,60,IwAR2g_uZYATue8hKJ8HfVdoWjE957yzHhgttO7-VktzKDo8X01NmsegucXCM,,,,,,,,,,,
,,,,,,,,,,,,,,p,1,0.567504999,space,0.343464999,0,16,16,28,1,3_dist_red/trial4.png,,,1,3,redHorizontal,p,35,21,Female,2021-02-21_21h15.20.132,exp11,2020.2.6,Win32,60,IwAR2g_uZYATue8hKJ8HfVdoWjE957yzHhgttO7-VktzKDo8X01NmsegucXCM,,,,,,,,,,,
,,,,,,,,,,,,,,a,1,1.521199999,space,0.302945,0,17,17,130,1,0_targ_4_dist_red/trial6.png,,,0,4,redHorizontal,a,35,21,Female,2021-02-21_21h15.20.132,exp11,2020.2.6,Win32,60,IwAR2g_uZYATue8hKJ8HfVdoWjE957yzHhgttO7-VktzKDo8X01NmsegucXCM,,,,,,,,,,,
,,,,,,,,,,,,,,a,1,0.76343,space,0.2618,0,18,18,155,1,0_targ_10_dist_red/trial6.png,,,0,10,redHorizontal,a,35,21,Female,2021-02-21_21h15.20.132,exp11,2020.2.6,Win32,60,IwAR2g_uZYATue8hKJ8HfVdoWjE957yzHhgttO7-VktzKDo8X01NmsegucXCM,,,,,,,,,,,
,,,,,,,,,,,,,,a,1,0.51312,space,0.278685,0,19,19,112,1,0_targ_1_dist_red/trial13.png,,,0,1,redHorizontal,a,35,21,Female,2021-02-21_21h15.20.132,exp11,2020.2.6,Win32,60,IwAR2g_uZYATue8hKJ8HfVdoWjE957yzHhgttO7-VktzKDo8X01NmsegucXCM,,,,,,,,,,,
,,,,,,,,,,,,,,a,1,0.64068,space,0.288995001,0,20,20,144,1,0_targ_4_dist_red/trial20.png,,,0,4,redHorizontal,a,35,21,Female,2021-02-21_21h15.20.132,exp11,2020.2.6,Win32,60,IwAR2g_uZYATue8hKJ8HfVdoWjE957yzHhgttO7-VktzKDo8X01NmsegucXCM,,,,,,,,,,,
,,,,,,,,,,,,,,a,1,0.94773,space,0.259725001,0,21,21,174,1,0_targ_10_dist_red/trial25.png,,,0,10,redHorizontal,a,35,21,Female,2021-02-21_21h15.20.132,exp11,2020.2.6,Win32,60,IwAR2g_uZYATue8hKJ8HfVdoWjE957yzHhgttO7-VktzKDo8X01NmsegucXCM,,,,,,,,,,,
,,,,,,,,,,,,,,a,1,0.88355,space,0.316705,0,22,22,187,1,0_targ_16_dist_red/trial13.png,,,0,16,redHorizontal,a,35,21,Female,2021-02-21_21h15.20.132,exp11,2020.2.6,Win32,60,IwAR2g_uZYATue8hKJ8HfVdoWjE957yzHhgttO7-VktzKDo8X01NmsegucXCM,,,,,,,,,,,
,,,,,,,,,,,,,,a,1,1.16546,space,0.29091,0,23,23,180,1,0_targ_16_dist_red/trial6.png,,,0,16,redHorizontal,a,35,21,Female,2021-02-21_21h15.20.132,exp11,2020.2.6,Win32,60,IwAR2g_uZYATue8hKJ8HfVdoWjE957yzHhgttO7-VktzKDo8X01NmsegucXCM,,,,,,,,,,,
,,,,,,,,,,,,,,a,1,0.860660001,space,0.32667,0,24,24,179,1,0_targ_16_dist_red/trial5.png,,,0,16,redHorizontal,a,35,21,Female,2021-02-21_21h15.20.132,exp11,2020.2.6,Win32,60,IwAR2g_uZYATue8hKJ8HfVdoWjE957yzHhgttO7-VktzKDo8X01NmsegucXCM,,,,,,,,,,,
,,,,,,,,,,,,,,a,1,0.841655,space,0.333280001,0,25,25,160,1,0_targ_10_dist_red/trial11.png,,,0,10,redHorizontal,a,35,21,Female,2021-02-21_21h15.20.132,exp11,2020.2.6,Win32,60,IwAR2g_uZYATue8hKJ8HfVdoWjE957yzHhgttO7-VktzKDo8X01NmsegucXCM,,,,,,,,,,,
,,,,,,,,,,,,,,p,1,0.896255,space,0.241305,0,26,26,83,1,15_dist_red/trial9.png,,,1,15,redHorizontal,p,35,21,Female,2021-02-21_21h15.20.132,exp11,2020.2.6,Win32,60,IwAR2g_uZYATue8hKJ8HfVdoWjE957yzHhgttO7-VktzKDo8X01NmsegucXCM,,,,,,,,,,,
,,,,,,,,,,,,,,p,1,0.93296,space,0.284125,0,27,27,71,1,9_dist_red/trial22.png,,,1,9,redHorizontal,p,35,21,Female,2021-02-21_21h15.20.132,exp11,2020.2.6,Win32,60,IwAR2g_uZYATue8hKJ8HfVdoWjE957yzHhgttO7-VktzKDo8X01NmsegucXCM,,,,,,,,,,,
,,,,,,,,,,,,,,p,1,0.759564999,space,0.235445,0,28,28,38,1,3_dist_red/trial14.png,,,1,3,redHorizontal,p,35,21,Female,2021-02-21_21h15.20.132,exp11,2020.2.6,Win32,60,IwAR2g_uZYATue8hKJ8HfVdoWjE957yzHhgttO7-VktzKDo8X01NmsegucXCM,,,,,,,,,,,
,,,,,,,,,,,,,,p,1,0.766205,space,0.256925,0,29,29,88,1,15_dist_red/trial14.png,,,1,15,redHorizontal,p,35,21,Female,2021-02-21_21h15.20.132,exp11,2020.2.6,Win32,60,IwAR2g_uZYATue8hKJ8HfVdoWjE957yzHhgttO7-VktzKDo8X01NmsegucXCM,,,,,,,,,,,
,,,,,,,,,,,,,,a,1,0.967495,space,0.21125,0,30,30,121,1,0_targ_1_dist_red/trial22.png,,,0,1,redHorizontal,a,35,21,Female,2021-02-21_21h15.20.132,exp11,2020.2.6,Win32,60,IwAR2g_uZYATue8hKJ8HfVdoWjE957yzHhgttO7-VktzKDo8X01NmsegucXCM,,,,,,,,,,,
,,,,,,,,,,,,,,a,0,0.655859999,space,0.512975,0,31,31,21,1,0_dist_red/trial22.png,,,1,0,redHorizontal,p,35,21,Female,2021-02-21_21h15.20.132,exp11,2020.2.6,Win32,60,IwAR2g_uZYATue8hKJ8HfVdoWjE957yzHhgttO7-VktzKDo8X01NmsegucXCM,,,,,,,,,,,
,,,,,,,,,,,,,,a,1,1.67227,space,0.36425,0,32,32,192,1,0_targ_16_dist_red/trial18.png,,,0,16,redHorizontal,a,35,21,Female,2021-02-21_21h15.20.132,exp11,2020.2.6,Win32,60,IwAR2g_uZYATue8hKJ8HfVdoWjE957yzHhgttO7-VktzKDo8X01NmsegucXCM,,,,,,,,,,,
,,,,,,,,,,,,,,p,1,0.784295,space,0.380055,0,33,33,39,1,3_dist_red/trial15.png,,,1,3,redHorizontal,p,35,21,Female,2021-02-21_21h15.20.132,exp11,2020.2.6,Win32,60,IwAR2g_uZYATue8hKJ8HfVdoWjE957yzHhgttO7-VktzKDo8X01NmsegucXCM,,,,,,,,,,,
,,,,,,,,,,,,,,a,1,1.3033,space,0.326365,0,34,34,118,1,0_targ_1_dist_red/trial19.png,,,0,1,redHorizontal,a,35,21,Female,2021-02-21_21h15.20.132,exp11,2020.2.6,Win32,60,IwAR2g_uZYATue8hKJ8HfVdoWjE957yzHhgttO7-VktzKDo8X01NmsegucXCM,,,,,,,,,,,
,,,,,,,,,,,,,,p,1,1.090815,space,0.376255,0,35,35,94,1,15_dist_red/trial20.png,,,1,15,redHorizontal,p,35,21,Female,2021-02-21_21h15.20.132,exp11,2020.2.6,Win32,60,IwAR2g_uZYATue8hKJ8HfVdoWjE957yzHhgttO7-VktzKDo8X01NmsegucXCM,,,,,,,,,,,
,,,,,,,,,,,,,,a,1,0.692085,space,0.35636,0,36,36,116,1,0_targ_1_dist_red/trial17.png,,,0,1,redHorizontal,a,35,21,Female,2021-02-21_21h15.20.132,exp11,2020.2.6,Win32,60,IwAR2g_uZYATue8hKJ8HfVdoWjE957yzHhgttO7-VktzKDo8X01NmsegucXCM,,,,,,,,,,,
,,,,,,,,,,,,,,p,1,0.936505,space,0.32232,0,37,37,72,1,9_dist_red/trial23.png,,,1,9,redHorizontal,p,35,21,Female,2021-02-21_21h15.20.132,exp11,2020.2.6,Win32,60,IwAR2g_uZYATue8hKJ8HfVdoWjE957yzHhgttO7-VktzKDo8X01NmsegucXCM,,,,,,,,,,,
,,,,,,,,,,,,,,p,1,0.574535,space,0.25932,0,38,38,48,1,3_dist_red/trial24.png,,,1,3,redHorizontal,p,35,21,Female,2021-02-21_21h15.20.132,exp11,2020.2.6,Win32,60,IwAR2g_uZYATue8hKJ8HfVdoWjE957yzHhgttO7-VktzKDo8X01NmsegucXCM,,,,,,,,,,,
,,,,,,,,,,,,,,a,1,2.15732,space,0.310625,0,39,39,142,1,0_targ_4_dist_red/trial18.png,,,0,4,redHorizontal,a,35,21,Female,2021-02-21_21h15.20.132,exp11,2020.2.6,Win32,60,IwAR2g_uZYATue8hKJ8HfVdoWjE957yzHhgttO7-VktzKDo8X01NmsegucXCM,,,,,,,,,,,
,,,,,,,,,,,,,,p,1,3.378755,space,0.28443,0,40,40,68,1,9_dist_red/trial19.png,,,1,9,redHorizontal,p,35,21,Female,2021-02-21_21h15.20.132,exp11,2020.2.6,Win32,60,IwAR2g_uZYATue8hKJ8HfVdoWjE957yzHhgttO7-VktzKDo8X01NmsegucXCM,,,,,,,,,,,
,,,,,,,,,,,,,,p,1,0.737445,space,0.234399999,0,41,41,51,1,9_dist_red/trial2.png,,,1,9,redHorizontal,p,35,21,Female,2021-02-21_21h15.20.132,exp11,2020.2.6,Win32,60,IwAR2g_uZYATue8hKJ8HfVdoWjE957yzHhgttO7-VktzKDo8X01NmsegucXCM,,,,,,,,,,,
,,,,,,,,,,,,,,p,1,0.570645,space,0.26012,0,42,42,29,1,3_dist_red/trial5.png,,,1,3,redHorizontal,p,35,21,Female,2021-02-21_21h15.20.132,exp11,2020.2.6,Win32,60,IwAR2g_uZYATue8hKJ8HfVdoWjE957yzHhgttO7-VktzKDo8X01NmsegucXCM,,,,,,,,,,,
,,,,,,,,,,,,,,a,1,0.624725,space,0.328895,0,43,43,136,1,0_targ_4_dist_red/trial12.png,,,0,4,redHorizontal,a,35,21,Female,2021-02-21_21h15.20.132,exp11,2020.2.6,Win32,60,IwAR2g_uZYATue8hKJ8HfVdoWjE957yzHhgttO7-VktzKDo8X01NmsegucXCM,,,,,,,,,,,
,,,,,,,,,,,,,,p,1,1.067355,space,0.31067,0,44,44,64,1,9_dist_red/trial15.png,,,1,9,redHorizontal,p,35,21,Female,2021-02-21_21h15.20.132,exp11,2020.2.6,Win32,60,IwAR2g_uZYATue8hKJ8HfVdoWjE957yzHhgttO7-VktzKDo8X01NmsegucXCM,,,,,,,,,,,
,,,,,,,,,,,,,,a,1,0.92317,space,0.333805,0,45,45,117,1,0_targ_1_dist_red/trial18.png,,,0,1,redHorizontal,a,35,21,Female,2021-02-21_21h15.20.132,exp11,2020.2.6,Win32,60,IwAR2g_uZYATue8hKJ8HfVdoWjE957yzHhgttO7-VktzKDo8X01NmsegucXCM,,,,,,,,,,,
,,,,,,,,,,,,,,p,1,1.591840001,space,0.61107,0,46,46,55,1,9_dist_red/trial6.png,,,1,9,redHorizontal,p,35,21,Female,2021-02-21_21h15.20.132,exp11,2020.2.6,Win32,60,IwAR2g_uZYATue8hKJ8HfVdoWjE957yzHhgttO7-VktzKDo8X01NmsegucXCM,,,,,,,,,,,
,,,,,,,,,,,,,,a,1,0.61725,space,0.300205,0,47,47,137,1,0_targ_4_dist_red/trial13.png,,,0,4,redHorizontal,a,35,21,Female,2021-02-21_21h15.20.132,exp11,2020.2.6,Win32,60,IwAR2g_uZYATue8hKJ8HfVdoWjE957yzHhgttO7-VktzKDo8X01NmsegucXCM,,,,,,,,,,,
,,,,,,,,,,,,,,a,1,1.51904,space,0.259145,0,48,48,125,1,0_targ_4_dist_red/trial1.png,,,0,4,redHorizontal,a,35,21,Female,2021-02-21_21h15.20.132,exp11,2020.2.6,Win32,60,IwAR2g_uZYATue8hKJ8HfVdoWjE957yzHhgttO7-VktzKDo8X01NmsegucXCM,,,,,,,,,,,
,,,,,,,,,,,,,,p,1,0.63134,space,0.240075,0,49,49,16,1,0_dist_red/trial17.png,,,1,0,redHorizontal,p,35,21,Female,2021-02-21_21h15.20.132,exp11,2020.2.6,Win32,60,IwAR2g_uZYATue8hKJ8HfVdoWjE957yzHhgttO7-VktzKDo8X01NmsegucXCM,,,,,,,,,,,
,,,,,,,,,,,,,,p,1,0.778315,space,0.23207,0,50,50,91,1,15_dist_red/trial17.png,,,1,15,redHorizontal,p,35,21,Female,2021-02-21_21h15.20.132,exp11,2020.2.6,Win32,60,IwAR2g_uZYATue8hKJ8HfVdoWjE957yzHhgttO7-VktzKDo8X01NmsegucXCM,,,,,,,,,,,
,,,,,,,,,,,,,,p,1,0.90241,space,0.28472,0,51,51,70,1,9_dist_red/trial21.png,,,1,9,redHorizontal,p,35,21,Female,2021-02-21_21h15.20.132,exp11,2020.2.6,Win32,60,IwAR2g_uZYATue8hKJ8HfVdoWjE957yzHhgttO7-VktzKDo8X01NmsegucXCM,,,,,,,,,,,
,,,,,,,,,,,,,,p,1,0.56942,space,0.237095,0,52,52,42,1,3_dist_red/trial18.png,,,1,3,redHorizontal,p,35,21,Female,2021-02-21_21h15.20.132,exp11,2020.2.6,Win32,60,IwAR2g_uZYATue8hKJ8HfVdoWjE957yzHhgttO7-VktzKDo8X01NmsegucXCM,,,,,,,,,,,
,,,,,,,,,,,,,,p,1,0.619095,space,0.242269999,0,53,53,74,1,9_dist_red/trial25.png,,,1,9,redHorizontal,p,35,21,Female,2021-02-21_21h15.20.132,exp11,2020.2.6,Win32,60,IwAR2g_uZYATue8hKJ8HfVdoWjE957yzHhgttO7-VktzKDo8X01NmsegucXCM,,,,,,,,,,,
,,,,,,,,,,,,,,p,1,0.662735,space,0.253715,0,54,54,35,1,3_dist_red/trial11.png,,,1,3,redHorizontal,p,35,21,Female,2021-02-21_21h15.20.132,exp11,2020.2.6,Win32,60,IwAR2g_uZYATue8hKJ8HfVdoWjE957yzHhgttO7-VktzKDo8X01NmsegucXCM,,,,,,,,,,,
,,,,,,,,,,,,,,p,1,0.672595,space,0.24239,0,55,55,63,1,9_dist_red/trial14.png,,,1,9,redHorizontal,p,35,21,Female,2021-02-21_21h15.20.132,exp11,2020.2.6,Win32,60,IwAR2g_uZYATue8hKJ8HfVdoWjE957yzHhgttO7-VktzKDo8X01NmsegucXCM,,,,,,,,,,,
,,,,,,,,,,,,,,p,1,0.51341,space,0.21787,0,56,56,2,1,0_dist_red/trial3.png,,,1,0,redHorizontal,p,35,21,Female,2021-02-21_21h15.20.132,exp11,2020.2.6,Win32,60,IwAR2g_uZYATue8hKJ8HfVdoWjE957yzHhgttO7-VktzKDo8X01NmsegucXCM,,,,,,,,,,,
,,,,,,,,,,,,,,a,1,0.968110001,space,0.23324,0,57,57,191,1,0_targ_16_dist_red/trial17.png,,,0,16,redHorizontal,a,35,21,Female,2021-02-21_21h15.20.132,exp11,2020.2.6,Win32,60,IwAR2g_uZYATue8hKJ8HfVdoWjE957yzHhgttO7-VktzKDo8X01NmsegucXCM,,,,,,,,,,,
,,,,,,,,,,,,,,p,1,0.723375,space,0.22415,0,58,58,58,1,9_dist_red/trial9.png,,,1,9,redHorizontal,p,35,21,Female,2021-02-21_21h15.20.132,exp11,2020.2.6,Win32,60,IwAR2g_uZYATue8hKJ8HfVdoWjE957yzHhgttO7-VktzKDo8X01NmsegucXCM,,,,,,,,,,,
,,,,,,,,,,,,,,a,1,0.904244999,space,0.22826,0,59,59,150,1,0_targ_10_dist_red/trial1.png,,,0,10,redHorizontal,a,35,21,Female,2021-02-21_21h15.20.132,exp11,2020.2.6,Win32,60,IwAR2g_uZYATue8hKJ8HfVdoWjE957yzHhgttO7-VktzKDo8X01NmsegucXCM,,,,,,,,,,,
,,,,,,,,,,,,,,a,1,0.6975,space,0.347155,0,60,60,156,1,0_targ_10_dist_red/trial7.png,,,0,10,redHorizontal,a,35,21,Female,2021-02-21_21h15.20.132,exp11,2020.2.6,Win32,60,IwAR2g_uZYATue8hKJ8HfVdoWjE957yzHhgttO7-VktzKDo8X01NmsegucXCM,,,,,,,,,,,
,,,,,,,,,,,,,,p,1,2.38452,space,0.434455,0,61,61,14,1,0_dist_red/trial15.png,,,1,0,redHorizontal,p,35,21,Female,2021-02-21_21h15.20.132,exp11,2020.2.6,Win32,60,IwAR2g_uZYATue8hKJ8HfVdoWjE957yzHhgttO7-VktzKDo8X01NmsegucXCM,,,,,,,,,,,
,,,,,,,,,,,,,,a,1,0.606895,space,0.255335,0,62,62,171,1,0_targ_10_dist_red/trial22.png,,,0,10,redHorizontal,a,35,21,Female,2021-02-21_21h15.20.132,exp11,2020.2.6,Win32,60,IwAR2g_uZYATue8hKJ8HfVdoWjE957yzHhgttO7-VktzKDo8X01NmsegucXCM,,,,,,,,,,,
,,,,,,,,,,,,,,p,1,0.587975,space,0.267390001,0,63,63,33,1,3_dist_red/trial9.png,,,1,3,redHorizontal,p,35,21,Female,2021-02-21_21h15.20.132,exp11,2020.2.6,Win32,60,IwAR2g_uZYATue8hKJ8HfVdoWjE957yzHhgttO7-VktzKDo8X01NmsegucXCM,,,,,,,,,,,
,,,,,,,,,,,,,,a,1,0.639525,space,0.27402,0,64,64,153,1,0_targ_10_dist_red/trial4.png,,,0,10,redHorizontal,a,35,21,Female,2021-02-21_21h15.20.132,exp11,2020.2.6,Win32,60,IwAR2g_uZYATue8hKJ8HfVdoWjE957yzHhgttO7-VktzKDo8X01NmsegucXCM,,,,,,,,,,,
,,,,,,,,,,,,,,a,1,0.679105,space,0.243875,0,65,65,159,1,0_targ_10_dist_red/trial10.png,,,0,10,redHorizontal,a,35,21,Female,2021-02-21_21h15.20.132,exp11,2020.2.6,Win32,60,IwAR2g_uZYATue8hKJ8HfVdoWjE957yzHhgttO7-VktzKDo8X01NmsegucXCM,,,,,,,,,,,
,,,,,,,,,,,,,,a,1,0.74037,space,0.240425,0,66,66,190,1,0_targ_16_dist_red/trial16.png,,,0,16,redHorizontal,a,35,21,Female,2021-02-21_21h15.20.132,exp11,2020.2.6,Win32,60,IwAR2g_uZYATue8hKJ8HfVdoWjE957yzHhgttO7-VktzKDo8X01NmsegucXCM,,,,,,,,,,,
,,,,,,,,,,,,,,p,1,0.553675,space,0.25122,0,67,67,24,1,0_dist_red/trial25.png,,,1,0,redHorizontal,p,35,21,Female,2021-02-21_21h15.20.132,exp11,2020.2.6,Win32,60,IwAR2g_uZYATue8hKJ8HfVdoWjE957yzHhgttO7-VktzKDo8X01NmsegucXCM,,,,,,,,,,,
,,,,,,,,,,,,,,a,1,0.61756,space,0.27775,0,68,68,109,1,0_targ_1_dist_red/trial10.png,,,0,1,redHorizontal,a,35,21,Female,2021-02-21_21h15.20.132,exp11,2020.2.6,Win32,60,IwAR2g_uZYATue8hKJ8HfVdoWjE957yzHhgttO7-VktzKDo8X01NmsegucXCM,,,,,,,,,,,
,,,,,,,,,,,,,,p,1,0.660294999,space,0.22139,0,69,69,9,1,0_dist_red/trial10.png,,,1,0,redHorizontal,p,35,21,Female,2021-02-21_21h15.20.132,exp11,2020.2.6,Win32,60,IwAR2g_uZYATue8hKJ8HfVdoWjE957yzHhgttO7-VktzKDo8X01NmsegucXCM,,,,,,,,,,,
,,,,,,,,,,,,,,a,1,0.85256,space,0.227264999,0,70,70,172,1,0_targ_10_dist_red/trial23.png,,,0,10,redHorizontal,a,35,21,Female,2021-02-21_21h15.20.132,exp11,2020.2.6,Win32,60,IwAR2g_uZYATue8hKJ8HfVdoWjE957yzHhgttO7-VktzKDo8X01NmsegucXCM,,,,,,,,,,,
,,,,,,,,,,,,,,p,1,0.864800001,space,0.32956,0,71,71,77,1,15_dist_red/trial3.png,,,1,15,redHorizontal,p,35,21,Female,2021-02-21_21h15.20.132,exp11,2020.2.6,Win32,60,IwAR2g_uZYATue8hKJ8HfVdoWjE957yzHhgttO7-VktzKDo8X01NmsegucXCM,,,,,,,,,,,
,,,,,,,,,,,,,,a,1,0.862835,space,0.326045,0,72,72,128,1,0_targ_4_dist_red/trial4.png,,,0,4,redHorizontal,a,35,21,Female,2021-02-21_21h15.20.132,exp11,2020.2.6,Win32,60,IwAR2g_uZYATue8hKJ8HfVdoWjE957yzHhgttO7-VktzKDo8X01NmsegucXCM,,,,,,,,,,,
,,,,,,,,,,,,,,a,1,0.549685,space,0.271330001,0,73,73,127,1,0_targ_4_dist_red/trial3.png,,,0,4,redHorizontal,a,35,21,Female,2021-02-21_21h15.20.132,exp11,2020.2.6,Win32,60,IwAR2g_uZYATue8hKJ8HfVdoWjE957yzHhgttO7-VktzKDo8X01NmsegucXCM,,,,,,,,,,,
,,,,,,,,,,,,,,p,1,0.7381,space,0.26153,0,74,74,60,1,9_dist_red/trial11.png,,,1,9,redHorizontal,p,35,21,Female,2021-02-21_21h15.20.132,exp11,2020.2.6,Win32,60,IwAR2g_uZYATue8hKJ8HfVdoWjE957yzHhgttO7-VktzKDo8X01NmsegucXCM,,,,,,,,,,,
,,,,,,,,,,,,,,a,1,0.663930001,space,0.219185,0,75,75,149,1,0_targ_4_dist_red/trial25.png,,,0,4,redHorizontal,a,35,21,Female,2021-02-21_21h15.20.132,exp11,2020.2.6,Win32,60,IwAR2g_uZYATue8hKJ8HfVdoWjE957yzHhgttO7-VktzKDo8X01NmsegucXCM,,,,,,,,,,,
,,,,,,,,,,,,,,a,1,0.79557,space,0.201325,0,76,76,195,1,0_targ_16_dist_red/trial21.png,,,0,16,redHorizontal,a,35,21,Female,2021-02-21_21h15.20.132,exp11,2020.2.6,Win32,60,IwAR2g_uZYATue8hKJ8HfVdoWjE957yzHhgttO7-VktzKDo8X01NmsegucXCM,,,,,,,,,,,
,,,,,,,,,,,,,,a,1,0.5686,space,0.245495,0,77,77,139,1,0_targ_4_dist_red/trial15.png,,,0,4,redHorizontal,a,35,21,Female,2021-02-21_21h15.20.132,exp11,2020.2.6,Win32,60,IwAR2g_uZYATue8hKJ8HfVdoWjE957yzHhgttO7-VktzKDo8X01NmsegucXCM,,,,,,,,,,,
,,,,,,,,,,,,,,a,1,0.455569999,space,0.268235001,0,78,78,114,1,0_targ_1_dist_red/trial15.png,,,0,1,redHorizontal,a,35,21,Female,2021-02-21_21h15.20.132,exp11,2020.2.6,Win32,60,IwAR2g_uZYATue8hKJ8HfVdoWjE957yzHhgttO7-VktzKDo8X01NmsegucXCM,,,,,,,,,,,
,,,,,,,,,,,,,,p,1,0.81714,space,0.27982,0,79,79,75,1,15_dist_red/trial1.png,,,1,15,redHorizontal,p,35,21,Female,2021-02-21_21h15.20.132,exp11,2020.2.6,Win32,60,IwAR2g_uZYATue8hKJ8HfVdoWjE957yzHhgttO7-VktzKDo8X01NmsegucXCM,,,,,,,,,,,
,,,,,,,,,,,,,,a,1,0.69893,space,0.2007,0,80,80,146,1,0_targ_4_dist_red/trial22.png,,,0,4,redHorizontal,a,35,21,Female,2021-02-21_21h15.20.132,exp11,2020.2.6,Win32,60,IwAR2g_uZYATue8hKJ8HfVdoWjE957yzHhgttO7-VktzKDo8X01NmsegucXCM,,,,,,,,,,,
,,,,,,,,,,,,,,p,1,1.775595,space,0.29097,0,81,81,92,1,15_dist_red/trial18.png,,,1,15,redHorizontal,p,35,21,Female,2021-02-21_21h15.20.132,exp11,2020.2.6,Win32,60,IwAR2g_uZYATue8hKJ8HfVdoWjE957yzHhgttO7-VktzKDo8X01NmsegucXCM,,,,,,,,,,,
,,,,,,,,,,,,,,a,1,0.768970001,space,0.278825,0,82,82,183,1,0_targ_16_dist_red/trial9.png,,,0,16,redHorizontal,a,35,21,Female,2021-02-21_21h15.20.132,exp11,2020.2.6,Win32,60,IwAR2g_uZYATue8hKJ8HfVdoWjE957yzHhgttO7-VktzKDo8X01NmsegucXCM,,,,,,,,,,,
,,,,,,,,,,,,,,a,1,0.57071,space,0.292375,0,83,83,134,1,0_targ_4_dist_red/trial10.png,,,0,4,redHorizontal,a,35,21,Female,2021-02-21_21h15.20.132,exp11,2020.2.6,Win32,60,IwAR2g_uZYATue8hKJ8HfVdoWjE957yzHhgttO7-VktzKDo8X01NmsegucXCM,,,,,,,,,,,
,,,,,,,,,,,,,,p,1,0.62412,space,0.241769999,0,84,84,66,1,9_dist_red/trial17.png,,,1,9,redHorizontal,p,35,21,Female,2021-02-21_21h15.20.132,exp11,2020.2.6,Win32,60,IwAR2g_uZYATue8hKJ8HfVdoWjE957yzHhgttO7-VktzKDo8X01NmsegucXCM,,,,,,,,,,,
,,,,,,,,,,,,,,a,1,0.68502,space,0.244705,0,85,85,175,1,0_targ_16_dist_red/trial1.png,,,0,16,redHorizontal,a,35,21,Female,2021-02-21_21h15.20.132,exp11,2020.2.6,Win32,60,IwAR2g_uZYATue8hKJ8HfVdoWjE957yzHhgttO7-VktzKDo8X01NmsegucXCM,,,,,,,,,,,
,,,,,,,,,,,,,,p,1,0.63064,space,0.21188,0,86,86,90,1,15_dist_red/trial16.png,,,1,15,redHorizontal,p,35,21,Female,2021-02-21_21h15.20.132,exp11,2020.2.6,Win32,60,IwAR2g_uZYATue8hKJ8HfVdoWjE957yzHhgttO7-VktzKDo8X01NmsegucXCM,,,,,,,,,,,
,,,,,,,,,,,,,,a,1,0.7389,space,0.40503,0,87,87,188,1,0_targ_16_dist_red/trial14.png,,,0,16,redHorizontal,a,35,21,Female,2021-02-21_21h15.20.132,exp11,2020.2.6,Win32,60,IwAR2g_uZYATue8hKJ8HfVdoWjE957yzHhgttO7-VktzKDo8X01NmsegucXCM,,,,,,,,,,,
,,,,,,,,,,,,,,a,1,0.661215,space,0.211235,0,88,88,197,1,0_targ_16_dist_red/trial23.png,,,0,16,redHorizontal,a,35,21,Female,2021-02-21_21h15.20.132,exp11,2020.2.6,Win32,60,IwAR2g_uZYATue8hKJ8HfVdoWjE957yzHhgttO7-VktzKDo8X01NmsegucXCM,,,,,,,,,,,
,,,,,,,,,,,,,,p,1,0.54492,space,0.234545,0,89,89,30,1,3_dist_red/trial6.png,,,1,3,redHorizontal,p,35,21,Female,2021-02-21_21h15.20.132,exp11,2020.2.6,Win32,60,IwAR2g_uZYATue8hKJ8HfVdoWjE957yzHhgttO7-VktzKDo8X01NmsegucXCM,,,,,,,,,,,
,,,,,,,,,,,,,,a,1,0.82047,space,0.20652,0,90,90,185,1,0_targ_16_dist_red/trial11.png,,,0,16,redHorizontal,a,35,21,Female,2021-02-21_21h15.20.132,exp11,2020.2.6,Win32,60,IwAR2g_uZYATue8hKJ8HfVdoWjE957yzHhgttO7-VktzKDo8X01NmsegucXCM,,,,,,,,,,,
,,,,,,,,,,,,,,a,1,0.65752,space,0.23429,0,91,91,143,1,0_targ_4_dist_red/trial19.png,,,0,4,redHorizontal,a,35,21,Female,2021-02-21_21h15.20.132,exp11,2020.2.6,Win32,60,IwAR2g_uZYATue8hKJ8HfVdoWjE957yzHhgttO7-VktzKDo8X01NmsegucXCM,,,,,,,,,,,
,,,,,,,,,,,,,,p,1,0.54221,space,0.21656,0,92,92,19,1,0_dist_red/trial20.png,,,1,0,redHorizontal,p,35,21,Female,2021-02-21_21h15.20.132,exp11,2020.2.6,Win32,60,IwAR2g_uZYATue8hKJ8HfVdoWjE957yzHhgttO7-VktzKDo8X01NmsegucXCM,,,,,,,,,,,
,,,,,,,,,,,,,,p,1,1.2688,space,0.193475001,0,93,93,43,1,3_dist_red/trial19.png,,,1,3,redHorizontal,p,35,21,Female,2021-02-21_21h15.20.132,exp11,2020.2.6,Win32,60,IwAR2g_uZYATue8hKJ8HfVdoWjE957yzHhgttO7-VktzKDo8X01NmsegucXCM,,,,,,,,,,,
,,,,,,,,,,,,,,p,1,0.589075,space,0.250155,0,94,94,23,1,0_dist_red/trial24.png,,,1,0,redHorizontal,p,35,21,Female,2021-02-21_21h15.20.132,exp11,2020.2.6,Win32,60,IwAR2g_uZYATue8hKJ8HfVdoWjE957yzHhgttO7-VktzKDo8X01NmsegucXCM,,,,,,,,,,,
,,,,,,,,,,,,,,a,1,0.709405,space,0.233340001,0,95,95,177,1,0_targ_16_dist_red/trial3.png,,,0,16,redHorizontal,a,35,21,Female,2021-02-21_21h15.20.132,exp11,2020.2.6,Win32,60,IwAR2g_uZYATue8hKJ8HfVdoWjE957yzHhgttO7-VktzKDo8X01NmsegucXCM,,,,,,,,,,,
,,,,,,,,,,,,,,a,1,0.63254,space,0.237905,0,96,96,129,1,0_targ_4_dist_red/trial5.png,,,0,4,redHorizontal,a,35,21,Female,2021-02-21_21h15.20.132,exp11,2020.2.6,Win32,60,IwAR2g_uZYATue8hKJ8HfVdoWjE957yzHhgttO7-VktzKDo8X01NmsegucXCM,,,,,,,,,,,
,,,,,,,,,,,,,,a,1,0.71183,space,0.217175,0,97,97,113,1,0_targ_1_dist_red/trial14.png,,,0,1,redHorizontal,a,35,21,Female,2021-02-21_21h15.20.132,exp11,2020.2.6,Win32,60,IwAR2g_uZYATue8hKJ8HfVdoWjE957yzHhgttO7-VktzKDo8X01NmsegucXCM,,,,,,,,,,,
,,,,,,,,,,,,,,p,1,0.68303,space,0.23421,0,98,98,56,1,9_dist_red/trial7.png,,,1,9,redHorizontal,p,35,21,Female,2021-02-21_21h15.20.132,exp11,2020.2.6,Win32,60,IwAR2g_uZYATue8hKJ8HfVdoWjE957yzHhgttO7-VktzKDo8X01NmsegucXCM,,,,,,,,,,,
,,,,,,,,,,,,,,a,1,1.14454,space,0.226960001,0,99,99,107,1,0_targ_1_dist_red/trial8.png,,,0,1,redHorizontal,a,35,21,Female,2021-02-21_21h15.20.132,exp11,2020.2.6,Win32,60,IwAR2g_uZYATue8hKJ8HfVdoWjE957yzHhgttO7-VktzKDo8X01NmsegucXCM,,,,,,,,,,,
,,,,,,,,,,,,,,p,1,0.704554999,space,0.25287,0,100,100,46,1,3_dist_red/trial22.png,,,1,3,redHorizontal,p,35,21,Female,2021-02-21_21h15.20.132,exp11,2020.2.6,Win32,60,IwAR2g_uZYATue8hKJ8HfVdoWjE957yzHhgttO7-VktzKDo8X01NmsegucXCM,,,,,,,,,,,
,,,,,,,,,,,,,,p,1,1.724690001,space,0.318170001,0,101,101,87,1,15_dist_red/trial13.png,,,1,15,redHorizontal,p,35,21,Female,2021-02-21_21h15.20.132,exp11,2020.2.6,Win32,60,IwAR2g_uZYATue8hKJ8HfVdoWjE957yzHhgttO7-VktzKDo8X01NmsegucXCM,,,,,,,,,,,
,,,,,,,,,,,,,,a,1,0.75625,space,0.20709,0,102,102,158,1,0_targ_10_dist_red/trial9.png,,,0,10,redHorizontal,a,35,21,Female,2021-02-21_21h15.20.132,exp11,2020.2.6,Win32,60,IwAR2g_uZYATue8hKJ8HfVdoWjE957yzHhgttO7-VktzKDo8X01NmsegucXCM,,,,,,,,,,,
,,,,,,,,,,,,,,a,1,0.741025,space,0.380170001,0,103,103,138,1,0_targ_4_dist_red/trial14.png,,,0,4,redHorizontal,a,35,21,Female,2021-02-21_21h15.20.132,exp11,2020.2.6,Win32,60,IwAR2g_uZYATue8hKJ8HfVdoWjE957yzHhgttO7-VktzKDo8X01NmsegucXCM,,,,,,,,,,,
,,,,,,,,,,,,,,a,0,0.872385,space,0.186205,0,104,104,26,1,3_dist_red/trial2.png,,,1,3,redHorizontal,p,35,21,Female,2021-02-21_21h15.20.132,exp11,2020.2.6,Win32,60,IwAR2g_uZYATue8hKJ8HfVdoWjE957yzHhgttO7-VktzKDo8X01NmsegucXCM,,,,,,,,,,,
,,,,,,,,,,,,,,a,1,1.655975,space,0.26355,0,105,105,196,1,0_targ_16_dist_red/trial22.png,,,0,16,redHorizontal,a,35,21,Female,2021-02-21_21h15.20.132,exp11,2020.2.6,Win32,60,IwAR2g_uZYATue8hKJ8HfVdoWjE957yzHhgttO7-VktzKDo8X01NmsegucXCM,,,,,,,,,,,
,,,,,,,,,,,,,,a,1,0.663725,space,0.216445,0,106,106,119,1,0_targ_1_dist_red/trial20.png,,,0,1,redHorizontal,a,35,21,Female,2021-02-21_21h15.20.132,exp11,2020.2.6,Win32,60,IwAR2g_uZYATue8hKJ8HfVdoWjE957yzHhgttO7-VktzKDo8X01NmsegucXCM,,,,,,,,,,,
,,,,,,,,,,,,,,p,1,0.589,space,0.228305,0,107,107,7,1,0_dist_red/trial8.png,,,1,0,redHorizontal,p,35,21,Female,2021-02-21_21h15.20.132,exp11,2020.2.6,Win32,60,IwAR2g_uZYATue8hKJ8HfVdoWjE957yzHhgttO7-VktzKDo8X01NmsegucXCM,,,,,,,,,,,
,,,,,,,,,,,,,,p,1,0.62899,space,0.217185,0,108,108,86,1,15_dist_red/trial12.png,,,1,15,redHorizontal,p,35,21,Female,2021-02-21_21h15.20.132,exp11,2020.2.6,Win32,60,IwAR2g_uZYATue8hKJ8HfVdoWjE957yzHhgttO7-VktzKDo8X01NmsegucXCM,,,,,,,,,,,
,,,,,,,,,,,,,,a,1,0.607485,space,0.216715,0,109,109,148,1,0_targ_4_dist_red/trial24.png,,,0,4,redHorizontal,a,35,21,Female,2021-02-21_21h15.20.132,exp11,2020.2.6,Win32,60,IwAR2g_uZYATue8hKJ8HfVdoWjE957yzHhgttO7-VktzKDo8X01NmsegucXCM,,,,,,,,,,,
,,,,,,,,,,,,,,a,1,0.612,space,0.233440001,0,110,110,122,1,0_targ_1_dist_red/trial23.png,,,0,1,redHorizontal,a,35,21,Female,2021-02-21_21h15.20.132,exp11,2020.2.6,Win32,60,IwAR2g_uZYATue8hKJ8HfVdoWjE957yzHhgttO7-VktzKDo8X01NmsegucXCM,,,,,,,,,,,
,,,,,,,,,,,,,,p,1,0.62956,space,0.228314999,0,111,111,73,1,9_dist_red/trial24.png,,,1,9,redHorizontal,p,35,21,Female,2021-02-21_21h15.20.132,exp11,2020.2.6,Win32,60,IwAR2g_uZYATue8hKJ8HfVdoWjE957yzHhgttO7-VktzKDo8X01NmsegucXCM,,,,,,,,,,,
,,,,,,,,,,,,,,a,1,1.13533,space,0.37261,0,112,112,164,1,0_targ_10_dist_red/trial15.png,,,0,10,redHorizontal,a,35,21,Female,2021-02-21_21h15.20.132,exp11,2020.2.6,Win32,60,IwAR2g_uZYATue8hKJ8HfVdoWjE957yzHhgttO7-VktzKDo8X01NmsegucXCM,,,,,,,,,,,
,,,,,,,,,,,,,,a,1,0.616745,space,0.21179,0,113,113,105,1,0_targ_1_dist_red/trial6.png,,,0,1,redHorizontal,a,35,21,Female,2021-02-21_21h15.20.132,exp11,2020.2.6,Win32,60,IwAR2g_uZYATue8hKJ8HfVdoWjE957yzHhgttO7-VktzKDo8X01NmsegucXCM,,,,,,,,,,,
,,,,,,,,,,,,,,p,1,0.474915,space,0.210419999,0,114,114,1,1,0_dist_red/trial2.png,,,1,0,redHorizontal,p,35,21,Female,2021-02-21_21h15.20.132,exp11,2020.2.6,Win32,60,IwAR2g_uZYATue8hKJ8HfVdoWjE957yzHhgttO7-VktzKDo8X01NmsegucXCM,,,,,,,,,,,
,,,,,,,,,,,,,,p,1,0.686125,space,0.217990001,0,115,115,36,1,3_dist_red/trial12.png,,,1,3,redHorizontal,p,35,21,Female,2021-02-21_21h15.20.132,exp11,2020.2.6,Win32,60,IwAR2g_uZYATue8hKJ8HfVdoWjE957yzHhgttO7-VktzKDo8X01NmsegucXCM,,,,,,,,,,,
,,,,,,,,,,,,,,a,1,0.729705,space,0.234375,0,116,116,123,1,0_targ_1_dist_red/trial24.png,,,0,1,redHorizontal,a,35,21,Female,2021-02-21_21h15.20.132,exp11,2020.2.6,Win32,60,IwAR2g_uZYATue8hKJ8HfVdoWjE957yzHhgttO7-VktzKDo8X01NmsegucXCM,,,,,,,,,,,
,,,,,,,,,,,,,,p,1,0.715755,space,0.263805,0,117,117,20,1,0_dist_red/trial21.png,,,1,0,redHorizontal,p,35,21,Female,2021-02-21_21h15.20.132,exp11,2020.2.6,Win32,60,IwAR2g_uZYATue8hKJ8HfVdoWjE957yzHhgttO7-VktzKDo8X01NmsegucXCM,,,,,,,,,,,
,,,,,,,,,,,,,,a,1,0.77972,space,0.2578,0,118,118,132,1,0_targ_4_dist_red/trial8.png,,,0,4,redHorizontal,a,35,21,Female,2021-02-21_21h15.20.132,exp11,2020.2.6,Win32,60,IwAR2g_uZYATue8hKJ8HfVdoWjE957yzHhgttO7-VktzKDo8X01NmsegucXCM,,,,,,,,,,,
,,,,,,,,,,,,,,p,1,0.65661,space,0.334095,0,119,119,6,1,0_dist_red/trial7.png,,,1,0,redHorizontal,p,35,21,Female,2021-02-21_21h15.20.132,exp11,2020.2.6,Win32,60,IwAR2g_uZYATue8hKJ8HfVdoWjE957yzHhgttO7-VktzKDo8X01NmsegucXCM,,,,,,,,,,,
,,,,,,,,,,,,,,a,1,0.895325,space,0.275579999,0,120,120,193,1,0_targ_16_dist_red/trial19.png,,,0,16,redHorizontal,a,35,21,Female,2021-02-21_21h15.20.132,exp11,2020.2.6,Win32,60,IwAR2g_uZYATue8hKJ8HfVdoWjE957yzHhgttO7-VktzKDo8X01NmsegucXCM,,,,,,,,,,,
,,,,,,,,,,,,,,a,1,0.64013,space,0.188705,0,121,121,176,1,0_targ_16_dist_red/trial2.png,,,0,16,redHorizontal,a,35,21,Female,2021-02-21_21h15.20.132,exp11,2020.2.6,Win32,60,IwAR2g_uZYATue8hKJ8HfVdoWjE957yzHhgttO7-VktzKDo8X01NmsegucXCM,,,,,,,,,,,
,,,,,,,,,,,,,,a,1,0.593695,space,0.250745,0,122,122,184,1,0_targ_16_dist_red/trial10.png,,,0,16,redHorizontal,a,35,21,Female,2021-02-21_21h15.20.132,exp11,2020.2.6,Win32,60,IwAR2g_uZYATue8hKJ8HfVdoWjE957yzHhgttO7-VktzKDo8X01NmsegucXCM,,,,,,,,,,,
,,,,,,,,,,,,,,a,1,0.570175,space,0.24061,0,123,123,100,1,0_targ_1_dist_red/trial1.png,,,0,1,redHorizontal,a,35,21,Female,2021-02-21_21h15.20.132,exp11,2020.2.6,Win32,60,IwAR2g_uZYATue8hKJ8HfVdoWjE957yzHhgttO7-VktzKDo8X01NmsegucXCM,,,,,,,,,,,
,,,,,,,,,,,,,,p,1,0.654985,space,0.18418,0,124,124,98,1,15_dist_red/trial24.png,,,1,15,redHorizontal,p,35,21,Female,2021-02-21_21h15.20.132,exp11,2020.2.6,Win32,60,IwAR2g_uZYATue8hKJ8HfVdoWjE957yzHhgttO7-VktzKDo8X01NmsegucXCM,,,,,,,,,,,
,,,,,,,,,,,,,,p,1,0.592794999,space,0.185690001,0,125,125,45,1,3_dist_red/trial21.png,,,1,3,redHorizontal,p,35,21,Female,2021-02-21_21h15.20.132,exp11,2020.2.6,Win32,60,IwAR2g_uZYATue8hKJ8HfVdoWjE957yzHhgttO7-VktzKDo8X01NmsegucXCM,,,,,,,,,,,
,,,,,,,,,,,,,,a,1,0.767765,space,0.188680001,0,126,126,199,1,0_targ_16_dist_red/trial25.png,,,0,16,redHorizontal,a,35,21,Female,2021-02-21_21h15.20.132,exp11,2020.2.6,Win32,60,IwAR2g_uZYATue8hKJ8HfVdoWjE957yzHhgttO7-VktzKDo8X01NmsegucXCM,,,,,,,,,,,
,,,,,,,,,,,,,,p,1,0.559325,space,0.200435,0,127,127,13,1,0_dist_red/trial14.png,,,1,0,redHorizontal,p,35,21,Female,2021-02-21_21h15.20.132,exp11,2020.2.6,Win32,60,IwAR2g_uZYATue8hKJ8HfVdoWjE957yzHhgttO7-VktzKDo8X01NmsegucXCM,,,,,,,,,,,
,,,,,,,,,,,,,,a,1,0.64312,space,0.37246,0,128,128,115,1,0_targ_1_dist_red/trial6.png,,,0,1,redHorizontal,a,35,21,Female,2021-02-21_21h15.20.132,exp11,2020.2.6,Win32,60,IwAR2g_uZYATue8hKJ8HfVdoWjE957yzHhgttO7-VktzKDo8X01NmsegucXCM,,,,,,,,,,,
,,,,,,,,,,,,,,p,0,0.80563,space,2.642159999,0,129,129,178,1,0_targ_16_dist_red/trial4.png,,,0,16,redHorizontal,a,35,21,Female,2021-02-21_21h15.20.132,exp11,2020.2.6,Win32,60,IwAR2g_uZYATue8hKJ8HfVdoWjE957yzHhgttO7-VktzKDo8X01NmsegucXCM,,,,,,,,,,,
,,,,,,,,,,,,,,p,1,0.69876,space,0.24296,0,130,130,50,1,9_dist_red/trial1.png,,,1,9,redHorizontal,p,35,21,Female,2021-02-21_21h15.20.132,exp11,2020.2.6,Win32,60,IwAR2g_uZYATue8hKJ8HfVdoWjE957yzHhgttO7-VktzKDo8X01NmsegucXCM,,,,,,,,,,,
,,,,,,,,,,,,,,a,1,1.02141,space,0.25086,0,131,131,104,1,0_targ_1_dist_red/trial5.png,,,0,1,redHorizontal,a,35,21,Female,2021-02-21_21h15.20.132,exp11,2020.2.6,Win32,60,IwAR2g_uZYATue8hKJ8HfVdoWjE957yzHhgttO7-VktzKDo8X01NmsegucXCM,,,,,,,,,,,
,,,,,,,,,,,,,,p,1,1.25239,space,0.210905,0,132,132,47,1,3_dist_red/trial23.png,,,1,3,redHorizontal,p,35,21,Female,2021-02-21_21h15.20.132,exp11,2020.2.6,Win32,60,IwAR2g_uZYATue8hKJ8HfVdoWjE957yzHhgttO7-VktzKDo8X01NmsegucXCM,,,,,,,,,,,
,,,,,,,,,,,,,,p,1,0.90999,space,0.176615,0,133,133,69,1,9_dist_red/trial20.png,,,1,9,redHorizontal,p,35,21,Female,2021-02-21_21h15.20.132,exp11,2020.2.6,Win32,60,IwAR2g_uZYATue8hKJ8HfVdoWjE957yzHhgttO7-VktzKDo8X01NmsegucXCM,,,,,,,,,,,
,,,,,,,,,,,,,,a,1,0.750445,space,0.21732,0,134,134,141,1,0_targ_4_dist_red/trial17.png,,,0,4,redHorizontal,a,35,21,Female,2021-02-21_21h15.20.132,exp11,2020.2.6,Win32,60,IwAR2g_uZYATue8hKJ8HfVdoWjE957yzHhgttO7-VktzKDo8X01NmsegucXCM,,,,,,,,,,,
,,,,,,,,,,,,,,a,1,0.598505,space,0.22164,0,135,135,170,1,0_targ_10_dist_red/trial21.png,,,0,10,redHorizontal,a,35,21,Female,2021-02-21_21h15.20.132,exp11,2020.2.6,Win32,60,IwAR2g_uZYATue8hKJ8HfVdoWjE957yzHhgttO7-VktzKDo8X01NmsegucXCM,,,,,,,,,,,
,,,,,,,,,,,,,,p,1,0.773665,space,0.19459,0,136,136,79,1,15_dist_red/trial5.png,,,1,15,redHorizontal,p,35,21,Female,2021-02-21_21h15.20.132,exp11,2020.2.6,Win32,60,IwAR2g_uZYATue8hKJ8HfVdoWjE957yzHhgttO7-VktzKDo8X01NmsegucXCM,,,,,,,,,,,
,,,,,,,,,,,,,,a,1,0.89149,space,0.1913,0,137,137,198,1,0_targ_16_dist_red/trial24.png,,,0,16,redHorizontal,a,35,21,Female,2021-02-21_21h15.20.132,exp11,2020.2.6,Win32,60,IwAR2g_uZYATue8hKJ8HfVdoWjE957yzHhgttO7-VktzKDo8X01NmsegucXCM,,,,,,,,,,,
,,,,,,,,,,,,,,p,1,0.716414999,space,0.254214999,0,138,138,82,1,15_dist_red/trial8.png,,,1,15,redHorizontal,p,35,21,Female,2021-02-21_21h15.20.132,exp11,2020.2.6,Win32,60,IwAR2g_uZYATue8hKJ8HfVdoWjE957yzHhgttO7-VktzKDo8X01NmsegucXCM,,,,,,,,,,,
,,,,,,,,,,,,,,p,1,1.007515,space,0.18427,0,139,139,97,1,15_dist_red/trial23.png,,,1,15,redHorizontal,p,35,21,Female,2021-02-21_21h15.20.132,exp11,2020.2.6,Win32,60,IwAR2g_uZYATue8hKJ8HfVdoWjE957yzHhgttO7-VktzKDo8X01NmsegucXCM,,,,,,,,,,,
,,,,,,,,,,,,,,p,1,0.63877,space,0.283915,0,140,140,31,1,3_dist_red/trial7.png,,,1,3,redHorizontal,p,35,21,Female,2021-02-21_21h15.20.132,exp11,2020.2.6,Win32,60,IwAR2g_uZYATue8hKJ8HfVdoWjE957yzHhgttO7-VktzKDo8X01NmsegucXCM,,,,,,,,,,,
,,,,,,,,,,,,,,p,1,0.58015,space,0.251605,0,141,141,4,1,0_dist_red/trial5.png,,,1,0,redHorizontal,p,35,21,Female,2021-02-21_21h15.20.132,exp11,2020.2.6,Win32,60,IwAR2g_uZYATue8hKJ8HfVdoWjE957yzHhgttO7-VktzKDo8X01NmsegucXCM,,,,,,,,,,,
,,,,,,,,,,,,,,a,1,0.70139,space,0.188215,0,142,142,181,1,0_targ_16_dist_red/trial7.png,,,0,16,redHorizontal,a,35,21,Female,2021-02-21_21h15.20.132,exp11,2020.2.6,Win32,60,IwAR2g_uZYATue8hKJ8HfVdoWjE957yzHhgttO7-VktzKDo8X01NmsegucXCM,,,,,,,,,,,
,,,,,,,,,,,,,,p,1,0.675615,space,0.177325,0,143,143,93,1,15_dist_red/trial19.png,,,1,15,redHorizontal,p,35,21,Female,2021-02-21_21h15.20.132,exp11,2020.2.6,Win32,60,IwAR2g_uZYATue8hKJ8HfVdoWjE957yzHhgttO7-VktzKDo8X01NmsegucXCM,,,,,,,,,,,
,,,,,,,,,,,,,,p,0,0.774245,space,1.712225,0,144,144,106,1,0_targ_1_dist_red/trial7.png,,,0,1,redHorizontal,a,35,21,Female,2021-02-21_21h15.20.132,exp11,2020.2.6,Win32,60,IwAR2g_uZYATue8hKJ8HfVdoWjE957yzHhgttO7-VktzKDo8X01NmsegucXCM,,,,,,,,,,,
,,,,,,,,,,,,,,p,1,0.63437,space,0.1666,0,145,145,12,1,0_dist_red/trial13.png,,,1,0,redHorizontal,p,35,21,Female,2021-02-21_21h15.20.132,exp11,2020.2.6,Win32,60,IwAR2g_uZYATue8hKJ8HfVdoWjE957yzHhgttO7-VktzKDo8X01NmsegucXCM,,,,,,,,,,,
,,,,,,,,,,,,,,p,1,0.69512,space,0.184274999,0,146,146,49,1,3_dist_red/trial25.png,,,1,3,redHorizontal,p,35,21,Female,2021-02-21_21h15.20.132,exp11,2020.2.6,Win32,60,IwAR2g_uZYATue8hKJ8HfVdoWjE957yzHhgttO7-VktzKDo8X01NmsegucXCM,,,,,,,,,,,
,,,,,,,,,,,,,,a,1,0.603920001,space,0.22578,0,147,147,166,1,0_targ_10_dist_red/trial17.png,,,0,10,redHorizontal,a,35,21,Female,2021-02-21_21h15.20.132,exp11,2020.2.6,Win32,60,IwAR2g_uZYATue8hKJ8HfVdoWjE957yzHhgttO7-VktzKDo8X01NmsegucXCM,,,,,,,,,,,
,,,,,,,,,,,,,,p,1,0.66197,space,0.222060001,0,148,148,62,1,9_dist_red/trial13.png,,,1,9,redHorizontal,p,35,21,Female,2021-02-21_21h15.20.132,exp11,2020.2.6,Win32,60,IwAR2g_uZYATue8hKJ8HfVdoWjE957yzHhgttO7-VktzKDo8X01NmsegucXCM,,,,,,,,,,,
,,,,,,,,,,,,,,a,1,0.98959,space,0.15701,0,149,149,162,1,0_targ_10_dist_red/trial13.png,,,0,10,redHorizontal,a,35,21,Female,2021-02-21_21h15.20.132,exp11,2020.2.6,Win32,60,IwAR2g_uZYATue8hKJ8HfVdoWjE957yzHhgttO7-VktzKDo8X01NmsegucXCM,,,,,,,,,,,
,,,,,,,,,,,,,,a,1,1.574519999,space,0.17584,0,150,150,102,1,0_targ_1_dist_red/trial3.png,,,0,1,redHorizontal,a,35,21,Female,2021-02-21_21h15.20.132,exp11,2020.2.6,Win32,60,IwAR2g_uZYATue8hKJ8HfVdoWjE957yzHhgttO7-VktzKDo8X01NmsegucXCM,,,,,,,,,,,
,,,,,,,,,,,,,,p,1,0.62942,space,0.243670001,0,151,151,22,1,0_dist_red/trial23.png,,,1,0,redHorizontal,p,35,21,Female,2021-02-21_21h15.20.132,exp11,2020.2.6,Win32,60,IwAR2g_uZYATue8hKJ8HfVdoWjE957yzHhgttO7-VktzKDo8X01NmsegucXCM,,,,,,,,,,,
,,,,,,,,,,,,,,p,1,0.54856,space,0.239815,0,152,152,3,1,0_dist_red/trial4.png,,,1,0,redHorizontal,p,35,21,Female,2021-02-21_21h15.20.132,exp11,2020.2.6,Win32,60,IwAR2g_uZYATue8hKJ8HfVdoWjE957yzHhgttO7-VktzKDo8X01NmsegucXCM,,,,,,,,,,,
,,,,,,,,,,,,,,p,1,0.609850001,space,0.709625,0,153,153,59,1,9_dist_red/trial10.png,,,1,9,redHorizontal,p,35,21,Female,2021-02-21_21h15.20.132,exp11,2020.2.6,Win32,60,IwAR2g_uZYATue8hKJ8HfVdoWjE957yzHhgttO7-VktzKDo8X01NmsegucXCM,,,,,,,,,,,
,,,,,,,,,,,,,,a,1,0.78076,space,0.41683,0,154,154,145,1,0_targ_4_dist_red/trial21.png,,,0,4,redHorizontal,a,35,21,Female,2021-02-21_21h15.20.132,exp11,2020.2.6,Win32,60,IwAR2g_uZYATue8hKJ8HfVdoWjE957yzHhgttO7-VktzKDo8X01NmsegucXCM,,,,,,,,,,,
,,,,,,,,,,,,,,a,1,1.0328,space,0.270885,0,155,155,157,1,0_targ_10_dist_red/trial8.png,,,0,10,redHorizontal,a,35,21,Female,2021-02-21_21h15.20.132,exp11,2020.2.6,Win32,60,IwAR2g_uZYATue8hKJ8HfVdoWjE957yzHhgttO7-VktzKDo8X01NmsegucXCM,,,,,,,,,,,
,,,,,,,,,,,,,,p,1,0.70117,space,0.250315,0,156,156,99,1,15_dist_red/trial25.png,,,1,15,redHorizontal,p,35,21,Female,2021-02-21_21h15.20.132,exp11,2020.2.6,Win32,60,IwAR2g_uZYATue8hKJ8HfVdoWjE957yzHhgttO7-VktzKDo8X01NmsegucXCM,,,,,,,,,,,
,,,,,,,,,,,,,,p,1,1.126545,space,0.493795,0,157,157,41,1,3_dist_red/trial17.png,,,1,3,redHorizontal,p,35,21,Female,2021-02-21_21h15.20.132,exp11,2020.2.6,Win32,60,IwAR2g_uZYATue8hKJ8HfVdoWjE957yzHhgttO7-VktzKDo8X01NmsegucXCM,,,,,,,,,,,
,,,,,,,,,,,,,,a,1,0.713575,space,1.30778,0,158,158,101,1,0_targ_1_dist_red/trial2.png,,,0,1,redHorizontal,a,35,21,Female,2021-02-21_21h15.20.132,exp11,2020.2.6,Win32,60,IwAR2g_uZYATue8hKJ8HfVdoWjE957yzHhgttO7-VktzKDo8X01NmsegucXCM,,,,,,,,,,,
,,,,,,,,,,,,,,p,1,0.724405,space,0.38673,0,159,159,52,1,9_dist_red/trial3.png,,,1,9,redHorizontal,p,35,21,Female,2021-02-21_21h15.20.132,exp11,2020.2.6,Win32,60,IwAR2g_uZYATue8hKJ8HfVdoWjE957yzHhgttO7-VktzKDo8X01NmsegucXCM,,,,,,,,,,,
,,,,,,,,,,,,,,a,1,0.72462,space,0.43473,0,160,160,189,1,0_targ_16_dist_red/trial15.png,,,0,16,redHorizontal,a,35,21,Female,2021-02-21_21h15.20.132,exp11,2020.2.6,Win32,60,IwAR2g_uZYATue8hKJ8HfVdoWjE957yzHhgttO7-VktzKDo8X01NmsegucXCM,,,,,,,,,,,
,,,,,,,,,,,,,,a,1,1.460805,space,0.27186,0,161,161,124,1,0_targ_1_dist_red/trial25.png,,,0,1,redHorizontal,a,35,21,Female,2021-02-21_21h15.20.132,exp11,2020.2.6,Win32,60,IwAR2g_uZYATue8hKJ8HfVdoWjE957yzHhgttO7-VktzKDo8X01NmsegucXCM,,,,,,,,,,,
,,,,,,,,,,,,,,p,1,0.842155,space,0.29476,0,162,162,53,1,9_dist_red/trial4.png,,,1,9,redHorizontal,p,35,21,Female,2021-02-21_21h15.20.132,exp11,2020.2.6,Win32,60,IwAR2g_uZYATue8hKJ8HfVdoWjE957yzHhgttO7-VktzKDo8X01NmsegucXCM,,,,,,,,,,,
,,,,,,,,,,,,,,p,0,1.076835,space,0.494395,0,163,163,161,1,0_targ_10_dist_red/trial12.png,,,0,10,redHorizontal,a,35,21,Female,2021-02-21_21h15.20.132,exp11,2020.2.6,Win32,60,IwAR2g_uZYATue8hKJ8HfVdoWjE957yzHhgttO7-VktzKDo8X01NmsegucXCM,,,,,,,,,,,
,,,,,,,,,,,,,,p,1,1.274185,space,0.302425,0,164,164,32,1,3_dist_red/trial8.png,,,1,3,redHorizontal,p,35,21,Female,2021-02-21_21h15.20.132,exp11,2020.2.6,Win32,60,IwAR2g_uZYATue8hKJ8HfVdoWjE957yzHhgttO7-VktzKDo8X01NmsegucXCM,,,,,,,,,,,
,,,,,,,,,,,,,,p,1,0.814825,space,0.372280001,0,165,165,81,1,15_dist_red/trial7.png,,,1,15,redHorizontal,p,35,21,Female,2021-02-21_21h15.20.132,exp11,2020.2.6,Win32,60,IwAR2g_uZYATue8hKJ8HfVdoWjE957yzHhgttO7-VktzKDo8X01NmsegucXCM,,,,,,,,,,,
,,,,,,,,,,,,,,p,1,0.541660001,space,0.271205,0,166,166,67,1,9_dist_red/trial18.png,,,1,9,redHorizontal,p,35,21,Female,2021-02-21_21h15.20.132,exp11,2020.2.6,Win32,60,IwAR2g_uZYATue8hKJ8HfVdoWjE957yzHhgttO7-VktzKDo8X01NmsegucXCM,,,,,,,,,,,
,,,,,,,,,,,,,,a,1,0.563259999,space,0.26174,0,167,167,133,1,0_targ_4_dist_red/trial9.png,,,0,4,redHorizontal,a,35,21,Female,2021-02-21_21h15.20.132,exp11,2020.2.6,Win32,60,IwAR2g_uZYATue8hKJ8HfVdoWjE957yzHhgttO7-VktzKDo8X01NmsegucXCM,,,,,,,,,,,
,,,,,,,,,,,,,,a,0,0.758055,space,2.33391,0,168,168,25,1,3_dist_red/trial1.png,,,1,3,redHorizontal,p,35,21,Female,2021-02-21_21h15.20.132,exp11,2020.2.6,Win32,60,IwAR2g_uZYATue8hKJ8HfVdoWjE957yzHhgttO7-VktzKDo8X01NmsegucXCM,,,,,,,,,,,
,,,,,,,,,,,,,,p,1,1.477,space,0.749375,0,169,169,40,1,3_dist_red/trial16.png,,,1,3,redHorizontal,p,35,21,Female,2021-02-21_21h15.20.132,exp11,2020.2.6,Win32,60,IwAR2g_uZYATue8hKJ8HfVdoWjE957yzHhgttO7-VktzKDo8X01NmsegucXCM,,,,,,,,,,,
,,,,,,,,,,,,,,p,1,0.518054999,space,0.46834,0,170,170,5,1,0_dist_red/trial6.png,,,1,0,redHorizontal,p,35,21,Female,2021-02-21_21h15.20.132,exp11,2020.2.6,Win32,60,IwAR2g_uZYATue8hKJ8HfVdoWjE957yzHhgttO7-VktzKDo8X01NmsegucXCM,,,,,,,,,,,
,,,,,,,,,,,,,,p,1,0.664275,space,0.483415,0,171,171,96,1,15_dist_red/trial22.png,,,1,15,redHorizontal,p,35,21,Female,2021-02-21_21h15.20.132,exp11,2020.2.6,Win32,60,IwAR2g_uZYATue8hKJ8HfVdoWjE957yzHhgttO7-VktzKDo8X01NmsegucXCM,,,,,,,,,,,
,,,,,,,,,,,,,,a,1,1.144925,space,0.302375,0,172,172,186,1,0_targ_16_dist_red/trial12.png,,,0,16,redHorizontal,a,35,21,Female,2021-02-21_21h15.20.132,exp11,2020.2.6,Win32,60,IwAR2g_uZYATue8hKJ8HfVdoWjE957yzHhgttO7-VktzKDo8X01NmsegucXCM,,,,,,,,,,,
,,,,,,,,,,,,,,p,1,1.22601,space,0.321,0,173,173,84,1,15_dist_red/trial10.png,,,1,15,redHorizontal,p,35,21,Female,2021-02-21_21h15.20.132,exp11,2020.2.6,Win32,60,IwAR2g_uZYATue8hKJ8HfVdoWjE957yzHhgttO7-VktzKDo8X01NmsegucXCM,,,,,,,,,,,
,,,,,,,,,,,,,,p,1,0.75294,space,0.336560001,0,174,174,37,1,3_dist_red/trial13.png,,,1,3,redHorizontal,p,35,21,Female,2021-02-21_21h15.20.132,exp11,2020.2.6,Win32,60,IwAR2g_uZYATue8hKJ8HfVdoWjE957yzHhgttO7-VktzKDo8X01NmsegucXCM,,,,,,,,,,,
,,,,,,,,,,,,,,p,1,0.780035,space,0.338825,0,175,175,85,1,15_dist_red/trial11.png,,,1,15,redHorizontal,p,35,21,Female,2021-02-21_21h15.20.132,exp11,2020.2.6,Win32,60,IwAR2g_uZYATue8hKJ8HfVdoWjE957yzHhgttO7-VktzKDo8X01NmsegucXCM,,,,,,,,,,,
,,,,,,,,,,,,,,a,1,0.862385,space,0.361045,0,176,176,169,1,0_targ_10_dist_red/trial20.png,,,0,10,redHorizontal,a,35,21,Female,2021-02-21_21h15.20.132,exp11,2020.2.6,Win32,60,IwAR2g_uZYATue8hKJ8HfVdoWjE957yzHhgttO7-VktzKDo8X01NmsegucXCM,,,,,,,,,,,
,,,,,,,,,,,,,,a,1,0.79522,space,0.35055,0,177,177,167,1,0_targ_10_dist_red/trial18.png,,,0,10,redHorizontal,a,35,21,Female,2021-02-21_21h15.20.132,exp11,2020.2.6,Win32,60,IwAR2g_uZYATue8hKJ8HfVdoWjE957yzHhgttO7-VktzKDo8X01NmsegucXCM,,,,,,,,,,,
,,,,,,,,,,,,,,p,1,0.63757,space,0.294445001,0,178,178,11,1,0_dist_red/trial12.png,,,1,0,redHorizontal,p,35,21,Female,2021-02-21_21h15.20.132,exp11,2020.2.6,Win32,60,IwAR2g_uZYATue8hKJ8HfVdoWjE957yzHhgttO7-VktzKDo8X01NmsegucXCM,,,,,,,,,,,
,,,,,,,,,,,,,,a,1,0.644935,space,0.351805,0,179,179,110,1,0_targ_1_dist_red/trial11.png,,,0,1,redHorizontal,a,35,21,Female,2021-02-21_21h15.20.132,exp11,2020.2.6,Win32,60,IwAR2g_uZYATue8hKJ8HfVdoWjE957yzHhgttO7-VktzKDo8X01NmsegucXCM,,,,,,,,,,,
,,,,,,,,,,,,,,p,1,0.714614999,space,0.291435,0,180,180,78,1,15_dist_red/trial4.png,,,1,15,redHorizontal,p,35,21,Female,2021-02-21_21h15.20.132,exp11,2020.2.6,Win32,60,IwAR2g_uZYATue8hKJ8HfVdoWjE957yzHhgttO7-VktzKDo8X01NmsegucXCM,,,,,,,,,,,
,,,,,,,,,,,,,,a,1,0.903825,space,0.377695,0,181,181,182,1,0_targ_16_dist_red/trial8.png,,,0,16,redHorizontal,a,35,21,Female,2021-02-21_21h15.20.132,exp11,2020.2.6,Win32,60,IwAR2g_uZYATue8hKJ8HfVdoWjE957yzHhgttO7-VktzKDo8X01NmsegucXCM,,,,,,,,,,,
,,,,,,,,,,,,,,a,1,0.971815,space,0.28623,0,182,182,163,1,0_targ_10_dist_red/trial14.png,,,0,10,redHorizontal,a,35,21,Female,2021-02-21_21h15.20.132,exp11,2020.2.6,Win32,60,IwAR2g_uZYATue8hKJ8HfVdoWjE957yzHhgttO7-VktzKDo8X01NmsegucXCM,,,,,,,,,,,
,,,,,,,,,,,,,,p,1,0.607145,space,0.250305,0,183,183,57,1,9_dist_red/trial8.png,,,1,9,redHorizontal,p,35,21,Female,2021-02-21_21h15.20.132,exp11,2020.2.6,Win32,60,IwAR2g_uZYATue8hKJ8HfVdoWjE957yzHhgttO7-VktzKDo8X01NmsegucXCM,,,,,,,,,,,
,,,,,,,,,,,,,,p,1,0.858460001,space,0.254275,0,184,184,34,1,3_dist_red/trial10.png,,,1,3,redHorizontal,p,35,21,Female,2021-02-21_21h15.20.132,exp11,2020.2.6,Win32,60,IwAR2g_uZYATue8hKJ8HfVdoWjE957yzHhgttO7-VktzKDo8X01NmsegucXCM,,,,,,,,,,,
,,,,,,,,,,,,,,p,1,0.623105,space,0.34361,0,185,185,27,1,3_dist_red/trial3.png,,,1,3,redHorizontal,p,35,21,Female,2021-02-21_21h15.20.132,exp11,2020.2.6,Win32,60,IwAR2g_uZYATue8hKJ8HfVdoWjE957yzHhgttO7-VktzKDo8X01NmsegucXCM,,,,,,,,,,,
,,,,,,,,,,,,,,a,1,0.681024999,space,0.301675,0,186,186,126,1,0_targ_4_dist_red/trial2.png,,,0,4,redHorizontal,a,35,21,Female,2021-02-21_21h15.20.132,exp11,2020.2.6,Win32,60,IwAR2g_uZYATue8hKJ8HfVdoWjE957yzHhgttO7-VktzKDo8X01NmsegucXCM,,,,,,,,,,,
,,,,,,,,,,,,,,a,1,0.838975,space,0.350699999,0,187,187,173,1,0_targ_10_dist_red/trial24.png,,,0,10,redHorizontal,a,35,21,Female,2021-02-21_21h15.20.132,exp11,2020.2.6,Win32,60,IwAR2g_uZYATue8hKJ8HfVdoWjE957yzHhgttO7-VktzKDo8X01NmsegucXCM,,,,,,,,,,,
,,,,,,,,,,,,,,a,1,0.728695001,space,0.317385,0,188,188,120,1,0_targ_1_dist_red/trial21.png,,,0,1,redHorizontal,a,35,21,Female,2021-02-21_21h15.20.132,exp11,2020.2.6,Win32,60,IwAR2g_uZYATue8hKJ8HfVdoWjE957yzHhgttO7-VktzKDo8X01NmsegucXCM,,,,,,,,,,,
,,,,,,,,,,,,,,p,1,0.584925001,space,0.404615,0,189,189,15,1,0_dist_red/trial16.png,,,1,0,redHorizontal,p,35,21,Female,2021-02-21_21h15.20.132,exp11,2020.2.6,Win32,60,IwAR2g_uZYATue8hKJ8HfVdoWjE957yzHhgttO7-VktzKDo8X01NmsegucXCM,,,,,,,,,,,
,,,,,,,,,,,,,,p,1,1.20052,space,0.326725,0,190,190,80,1,15_dist_red/trial6.png,,,1,15,redHorizontal,p,35,21,Female,2021-02-21_21h15.20.132,exp11,2020.2.6,Win32,60,IwAR2g_uZYATue8hKJ8HfVdoWjE957yzHhgttO7-VktzKDo8X01NmsegucXCM,,,,,,,,,,,
,,,,,,,,,,,,,,a,1,0.76837,space,0.28757,0,191,191,147,1,0_targ_4_dist_red/trial23.png,,,0,4,redHorizontal,a,35,21,Female,2021-02-21_21h15.20.132,exp11,2020.2.6,Win32,60,IwAR2g_uZYATue8hKJ8HfVdoWjE957yzHhgttO7-VktzKDo8X01NmsegucXCM,,,,,,,,,,,
,,,,,,,,,,,,,,a,1,1.033145,space,0.31222,0,192,192,154,1,0_targ_10_dist_red/trial5.png,,,0,10,redHorizontal,a,35,21,Female,2021-02-21_21h15.20.132,exp11,2020.2.6,Win32,60,IwAR2g_uZYATue8hKJ8HfVdoWjE957yzHhgttO7-VktzKDo8X01NmsegucXCM,,,,,,,,,,,
,,,,,,,,,,,,,,p,1,0.73874,space,0.2416,0,193,193,18,1,0_dist_red/trial19.png,,,1,0,redHorizontal,p,35,21,Female,2021-02-21_21h15.20.132,exp11,2020.2.6,Win32,60,IwAR2g_uZYATue8hKJ8HfVdoWjE957yzHhgttO7-VktzKDo8X01NmsegucXCM,,,,,,,,,,,
,,,,,,,,,,,,,,p,1,2.28911,space,0.304515,0,194,194,95,1,15_dist_red/trial21.png,,,1,15,redHorizontal,p,35,21,Female,2021-02-21_21h15.20.132,exp11,2020.2.6,Win32,60,IwAR2g_uZYATue8hKJ8HfVdoWjE957yzHhgttO7-VktzKDo8X01NmsegucXCM,,,,,,,,,,,
,,,,,,,,,,,,,,p,1,0.508,space,0.28413,0,195,195,8,1,0_dist_red/trial9.png,,,1,0,redHorizontal,p,35,21,Female,2021-02-21_21h15.20.132,exp11,2020.2.6,Win32,60,IwAR2g_uZYATue8hKJ8HfVdoWjE957yzHhgttO7-VktzKDo8X01NmsegucXCM,,,,,,,,,,,
,,,,,,,,,,,,,,a,1,0.876495,space,0.259529999,0,196,196,151,1,0_targ_10_dist_red/trial2.png,,,0,10,redHorizontal,a,35,21,Female,2021-02-21_21h15.20.132,exp11,2020.2.6,Win32,60,IwAR2g_uZYATue8hKJ8HfVdoWjE957yzHhgttO7-VktzKDo8X01NmsegucXCM,,,,,,,,,,,
,,,,,,,,,,,,,,p,1,1.085965,space,0.260565,0,197,197,17,1,0_dist_red/trial18.png,,,1,0,redHorizontal,p,35,21,Female,2021-02-21_21h15.20.132,exp11,2020.2.6,Win32,60,IwAR2g_uZYATue8hKJ8HfVdoWjE957yzHhgttO7-VktzKDo8X01NmsegucXCM,,,,,,,,,,,
,,,,,,,,,,,,,,a,1,1.039105,space,0.267735,0,198,198,165,1,0_targ_10_dist_red/trial16.png,,,0,10,redHorizontal,a,35,21,Female,2021-02-21_21h15.20.132,exp11,2020.2.6,Win32,60,IwAR2g_uZYATue8hKJ8HfVdoWjE957yzHhgttO7-VktzKDo8X01NmsegucXCM,,,,,,,,,,,
,,,,,,,,,,,,,,p,1,0.62745,space,0.235645,0,199,199,65,1,9_dist_red/trial16.png,,,1,9,redHorizontal,p,35,21,Female,2021-02-21_21h15.20.132,exp11,2020.2.6,Win32,60,IwAR2g_uZYATue8hKJ8HfVdoWjE957yzHhgttO7-VktzKDo8X01NmsegucXCM,,,,,,,,,,,
,,,,,,,,,,,,,,,,,,,,,,,,,,,,,,,35,21,Female,2021-02-21_21h15.20.132,exp11,2020.2.6,Win32,60,IwAR2g_uZYATue8hKJ8HfVdoWjE957yzHhgttO7-VktzKDo8X01NmsegucXCM,0,1,1,1,1,conRed.xlsx,red horizontal,Look for red horizontal bar (target) and indicate if it is present or absent in the array. If red horizontal target is present press 'p' and if absent press 'a'. Press SPACE to start.,,,
