key_resp_6.keys,key_resp_6.rt,key_resp_7.keys,key_resp_7.rt,key_resp_8.keys,key_resp_8.rt,key_resp_10.keys,key_resp_10.rt,key_resp_9.keys,key_resp_9.rt,key_resp_3.keys,key_resp_3.rt,key_resp_5.keys,key_resp_5.rt,key_resp.keys,key_resp.corr,key_resp.rt,key_resp_4.keys,key_resp_4.rt,trials.thisRepN,trials.thisTrialN,trials.thisN,trials.thisIndex,trials.ran,ImageFile,tarPos,tarSize,targPres,numDist,targetName,correctAns,participant,age,sex,date,expName,psychopyVersion,OS,frameRate,fbclid,trials_2.thisRepN,trials_2.thisTrialN,trials_2.thisN,trials_2.thisIndex,trials_2.ran,condsFile,targName,instructionText,colTarget,sizeTarg,posit
space,2.9,space,9.858,space,8.153,space,11.704,space,2.49,space,9.177,space,4.414,a,1,1.713,space,6.492,0,0,0,112,1,0_targ_1_dist_red/trial13.png,,,0,1,redHorizontal,a,36,20,Female,2021-02-20_15h26.20.089,exp11,2020.2.6,Win32,60,IwAR01LG4lvF9DQSciDRm8DykE2J6eNQ48SZDoCQps7YCXMo7pGu0wmuHUyYw,,,,,,,,,,,
,,,,,,,,,,,,,,p,1,0.567,space,1.281,0,1,1,1,1,0_dist_red/trial2.png,,,1,0,redHorizontal,p,36,20,Female,2021-02-20_15h26.20.089,exp11,2020.2.6,Win32,60,IwAR01LG4lvF9DQSciDRm8DykE2J6eNQ48SZDoCQps7YCXMo7pGu0wmuHUyYw,,,,,,,,,,,
,,,,,,,,,,,,,,p,1,0.686,space,0.185,0,2,2,83,1,15_dist_red/trial9.png,,,1,15,redHorizontal,p,36,20,Female,2021-02-20_15h26.20.089,exp11,2020.2.6,Win32,60,IwAR01LG4lvF9DQSciDRm8DykE2J6eNQ48SZDoCQps7YCXMo7pGu0wmuHUyYw,,,,,,,,,,,
,,,,,,,,,,,,,,p,1,0.518,space,0.203,0,3,3,25,1,3_dist_red/trial1.png,,,1,3,redHorizontal,p,36,20,Female,2021-02-20_15h26.20.089,exp11,2020.2.6,Win32,60,IwAR01LG4lvF9DQSciDRm8DykE2J6eNQ48SZDoCQps7YCXMo7pGu0wmuHUyYw,,,,,,,,,,,
,,,,,,,,,,,,,,p,0,0.519,space,1.814,0,4,4,166,1,0_targ_10_dist_red/trial17.png,,,0,10,redHorizontal,a,36,20,Female,2021-02-20_15h26.20.089,exp11,2020.2.6,Win32,60,IwAR01LG4lvF9DQSciDRm8DykE2J6eNQ48SZDoCQps7YCXMo7pGu0wmuHUyYw,,,,,,,,,,,
,,,,,,,,,,,,,,p,1,0.563,space,0.929,0,5,5,39,1,3_dist_red/trial15.png,,,1,3,redHorizontal,p,36,20,Female,2021-02-20_15h26.20.089,exp11,2020.2.6,Win32,60,IwAR01LG4lvF9DQSciDRm8DykE2J6eNQ48SZDoCQps7YCXMo7pGu0wmuHUyYw,,,,,,,,,,,
,,,,,,,,,,,,,,p,1,0.431,space,0.531,0,6,6,26,1,3_dist_red/trial2.png,,,1,3,redHorizontal,p,36,20,Female,2021-02-20_15h26.20.089,exp11,2020.2.6,Win32,60,IwAR01LG4lvF9DQSciDRm8DykE2J6eNQ48SZDoCQps7YCXMo7pGu0wmuHUyYw,,,,,,,,,,,
,,,,,,,,,,,,,,p,0,0.71,space,3.73,0,7,7,142,1,0_targ_4_dist_red/trial18.png,,,0,4,redHorizontal,a,36,20,Female,2021-02-20_15h26.20.089,exp11,2020.2.6,Win32,60,IwAR01LG4lvF9DQSciDRm8DykE2J6eNQ48SZDoCQps7YCXMo7pGu0wmuHUyYw,,,,,,,,,,,
,,,,,,,,,,,,,,a,1,1.162,space,0.962,0,8,8,132,1,0_targ_4_dist_red/trial8.png,,,0,4,redHorizontal,a,36,20,Female,2021-02-20_15h26.20.089,exp11,2020.2.6,Win32,60,IwAR01LG4lvF9DQSciDRm8DykE2J6eNQ48SZDoCQps7YCXMo7pGu0wmuHUyYw,,,,,,,,,,,
,,,,,,,,,,,,,,p,1,0.443,space,0.9,0,9,9,16,1,0_dist_red/trial17.png,,,1,0,redHorizontal,p,36,20,Female,2021-02-20_15h26.20.089,exp11,2020.2.6,Win32,60,IwAR01LG4lvF9DQSciDRm8DykE2J6eNQ48SZDoCQps7YCXMo7pGu0wmuHUyYw,,,,,,,,,,,
,,,,,,,,,,,,,,p,1,1.054,space,0.849,0,10,10,91,1,15_dist_red/trial17.png,,,1,15,redHorizontal,p,36,20,Female,2021-02-20_15h26.20.089,exp11,2020.2.6,Win32,60,IwAR01LG4lvF9DQSciDRm8DykE2J6eNQ48SZDoCQps7YCXMo7pGu0wmuHUyYw,,,,,,,,,,,
,,,,,,,,,,,,,,a,1,0.883,space,0.586,0,11,11,102,1,0_targ_1_dist_red/trial3.png,,,0,1,redHorizontal,a,36,20,Female,2021-02-20_15h26.20.089,exp11,2020.2.6,Win32,60,IwAR01LG4lvF9DQSciDRm8DykE2J6eNQ48SZDoCQps7YCXMo7pGu0wmuHUyYw,,,,,,,,,,,
,,,,,,,,,,,,,,a,1,0.481,space,1.234,0,12,12,149,1,0_targ_4_dist_red/trial25.png,,,0,4,redHorizontal,a,36,20,Female,2021-02-20_15h26.20.089,exp11,2020.2.6,Win32,60,IwAR01LG4lvF9DQSciDRm8DykE2J6eNQ48SZDoCQps7YCXMo7pGu0wmuHUyYw,,,,,,,,,,,
,,,,,,,,,,,,,,p,1,0.749,space,0.936,0,13,13,22,1,0_dist_red/trial23.png,,,1,0,redHorizontal,p,36,20,Female,2021-02-20_15h26.20.089,exp11,2020.2.6,Win32,60,IwAR01LG4lvF9DQSciDRm8DykE2J6eNQ48SZDoCQps7YCXMo7pGu0wmuHUyYw,,,,,,,,,,,
,,,,,,,,,,,,,,a,0,0.856,space,1.2,0,14,14,28,1,3_dist_red/trial4.png,,,1,3,redHorizontal,p,36,20,Female,2021-02-20_15h26.20.089,exp11,2020.2.6,Win32,60,IwAR01LG4lvF9DQSciDRm8DykE2J6eNQ48SZDoCQps7YCXMo7pGu0wmuHUyYw,,,,,,,,,,,
,,,,,,,,,,,,,,p,1,1.053,space,0.903,0,15,15,81,1,15_dist_red/trial7.png,,,1,15,redHorizontal,p,36,20,Female,2021-02-20_15h26.20.089,exp11,2020.2.6,Win32,60,IwAR01LG4lvF9DQSciDRm8DykE2J6eNQ48SZDoCQps7YCXMo7pGu0wmuHUyYw,,,,,,,,,,,
,,,,,,,,,,,,,,a,1,0.718,space,0.868,0,16,16,130,1,0_targ_4_dist_red/trial6.png,,,0,4,redHorizontal,a,36,20,Female,2021-02-20_15h26.20.089,exp11,2020.2.6,Win32,60,IwAR01LG4lvF9DQSciDRm8DykE2J6eNQ48SZDoCQps7YCXMo7pGu0wmuHUyYw,,,,,,,,,,,
,,,,,,,,,,,,,,p,1,0.752,space,0.817,0,17,17,58,1,9_dist_red/trial9.png,,,1,9,redHorizontal,p,36,20,Female,2021-02-20_15h26.20.089,exp11,2020.2.6,Win32,60,IwAR01LG4lvF9DQSciDRm8DykE2J6eNQ48SZDoCQps7YCXMo7pGu0wmuHUyYw,,,,,,,,,,,
,,,,,,,,,,,,,,a,1,0.818,space,0.655,0,18,18,148,1,0_targ_4_dist_red/trial24.png,,,0,4,redHorizontal,a,36,20,Female,2021-02-20_15h26.20.089,exp11,2020.2.6,Win32,60,IwAR01LG4lvF9DQSciDRm8DykE2J6eNQ48SZDoCQps7YCXMo7pGu0wmuHUyYw,,,,,,,,,,,
,,,,,,,,,,,,,,p,1,1.04,space,0.999,0,19,19,70,1,9_dist_red/trial21.png,,,1,9,redHorizontal,p,36,20,Female,2021-02-20_15h26.20.089,exp11,2020.2.6,Win32,60,IwAR01LG4lvF9DQSciDRm8DykE2J6eNQ48SZDoCQps7YCXMo7pGu0wmuHUyYw,,,,,,,,,,,
,,,,,,,,,,,,,,p,1,0.601,space,0.75,0,20,20,37,1,3_dist_red/trial13.png,,,1,3,redHorizontal,p,36,20,Female,2021-02-20_15h26.20.089,exp11,2020.2.6,Win32,60,IwAR01LG4lvF9DQSciDRm8DykE2J6eNQ48SZDoCQps7YCXMo7pGu0wmuHUyYw,,,,,,,,,,,
,,,,,,,,,,,,,,p,1,0.602,space,0.848,0,21,21,82,1,15_dist_red/trial8.png,,,1,15,redHorizontal,p,36,20,Female,2021-02-20_15h26.20.089,exp11,2020.2.6,Win32,60,IwAR01LG4lvF9DQSciDRm8DykE2J6eNQ48SZDoCQps7YCXMo7pGu0wmuHUyYw,,,,,,,,,,,
,,,,,,,,,,,,,,p,1,0.935,space,0.838,0,22,22,51,1,9_dist_red/trial2.png,,,1,9,redHorizontal,p,36,20,Female,2021-02-20_15h26.20.089,exp11,2020.2.6,Win32,60,IwAR01LG4lvF9DQSciDRm8DykE2J6eNQ48SZDoCQps7YCXMo7pGu0wmuHUyYw,,,,,,,,,,,
,,,,,,,,,,,,,,p,1,0.831,space,0.904,0,23,23,84,1,15_dist_red/trial10.png,,,1,15,redHorizontal,p,36,20,Female,2021-02-20_15h26.20.089,exp11,2020.2.6,Win32,60,IwAR01LG4lvF9DQSciDRm8DykE2J6eNQ48SZDoCQps7YCXMo7pGu0wmuHUyYw,,,,,,,,,,,
,,,,,,,,,,,,,,p,1,0.535,space,0.965,0,24,24,42,1,3_dist_red/trial18.png,,,1,3,redHorizontal,p,36,20,Female,2021-02-20_15h26.20.089,exp11,2020.2.6,Win32,60,IwAR01LG4lvF9DQSciDRm8DykE2J6eNQ48SZDoCQps7YCXMo7pGu0wmuHUyYw,,,,,,,,,,,
,,,,,,,,,,,,,,p,1,1.138,space,0.884,0,25,25,75,1,15_dist_red/trial1.png,,,1,15,redHorizontal,p,36,20,Female,2021-02-20_15h26.20.089,exp11,2020.2.6,Win32,60,IwAR01LG4lvF9DQSciDRm8DykE2J6eNQ48SZDoCQps7YCXMo7pGu0wmuHUyYw,,,,,,,,,,,
,,,,,,,,,,,,,,a,1,0.7,space,1.049,0,26,26,147,1,0_targ_4_dist_red/trial23.png,,,0,4,redHorizontal,a,36,20,Female,2021-02-20_15h26.20.089,exp11,2020.2.6,Win32,60,IwAR01LG4lvF9DQSciDRm8DykE2J6eNQ48SZDoCQps7YCXMo7pGu0wmuHUyYw,,,,,,,,,,,
,,,,,,,,,,,,,,a,1,1.006,space,0.326,0,27,27,117,1,0_targ_1_dist_red/trial18.png,,,0,1,redHorizontal,a,36,20,Female,2021-02-20_15h26.20.089,exp11,2020.2.6,Win32,60,IwAR01LG4lvF9DQSciDRm8DykE2J6eNQ48SZDoCQps7YCXMo7pGu0wmuHUyYw,,,,,,,,,,,
,,,,,,,,,,,,,,a,1,0.969,space,1.019,0,28,28,152,1,0_targ_10_dist_red/trial3.png,,,0,10,redHorizontal,a,36,20,Female,2021-02-20_15h26.20.089,exp11,2020.2.6,Win32,60,IwAR01LG4lvF9DQSciDRm8DykE2J6eNQ48SZDoCQps7YCXMo7pGu0wmuHUyYw,,,,,,,,,,,
,,,,,,,,,,,,,,p,1,0.785,space,0.817,0,29,29,72,1,9_dist_red/trial23.png,,,1,9,redHorizontal,p,36,20,Female,2021-02-20_15h26.20.089,exp11,2020.2.6,Win32,60,IwAR01LG4lvF9DQSciDRm8DykE2J6eNQ48SZDoCQps7YCXMo7pGu0wmuHUyYw,,,,,,,,,,,
,,,,,,,,,,,,,,p,1,0.468,space,0.839,0,30,30,21,1,0_dist_red/trial22.png,,,1,0,redHorizontal,p,36,20,Female,2021-02-20_15h26.20.089,exp11,2020.2.6,Win32,60,IwAR01LG4lvF9DQSciDRm8DykE2J6eNQ48SZDoCQps7YCXMo7pGu0wmuHUyYw,,,,,,,,,,,
,,,,,,,,,,,,,,a,1,0.727,space,0.816,0,31,31,129,1,0_targ_4_dist_red/trial5.png,,,0,4,redHorizontal,a,36,20,Female,2021-02-20_15h26.20.089,exp11,2020.2.6,Win32,60,IwAR01LG4lvF9DQSciDRm8DykE2J6eNQ48SZDoCQps7YCXMo7pGu0wmuHUyYw,,,,,,,,,,,
,,,,,,,,,,,,,,p,1,0.735,space,0.802,0,32,32,85,1,15_dist_red/trial11.png,,,1,15,redHorizontal,p,36,20,Female,2021-02-20_15h26.20.089,exp11,2020.2.6,Win32,60,IwAR01LG4lvF9DQSciDRm8DykE2J6eNQ48SZDoCQps7YCXMo7pGu0wmuHUyYw,,,,,,,,,,,
,,,,,,,,,,,,,,a,1,0.717,space,0.501,0,33,33,122,1,0_targ_1_dist_red/trial23.png,,,0,1,redHorizontal,a,36,20,Female,2021-02-20_15h26.20.089,exp11,2020.2.6,Win32,60,IwAR01LG4lvF9DQSciDRm8DykE2J6eNQ48SZDoCQps7YCXMo7pGu0wmuHUyYw,,,,,,,,,,,
,,,,,,,,,,,,,,p,1,0.903,space,0.834,0,34,34,36,1,3_dist_red/trial12.png,,,1,3,redHorizontal,p,36,20,Female,2021-02-20_15h26.20.089,exp11,2020.2.6,Win32,60,IwAR01LG4lvF9DQSciDRm8DykE2J6eNQ48SZDoCQps7YCXMo7pGu0wmuHUyYw,,,,,,,,,,,
,,,,,,,,,,,,,,a,1,0.816,space,0.702,0,35,35,125,1,0_targ_4_dist_red/trial1.png,,,0,4,redHorizontal,a,36,20,Female,2021-02-20_15h26.20.089,exp11,2020.2.6,Win32,60,IwAR01LG4lvF9DQSciDRm8DykE2J6eNQ48SZDoCQps7YCXMo7pGu0wmuHUyYw,,,,,,,,,,,
,,,,,,,,,,,,,,p,1,0.92,space,0.633,0,36,36,94,1,15_dist_red/trial20.png,,,1,15,redHorizontal,p,36,20,Female,2021-02-20_15h26.20.089,exp11,2020.2.6,Win32,60,IwAR01LG4lvF9DQSciDRm8DykE2J6eNQ48SZDoCQps7YCXMo7pGu0wmuHUyYw,,,,,,,,,,,
,,,,,,,,,,,,,,p,1,0.584,space,0.706,0,37,37,9,1,0_dist_red/trial10.png,,,1,0,redHorizontal,p,36,20,Female,2021-02-20_15h26.20.089,exp11,2020.2.6,Win32,60,IwAR01LG4lvF9DQSciDRm8DykE2J6eNQ48SZDoCQps7YCXMo7pGu0wmuHUyYw,,,,,,,,,,,
,,,,,,,,,,,,,,p,1,0.77,space,0.633,0,38,38,61,1,9_dist_red/trial12.png,,,1,9,redHorizontal,p,36,20,Female,2021-02-20_15h26.20.089,exp11,2020.2.6,Win32,60,IwAR01LG4lvF9DQSciDRm8DykE2J6eNQ48SZDoCQps7YCXMo7pGu0wmuHUyYw,,,,,,,,,,,
,,,,,,,,,,,,,,a,1,0.768,space,0.765,0,39,39,153,1,0_targ_10_dist_red/trial4.png,,,0,10,redHorizontal,a,36,20,Female,2021-02-20_15h26.20.089,exp11,2020.2.6,Win32,60,IwAR01LG4lvF9DQSciDRm8DykE2J6eNQ48SZDoCQps7YCXMo7pGu0wmuHUyYw,,,,,,,,,,,
,,,,,,,,,,,,,,p,1,0.82,space,0.732,0,40,40,64,1,9_dist_red/trial15.png,,,1,9,redHorizontal,p,36,20,Female,2021-02-20_15h26.20.089,exp11,2020.2.6,Win32,60,IwAR01LG4lvF9DQSciDRm8DykE2J6eNQ48SZDoCQps7YCXMo7pGu0wmuHUyYw,,,,,,,,,,,
,,,,,,,,,,,,,,a,1,0.797,space,0.567,0,41,41,169,1,0_targ_10_dist_red/trial20.png,,,0,10,redHorizontal,a,36,20,Female,2021-02-20_15h26.20.089,exp11,2020.2.6,Win32,60,IwAR01LG4lvF9DQSciDRm8DykE2J6eNQ48SZDoCQps7YCXMo7pGu0wmuHUyYw,,,,,,,,,,,
,,,,,,,,,,,,,,a,1,0.881,space,0.422,0,42,42,186,1,0_targ_16_dist_red/trial12.png,,,0,16,redHorizontal,a,36,20,Female,2021-02-20_15h26.20.089,exp11,2020.2.6,Win32,60,IwAR01LG4lvF9DQSciDRm8DykE2J6eNQ48SZDoCQps7YCXMo7pGu0wmuHUyYw,,,,,,,,,,,
,,,,,,,,,,,,,,p,1,0.538,space,0.417,0,43,43,10,1,0_dist_red/trial11.png,,,1,0,redHorizontal,p,36,20,Female,2021-02-20_15h26.20.089,exp11,2020.2.6,Win32,60,IwAR01LG4lvF9DQSciDRm8DykE2J6eNQ48SZDoCQps7YCXMo7pGu0wmuHUyYw,,,,,,,,,,,
,,,,,,,,,,,,,,p,1,0.771,space,0.756,0,44,44,88,1,15_dist_red/trial14.png,,,1,15,redHorizontal,p,36,20,Female,2021-02-20_15h26.20.089,exp11,2020.2.6,Win32,60,IwAR01LG4lvF9DQSciDRm8DykE2J6eNQ48SZDoCQps7YCXMo7pGu0wmuHUyYw,,,,,,,,,,,
,,,,,,,,,,,,,,a,1,0.754,space,0.534,0,45,45,165,1,0_targ_10_dist_red/trial16.png,,,0,10,redHorizontal,a,36,20,Female,2021-02-20_15h26.20.089,exp11,2020.2.6,Win32,60,IwAR01LG4lvF9DQSciDRm8DykE2J6eNQ48SZDoCQps7YCXMo7pGu0wmuHUyYw,,,,,,,,,,,
,,,,,,,,,,,,,,p,1,0.686,space,0.466,0,46,46,56,1,9_dist_red/trial7.png,,,1,9,redHorizontal,p,36,20,Female,2021-02-20_15h26.20.089,exp11,2020.2.6,Win32,60,IwAR01LG4lvF9DQSciDRm8DykE2J6eNQ48SZDoCQps7YCXMo7pGu0wmuHUyYw,,,,,,,,,,,
,,,,,,,,,,,,,,a,1,0.808,space,0.305,0,47,47,128,1,0_targ_4_dist_red/trial4.png,,,0,4,redHorizontal,a,36,20,Female,2021-02-20_15h26.20.089,exp11,2020.2.6,Win32,60,IwAR01LG4lvF9DQSciDRm8DykE2J6eNQ48SZDoCQps7YCXMo7pGu0wmuHUyYw,,,,,,,,,,,
,,,,,,,,,,,,,,a,1,0.853,space,0.205,0,48,48,160,1,0_targ_10_dist_red/trial11.png,,,0,10,redHorizontal,a,36,20,Female,2021-02-20_15h26.20.089,exp11,2020.2.6,Win32,60,IwAR01LG4lvF9DQSciDRm8DykE2J6eNQ48SZDoCQps7YCXMo7pGu0wmuHUyYw,,,,,,,,,,,
,,,,,,,,,,,,,,p,1,0.971,space,1.167,0,49,49,3,1,0_dist_red/trial4.png,,,1,0,redHorizontal,p,36,20,Female,2021-02-20_15h26.20.089,exp11,2020.2.6,Win32,60,IwAR01LG4lvF9DQSciDRm8DykE2J6eNQ48SZDoCQps7YCXMo7pGu0wmuHUyYw,,,,,,,,,,,
,,,,,,,,,,,,,,a,0,0.587,space,0.783,0,50,50,52,1,9_dist_red/trial3.png,,,1,9,redHorizontal,p,36,20,Female,2021-02-20_15h26.20.089,exp11,2020.2.6,Win32,60,IwAR01LG4lvF9DQSciDRm8DykE2J6eNQ48SZDoCQps7YCXMo7pGu0wmuHUyYw,,,,,,,,,,,
,,,,,,,,,,,,,,a,1,1.003,space,0.717,0,51,51,146,1,0_targ_4_dist_red/trial22.png,,,0,4,redHorizontal,a,36,20,Female,2021-02-20_15h26.20.089,exp11,2020.2.6,Win32,60,IwAR01LG4lvF9DQSciDRm8DykE2J6eNQ48SZDoCQps7YCXMo7pGu0wmuHUyYw,,,,,,,,,,,
,,,,,,,,,,,,,,a,1,0.652,space,0.387,0,52,52,113,1,0_targ_1_dist_red/trial14.png,,,0,1,redHorizontal,a,36,20,Female,2021-02-20_15h26.20.089,exp11,2020.2.6,Win32,60,IwAR01LG4lvF9DQSciDRm8DykE2J6eNQ48SZDoCQps7YCXMo7pGu0wmuHUyYw,,,,,,,,,,,
,,,,,,,,,,,,,,a,1,0.971,space,0.499,0,53,53,151,1,0_targ_10_dist_red/trial2.png,,,0,10,redHorizontal,a,36,20,Female,2021-02-20_15h26.20.089,exp11,2020.2.6,Win32,60,IwAR01LG4lvF9DQSciDRm8DykE2J6eNQ48SZDoCQps7YCXMo7pGu0wmuHUyYw,,,,,,,,,,,
,,,,,,,,,,,,,,a,1,0.686,space,0.554,0,54,54,124,1,0_targ_1_dist_red/trial25.png,,,0,1,redHorizontal,a,36,20,Female,2021-02-20_15h26.20.089,exp11,2020.2.6,Win32,60,IwAR01LG4lvF9DQSciDRm8DykE2J6eNQ48SZDoCQps7YCXMo7pGu0wmuHUyYw,,,,,,,,,,,
,,,,,,,,,,,,,,a,1,0.623,space,0.417,0,55,55,150,1,0_targ_10_dist_red/trial1.png,,,0,10,redHorizontal,a,36,20,Female,2021-02-20_15h26.20.089,exp11,2020.2.6,Win32,60,IwAR01LG4lvF9DQSciDRm8DykE2J6eNQ48SZDoCQps7YCXMo7pGu0wmuHUyYw,,,,,,,,,,,
,,,,,,,,,,,,,,a,1,0.824,space,1.022,0,56,56,156,1,0_targ_10_dist_red/trial7.png,,,0,10,redHorizontal,a,36,20,Female,2021-02-20_15h26.20.089,exp11,2020.2.6,Win32,60,IwAR01LG4lvF9DQSciDRm8DykE2J6eNQ48SZDoCQps7YCXMo7pGu0wmuHUyYw,,,,,,,,,,,
,,,,,,,,,,,,,,a,1,0.603,space,0.917,0,57,57,119,1,0_targ_1_dist_red/trial20.png,,,0,1,redHorizontal,a,36,20,Female,2021-02-20_15h26.20.089,exp11,2020.2.6,Win32,60,IwAR01LG4lvF9DQSciDRm8DykE2J6eNQ48SZDoCQps7YCXMo7pGu0wmuHUyYw,,,,,,,,,,,
,,,,,,,,,,,,,,a,1,1.121,space,0.684,0,58,58,197,1,0_targ_16_dist_red/trial23.png,,,0,16,redHorizontal,a,36,20,Female,2021-02-20_15h26.20.089,exp11,2020.2.6,Win32,60,IwAR01LG4lvF9DQSciDRm8DykE2J6eNQ48SZDoCQps7YCXMo7pGu0wmuHUyYw,,,,,,,,,,,
,,,,,,,,,,,,,,a,1,1.651,space,0.568,0,59,59,162,1,0_targ_10_dist_red/trial13.png,,,0,10,redHorizontal,a,36,20,Female,2021-02-20_15h26.20.089,exp11,2020.2.6,Win32,60,IwAR01LG4lvF9DQSciDRm8DykE2J6eNQ48SZDoCQps7YCXMo7pGu0wmuHUyYw,,,,,,,,,,,
,,,,,,,,,,,,,,a,1,0.575,space,0.553,0,60,60,110,1,0_targ_1_dist_red/trial11.png,,,0,1,redHorizontal,a,36,20,Female,2021-02-20_15h26.20.089,exp11,2020.2.6,Win32,60,IwAR01LG4lvF9DQSciDRm8DykE2J6eNQ48SZDoCQps7YCXMo7pGu0wmuHUyYw,,,,,,,,,,,
,,,,,,,,,,,,,,a,1,0.741,space,0.549,0,61,61,175,1,0_targ_16_dist_red/trial1.png,,,0,16,redHorizontal,a,36,20,Female,2021-02-20_15h26.20.089,exp11,2020.2.6,Win32,60,IwAR01LG4lvF9DQSciDRm8DykE2J6eNQ48SZDoCQps7YCXMo7pGu0wmuHUyYw,,,,,,,,,,,
,,,,,,,,,,,,,,p,1,1.122,space,0.586,0,62,62,12,1,0_dist_red/trial13.png,,,1,0,redHorizontal,p,36,20,Female,2021-02-20_15h26.20.089,exp11,2020.2.6,Win32,60,IwAR01LG4lvF9DQSciDRm8DykE2J6eNQ48SZDoCQps7YCXMo7pGu0wmuHUyYw,,,,,,,,,,,
,,,,,,,,,,,,,,a,1,0.932,space,0.502,0,63,63,139,1,0_targ_4_dist_red/trial15.png,,,0,4,redHorizontal,a,36,20,Female,2021-02-20_15h26.20.089,exp11,2020.2.6,Win32,60,IwAR01LG4lvF9DQSciDRm8DykE2J6eNQ48SZDoCQps7YCXMo7pGu0wmuHUyYw,,,,,,,,,,,
,,,,,,,,,,,,,,a,1,0.637,space,0.4,0,64,64,105,1,0_targ_1_dist_red/trial6.png,,,0,1,redHorizontal,a,36,20,Female,2021-02-20_15h26.20.089,exp11,2020.2.6,Win32,60,IwAR01LG4lvF9DQSciDRm8DykE2J6eNQ48SZDoCQps7YCXMo7pGu0wmuHUyYw,,,,,,,,,,,
,,,,,,,,,,,,,,a,1,0.435,space,0.417,0,65,65,109,1,0_targ_1_dist_red/trial10.png,,,0,1,redHorizontal,a,36,20,Female,2021-02-20_15h26.20.089,exp11,2020.2.6,Win32,60,IwAR01LG4lvF9DQSciDRm8DykE2J6eNQ48SZDoCQps7YCXMo7pGu0wmuHUyYw,,,,,,,,,,,
,,,,,,,,,,,,,,a,1,0.536,space,0.316,0,66,66,138,1,0_targ_4_dist_red/trial14.png,,,0,4,redHorizontal,a,36,20,Female,2021-02-20_15h26.20.089,exp11,2020.2.6,Win32,60,IwAR01LG4lvF9DQSciDRm8DykE2J6eNQ48SZDoCQps7YCXMo7pGu0wmuHUyYw,,,,,,,,,,,
,,,,,,,,,,,,,,a,0,0.382,space,0.688,0,67,67,13,1,0_dist_red/trial14.png,,,1,0,redHorizontal,p,36,20,Female,2021-02-20_15h26.20.089,exp11,2020.2.6,Win32,60,IwAR01LG4lvF9DQSciDRm8DykE2J6eNQ48SZDoCQps7YCXMo7pGu0wmuHUyYw,,,,,,,,,,,
,,,,,,,,,,,,,,a,1,0.668,space,0.531,0,68,68,126,1,0_targ_4_dist_red/trial2.png,,,0,4,redHorizontal,a,36,20,Female,2021-02-20_15h26.20.089,exp11,2020.2.6,Win32,60,IwAR01LG4lvF9DQSciDRm8DykE2J6eNQ48SZDoCQps7YCXMo7pGu0wmuHUyYw,,,,,,,,,,,
,,,,,,,,,,,,,,a,1,0.801,space,0.367,0,69,69,121,1,0_targ_1_dist_red/trial22.png,,,0,1,redHorizontal,a,36,20,Female,2021-02-20_15h26.20.089,exp11,2020.2.6,Win32,60,IwAR01LG4lvF9DQSciDRm8DykE2J6eNQ48SZDoCQps7YCXMo7pGu0wmuHUyYw,,,,,,,,,,,
,,,,,,,,,,,,,,p,1,0.935,space,0.55,0,70,70,77,1,15_dist_red/trial3.png,,,1,15,redHorizontal,p,36,20,Female,2021-02-20_15h26.20.089,exp11,2020.2.6,Win32,60,IwAR01LG4lvF9DQSciDRm8DykE2J6eNQ48SZDoCQps7YCXMo7pGu0wmuHUyYw,,,,,,,,,,,
,,,,,,,,,,,,,,p,1,0.651,space,0.42,0,71,71,71,1,9_dist_red/trial22.png,,,1,9,redHorizontal,p,36,20,Female,2021-02-20_15h26.20.089,exp11,2020.2.6,Win32,60,IwAR01LG4lvF9DQSciDRm8DykE2J6eNQ48SZDoCQps7YCXMo7pGu0wmuHUyYw,,,,,,,,,,,
,,,,,,,,,,,,,,a,1,0.686,space,0.417,0,72,72,111,1,0_targ_1_dist_red/trial12.png,,,0,1,redHorizontal,a,36,20,Female,2021-02-20_15h26.20.089,exp11,2020.2.6,Win32,60,IwAR01LG4lvF9DQSciDRm8DykE2J6eNQ48SZDoCQps7YCXMo7pGu0wmuHUyYw,,,,,,,,,,,
,,,,,,,,,,,,,,p,1,1.167,space,0.38,0,73,73,74,1,9_dist_red/trial25.png,,,1,9,redHorizontal,p,36,20,Female,2021-02-20_15h26.20.089,exp11,2020.2.6,Win32,60,IwAR01LG4lvF9DQSciDRm8DykE2J6eNQ48SZDoCQps7YCXMo7pGu0wmuHUyYw,,,,,,,,,,,
,,,,,,,,,,,,,,a,1,0.672,space,0.349,0,74,74,133,1,0_targ_4_dist_red/trial9.png,,,0,4,redHorizontal,a,36,20,Female,2021-02-20_15h26.20.089,exp11,2020.2.6,Win32,60,IwAR01LG4lvF9DQSciDRm8DykE2J6eNQ48SZDoCQps7YCXMo7pGu0wmuHUyYw,,,,,,,,,,,
,,,,,,,,,,,,,,a,1,0.92,space,0.367,0,75,75,199,1,0_targ_16_dist_red/trial25.png,,,0,16,redHorizontal,a,36,20,Female,2021-02-20_15h26.20.089,exp11,2020.2.6,Win32,60,IwAR01LG4lvF9DQSciDRm8DykE2J6eNQ48SZDoCQps7YCXMo7pGu0wmuHUyYw,,,,,,,,,,,
,,,,,,,,,,,,,,a,1,0.905,space,0.398,0,76,76,170,1,0_targ_10_dist_red/trial21.png,,,0,10,redHorizontal,a,36,20,Female,2021-02-20_15h26.20.089,exp11,2020.2.6,Win32,60,IwAR01LG4lvF9DQSciDRm8DykE2J6eNQ48SZDoCQps7YCXMo7pGu0wmuHUyYw,,,,,,,,,,,
,,,,,,,,,,,,,,p,1,0.753,space,0.424,0,77,77,50,1,9_dist_red/trial1.png,,,1,9,redHorizontal,p,36,20,Female,2021-02-20_15h26.20.089,exp11,2020.2.6,Win32,60,IwAR01LG4lvF9DQSciDRm8DykE2J6eNQ48SZDoCQps7YCXMo7pGu0wmuHUyYw,,,,,,,,,,,
,,,,,,,,,,,,,,p,1,0.67,space,0.368,0,78,78,98,1,15_dist_red/trial24.png,,,1,15,redHorizontal,p,36,20,Female,2021-02-20_15h26.20.089,exp11,2020.2.6,Win32,60,IwAR01LG4lvF9DQSciDRm8DykE2J6eNQ48SZDoCQps7YCXMo7pGu0wmuHUyYw,,,,,,,,,,,
,,,,,,,,,,,,,,a,1,0.726,space,0.306,0,79,79,179,1,0_targ_16_dist_red/trial5.png,,,0,16,redHorizontal,a,36,20,Female,2021-02-20_15h26.20.089,exp11,2020.2.6,Win32,60,IwAR01LG4lvF9DQSciDRm8DykE2J6eNQ48SZDoCQps7YCXMo7pGu0wmuHUyYw,,,,,,,,,,,
,,,,,,,,,,,,,,a,1,1.167,space,0.237,0,80,80,176,1,0_targ_16_dist_red/trial2.png,,,0,16,redHorizontal,a,36,20,Female,2021-02-20_15h26.20.089,exp11,2020.2.6,Win32,60,IwAR01LG4lvF9DQSciDRm8DykE2J6eNQ48SZDoCQps7YCXMo7pGu0wmuHUyYw,,,,,,,,,,,
,,,,,,,,,,,,,,p,1,0.853,space,0.4,0,81,81,35,1,3_dist_red/trial11.png,,,1,3,redHorizontal,p,36,20,Female,2021-02-20_15h26.20.089,exp11,2020.2.6,Win32,60,IwAR01LG4lvF9DQSciDRm8DykE2J6eNQ48SZDoCQps7YCXMo7pGu0wmuHUyYw,,,,,,,,,,,
,,,,,,,,,,,,,,p,1,0.523,space,0.318,0,82,82,14,1,0_dist_red/trial15.png,,,1,0,redHorizontal,p,36,20,Female,2021-02-20_15h26.20.089,exp11,2020.2.6,Win32,60,IwAR01LG4lvF9DQSciDRm8DykE2J6eNQ48SZDoCQps7YCXMo7pGu0wmuHUyYw,,,,,,,,,,,
,,,,,,,,,,,,,,p,1,0.92,space,0.257,0,83,83,60,1,9_dist_red/trial11.png,,,1,9,redHorizontal,p,36,20,Female,2021-02-20_15h26.20.089,exp11,2020.2.6,Win32,60,IwAR01LG4lvF9DQSciDRm8DykE2J6eNQ48SZDoCQps7YCXMo7pGu0wmuHUyYw,,,,,,,,,,,
,,,,,,,,,,,,,,a,1,1.154,space,0.714,0,84,84,168,1,0_targ_10_dist_red/trial19.png,,,0,10,redHorizontal,a,36,20,Female,2021-02-20_15h26.20.089,exp11,2020.2.6,Win32,60,IwAR01LG4lvF9DQSciDRm8DykE2J6eNQ48SZDoCQps7YCXMo7pGu0wmuHUyYw,,,,,,,,,,,
,,,,,,,,,,,,,,a,0,0.635,space,3.727,0,85,85,53,1,9_dist_red/trial4.png,,,1,9,redHorizontal,p,36,20,Female,2021-02-20_15h26.20.089,exp11,2020.2.6,Win32,60,IwAR01LG4lvF9DQSciDRm8DykE2J6eNQ48SZDoCQps7YCXMo7pGu0wmuHUyYw,,,,,,,,,,,
,,,,,,,,,,,,,,a,1,0.741,space,0.153,0,86,86,120,1,0_targ_1_dist_red/trial21.png,,,0,1,redHorizontal,a,36,20,Female,2021-02-20_15h26.20.089,exp11,2020.2.6,Win32,60,IwAR01LG4lvF9DQSciDRm8DykE2J6eNQ48SZDoCQps7YCXMo7pGu0wmuHUyYw,,,,,,,,,,,
,,,,,,,,,,,,,,a,1,1.219,space,0.135,0,87,87,184,1,0_targ_16_dist_red/trial10.png,,,0,16,redHorizontal,a,36,20,Female,2021-02-20_15h26.20.089,exp11,2020.2.6,Win32,60,IwAR01LG4lvF9DQSciDRm8DykE2J6eNQ48SZDoCQps7YCXMo7pGu0wmuHUyYw,,,,,,,,,,,
,,,,,,,,,,,,,,a,1,0.99,space,0.172,0,88,88,118,1,0_targ_1_dist_red/trial19.png,,,0,1,redHorizontal,a,36,20,Female,2021-02-20_15h26.20.089,exp11,2020.2.6,Win32,60,IwAR01LG4lvF9DQSciDRm8DykE2J6eNQ48SZDoCQps7YCXMo7pGu0wmuHUyYw,,,,,,,,,,,
,,,,,,,,,,,,,,a,1,0.886,space,0.187,0,89,89,195,1,0_targ_16_dist_red/trial21.png,,,0,16,redHorizontal,a,36,20,Female,2021-02-20_15h26.20.089,exp11,2020.2.6,Win32,60,IwAR01LG4lvF9DQSciDRm8DykE2J6eNQ48SZDoCQps7YCXMo7pGu0wmuHUyYw,,,,,,,,,,,
,,,,,,,,,,,,,,p,1,0.693,space,0.47,0,90,90,15,1,0_dist_red/trial16.png,,,1,0,redHorizontal,p,36,20,Female,2021-02-20_15h26.20.089,exp11,2020.2.6,Win32,60,IwAR01LG4lvF9DQSciDRm8DykE2J6eNQ48SZDoCQps7YCXMo7pGu0wmuHUyYw,,,,,,,,,,,
,,,,,,,,,,,,,,p,1,0.522,space,0.35,0,91,91,0,1,0_dist_red/trial1.png,,,1,0,redHorizontal,p,36,20,Female,2021-02-20_15h26.20.089,exp11,2020.2.6,Win32,60,IwAR01LG4lvF9DQSciDRm8DykE2J6eNQ48SZDoCQps7YCXMo7pGu0wmuHUyYw,,,,,,,,,,,
,,,,,,,,,,,,,,a,1,0.634,space,0.417,0,92,92,177,1,0_targ_16_dist_red/trial3.png,,,0,16,redHorizontal,a,36,20,Female,2021-02-20_15h26.20.089,exp11,2020.2.6,Win32,60,IwAR01LG4lvF9DQSciDRm8DykE2J6eNQ48SZDoCQps7YCXMo7pGu0wmuHUyYw,,,,,,,,,,,
,,,,,,,,,,,,,,a,1,0.549,space,0.421,0,93,93,104,1,0_targ_1_dist_red/trial5.png,,,0,1,redHorizontal,a,36,20,Female,2021-02-20_15h26.20.089,exp11,2020.2.6,Win32,60,IwAR01LG4lvF9DQSciDRm8DykE2J6eNQ48SZDoCQps7YCXMo7pGu0wmuHUyYw,,,,,,,,,,,
,,,,,,,,,,,,,,a,1,0.736,space,0.472,0,94,94,123,1,0_targ_1_dist_red/trial24.png,,,0,1,redHorizontal,a,36,20,Female,2021-02-20_15h26.20.089,exp11,2020.2.6,Win32,60,IwAR01LG4lvF9DQSciDRm8DykE2J6eNQ48SZDoCQps7YCXMo7pGu0wmuHUyYw,,,,,,,,,,,
,,,,,,,,,,,,,,a,1,0.64,space,0.333,0,95,95,136,1,0_targ_4_dist_red/trial12.png,,,0,4,redHorizontal,a,36,20,Female,2021-02-20_15h26.20.089,exp11,2020.2.6,Win32,60,IwAR01LG4lvF9DQSciDRm8DykE2J6eNQ48SZDoCQps7YCXMo7pGu0wmuHUyYw,,,,,,,,,,,
,,,,,,,,,,,,,,p,1,0.885,space,0.284,0,96,96,45,1,3_dist_red/trial21.png,,,1,3,redHorizontal,p,36,20,Female,2021-02-20_15h26.20.089,exp11,2020.2.6,Win32,60,IwAR01LG4lvF9DQSciDRm8DykE2J6eNQ48SZDoCQps7YCXMo7pGu0wmuHUyYw,,,,,,,,,,,
,,,,,,,,,,,,,,p,1,0.581,space,0.316,0,97,97,5,1,0_dist_red/trial6.png,,,1,0,redHorizontal,p,36,20,Female,2021-02-20_15h26.20.089,exp11,2020.2.6,Win32,60,IwAR01LG4lvF9DQSciDRm8DykE2J6eNQ48SZDoCQps7YCXMo7pGu0wmuHUyYw,,,,,,,,,,,
,,,,,,,,,,,,,,a,1,0.798,space,0.223,0,98,98,163,1,0_targ_10_dist_red/trial14.png,,,0,10,redHorizontal,a,36,20,Female,2021-02-20_15h26.20.089,exp11,2020.2.6,Win32,60,IwAR01LG4lvF9DQSciDRm8DykE2J6eNQ48SZDoCQps7YCXMo7pGu0wmuHUyYw,,,,,,,,,,,
,,,,,,,,,,,,,,a,1,0.572,space,0.154,0,99,99,144,1,0_targ_4_dist_red/trial20.png,,,0,4,redHorizontal,a,36,20,Female,2021-02-20_15h26.20.089,exp11,2020.2.6,Win32,60,IwAR01LG4lvF9DQSciDRm8DykE2J6eNQ48SZDoCQps7YCXMo7pGu0wmuHUyYw,,,,,,,,,,,
,,,,,,,,,,,,,,p,1,0.773,space,0.133,0,100,100,66,1,9_dist_red/trial17.png,,,1,9,redHorizontal,p,36,20,Female,2021-02-20_15h26.20.089,exp11,2020.2.6,Win32,60,IwAR01LG4lvF9DQSciDRm8DykE2J6eNQ48SZDoCQps7YCXMo7pGu0wmuHUyYw,,,,,,,,,,,
,,,,,,,,,,,,,,a,1,0.835,space,0.133,0,101,101,164,1,0_targ_10_dist_red/trial15.png,,,0,10,redHorizontal,a,36,20,Female,2021-02-20_15h26.20.089,exp11,2020.2.6,Win32,60,IwAR01LG4lvF9DQSciDRm8DykE2J6eNQ48SZDoCQps7YCXMo7pGu0wmuHUyYw,,,,,,,,,,,
,,,,,,,,,,,,,,p,1,0.692,space,0.12,0,102,102,92,1,15_dist_red/trial18.png,,,1,15,redHorizontal,p,36,20,Female,2021-02-20_15h26.20.089,exp11,2020.2.6,Win32,60,IwAR01LG4lvF9DQSciDRm8DykE2J6eNQ48SZDoCQps7YCXMo7pGu0wmuHUyYw,,,,,,,,,,,
,,,,,,,,,,,,,,p,1,0.679,space,0.101,0,103,103,67,1,9_dist_red/trial18.png,,,1,9,redHorizontal,p,36,20,Female,2021-02-20_15h26.20.089,exp11,2020.2.6,Win32,60,IwAR01LG4lvF9DQSciDRm8DykE2J6eNQ48SZDoCQps7YCXMo7pGu0wmuHUyYw,,,,,,,,,,,
,,,,,,,,,,,,,,p,1,0.637,space,0.065,0,104,104,4,1,0_dist_red/trial5.png,,,1,0,redHorizontal,p,36,20,Female,2021-02-20_15h26.20.089,exp11,2020.2.6,Win32,60,IwAR01LG4lvF9DQSciDRm8DykE2J6eNQ48SZDoCQps7YCXMo7pGu0wmuHUyYw,,,,,,,,,,,
,,,,,,,,,,,,,,a,1,0.736,space,0.101,0,105,105,135,1,0_targ_4_dist_red/trial11.png,,,0,4,redHorizontal,a,36,20,Female,2021-02-20_15h26.20.089,exp11,2020.2.6,Win32,60,IwAR01LG4lvF9DQSciDRm8DykE2J6eNQ48SZDoCQps7YCXMo7pGu0wmuHUyYw,,,,,,,,,,,
,,,,,,,,,,,,,,a,1,0.924,space,0.082,0,106,106,180,1,0_targ_16_dist_red/trial6.png,,,0,16,redHorizontal,a,36,20,Female,2021-02-20_15h26.20.089,exp11,2020.2.6,Win32,60,IwAR01LG4lvF9DQSciDRm8DykE2J6eNQ48SZDoCQps7YCXMo7pGu0wmuHUyYw,,,,,,,,,,,
,,,,,,,,,,,,,,a,1,0.818,space,0.067,0,107,107,100,1,0_targ_1_dist_red/trial1.png,,,0,1,redHorizontal,a,36,20,Female,2021-02-20_15h26.20.089,exp11,2020.2.6,Win32,60,IwAR01LG4lvF9DQSciDRm8DykE2J6eNQ48SZDoCQps7YCXMo7pGu0wmuHUyYw,,,,,,,,,,,
,,,,,,,,,,,,,,p,1,0.819,space,0.055,0,108,108,62,1,9_dist_red/trial13.png,,,1,9,redHorizontal,p,36,20,Female,2021-02-20_15h26.20.089,exp11,2020.2.6,Win32,60,IwAR01LG4lvF9DQSciDRm8DykE2J6eNQ48SZDoCQps7YCXMo7pGu0wmuHUyYw,,,,,,,,,,,
,,,,,,,,,,,,,,a,1,0.969,space,0.1,0,109,109,194,1,0_targ_16_dist_red/trial20.png,,,0,16,redHorizontal,a,36,20,Female,2021-02-20_15h26.20.089,exp11,2020.2.6,Win32,60,IwAR01LG4lvF9DQSciDRm8DykE2J6eNQ48SZDoCQps7YCXMo7pGu0wmuHUyYw,,,,,,,,,,,
,,,,,,,,,,,,,,a,1,0.685,space,0.069,0,110,110,161,1,0_targ_10_dist_red/trial12.png,,,0,10,redHorizontal,a,36,20,Female,2021-02-20_15h26.20.089,exp11,2020.2.6,Win32,60,IwAR01LG4lvF9DQSciDRm8DykE2J6eNQ48SZDoCQps7YCXMo7pGu0wmuHUyYw,,,,,,,,,,,
,,,,,,,,,,,,,,p,1,0.752,space,0.033,0,111,111,97,1,15_dist_red/trial23.png,,,1,15,redHorizontal,p,36,20,Female,2021-02-20_15h26.20.089,exp11,2020.2.6,Win32,60,IwAR01LG4lvF9DQSciDRm8DykE2J6eNQ48SZDoCQps7YCXMo7pGu0wmuHUyYw,,,,,,,,,,,
,,,,,,,,,,,,,,p,1,0.952,space,0.05,0,112,112,29,1,3_dist_red/trial5.png,,,1,3,redHorizontal,p,36,20,Female,2021-02-20_15h26.20.089,exp11,2020.2.6,Win32,60,IwAR01LG4lvF9DQSciDRm8DykE2J6eNQ48SZDoCQps7YCXMo7pGu0wmuHUyYw,,,,,,,,,,,
,,,,,,,,,,,,,,a,1,1.452,space,0.004,0,113,113,189,1,0_targ_16_dist_red/trial15.png,,,0,16,redHorizontal,a,36,20,Female,2021-02-20_15h26.20.089,exp11,2020.2.6,Win32,60,IwAR01LG4lvF9DQSciDRm8DykE2J6eNQ48SZDoCQps7YCXMo7pGu0wmuHUyYw,,,,,,,,,,,
,,,,,,,,,,,,,,a,1,1.268,space,0.018,0,114,114,185,1,0_targ_16_dist_red/trial11.png,,,0,16,redHorizontal,a,36,20,Female,2021-02-20_15h26.20.089,exp11,2020.2.6,Win32,60,IwAR01LG4lvF9DQSciDRm8DykE2J6eNQ48SZDoCQps7YCXMo7pGu0wmuHUyYw,,,,,,,,,,,
,,,,,,,,,,,,,,a,1,0.802,space,0.086,0,115,115,116,1,0_targ_1_dist_red/trial17.png,,,0,1,redHorizontal,a,36,20,Female,2021-02-20_15h26.20.089,exp11,2020.2.6,Win32,60,IwAR01LG4lvF9DQSciDRm8DykE2J6eNQ48SZDoCQps7YCXMo7pGu0wmuHUyYw,,,,,,,,,,,
,,,,,,,,,,,,,,p,1,1.02,space,0.123,0,116,116,78,1,15_dist_red/trial4.png,,,1,15,redHorizontal,p,36,20,Female,2021-02-20_15h26.20.089,exp11,2020.2.6,Win32,60,IwAR01LG4lvF9DQSciDRm8DykE2J6eNQ48SZDoCQps7YCXMo7pGu0wmuHUyYw,,,,,,,,,,,
,,,,,,,,,,,,,,a,1,0.933,space,0.016,0,117,117,115,1,0_targ_1_dist_red/trial6.png,,,0,1,redHorizontal,a,36,20,Female,2021-02-20_15h26.20.089,exp11,2020.2.6,Win32,60,IwAR01LG4lvF9DQSciDRm8DykE2J6eNQ48SZDoCQps7YCXMo7pGu0wmuHUyYw,,,,,,,,,,,
,,,,,,,,,,,,,,a,1,0.717,space,0.091,0,118,118,106,1,0_targ_1_dist_red/trial7.png,,,0,1,redHorizontal,a,36,20,Female,2021-02-20_15h26.20.089,exp11,2020.2.6,Win32,60,IwAR01LG4lvF9DQSciDRm8DykE2J6eNQ48SZDoCQps7YCXMo7pGu0wmuHUyYw,,,,,,,,,,,
,,,,,,,,,,,,,,p,1,1.072,space,0.05,0,119,119,69,1,9_dist_red/trial20.png,,,1,9,redHorizontal,p,36,20,Female,2021-02-20_15h26.20.089,exp11,2020.2.6,Win32,60,IwAR01LG4lvF9DQSciDRm8DykE2J6eNQ48SZDoCQps7YCXMo7pGu0wmuHUyYw,,,,,,,,,,,
,,,,,,,,,,,,,,p,1,1.005,space,0.02,0,120,120,46,1,3_dist_red/trial22.png,,,1,3,redHorizontal,p,36,20,Female,2021-02-20_15h26.20.089,exp11,2020.2.6,Win32,60,IwAR01LG4lvF9DQSciDRm8DykE2J6eNQ48SZDoCQps7YCXMo7pGu0wmuHUyYw,,,,,,,,,,,
,,,,,,,,,,,,,,p,1,0.741,space,0.041,0,121,121,19,1,0_dist_red/trial20.png,,,1,0,redHorizontal,p,36,20,Female,2021-02-20_15h26.20.089,exp11,2020.2.6,Win32,60,IwAR01LG4lvF9DQSciDRm8DykE2J6eNQ48SZDoCQps7YCXMo7pGu0wmuHUyYw,,,,,,,,,,,
,,,,,,,,,,,,,,a,1,0.867,space,0.066,0,122,122,198,1,0_targ_16_dist_red/trial24.png,,,0,16,redHorizontal,a,36,20,Female,2021-02-20_15h26.20.089,exp11,2020.2.6,Win32,60,IwAR01LG4lvF9DQSciDRm8DykE2J6eNQ48SZDoCQps7YCXMo7pGu0wmuHUyYw,,,,,,,,,,,
,,,,,,,,,,,,,,p,1,0.751,space,0.023,0,123,123,31,1,3_dist_red/trial7.png,,,1,3,redHorizontal,p,36,20,Female,2021-02-20_15h26.20.089,exp11,2020.2.6,Win32,60,IwAR01LG4lvF9DQSciDRm8DykE2J6eNQ48SZDoCQps7YCXMo7pGu0wmuHUyYw,,,,,,,,,,,
,,,,,,,,,,,,,,a,1,0.807,space,0.02,0,124,124,143,1,0_targ_4_dist_red/trial19.png,,,0,4,redHorizontal,a,36,20,Female,2021-02-20_15h26.20.089,exp11,2020.2.6,Win32,60,IwAR01LG4lvF9DQSciDRm8DykE2J6eNQ48SZDoCQps7YCXMo7pGu0wmuHUyYw,,,,,,,,,,,
,,,,,,,,,,,,,,a,1,0.855,space,0.19,0,125,125,187,1,0_targ_16_dist_red/trial13.png,,,0,16,redHorizontal,a,36,20,Female,2021-02-20_15h26.20.089,exp11,2020.2.6,Win32,60,IwAR01LG4lvF9DQSciDRm8DykE2J6eNQ48SZDoCQps7YCXMo7pGu0wmuHUyYw,,,,,,,,,,,
,,,,,,,,,,,,,,p,1,1.219,space,0.034,0,126,126,44,1,3_dist_red/trial20.png,,,1,3,redHorizontal,p,36,20,Female,2021-02-20_15h26.20.089,exp11,2020.2.6,Win32,60,IwAR01LG4lvF9DQSciDRm8DykE2J6eNQ48SZDoCQps7YCXMo7pGu0wmuHUyYw,,,,,,,,,,,
,,,,,,,,,,,,,,a,1,0.823,space,0.066,0,127,127,141,1,0_targ_4_dist_red/trial17.png,,,0,4,redHorizontal,a,36,20,Female,2021-02-20_15h26.20.089,exp11,2020.2.6,Win32,60,IwAR01LG4lvF9DQSciDRm8DykE2J6eNQ48SZDoCQps7YCXMo7pGu0wmuHUyYw,,,,,,,,,,,
,,,,,,,,,,,,,,p,1,0.769,space,0.05,0,128,128,38,1,3_dist_red/trial14.png,,,1,3,redHorizontal,p,36,20,Female,2021-02-20_15h26.20.089,exp11,2020.2.6,Win32,60,IwAR01LG4lvF9DQSciDRm8DykE2J6eNQ48SZDoCQps7YCXMo7pGu0wmuHUyYw,,,,,,,,,,,
,,,,,,,,,,,,,,p,1,0.934,space,0.004,0,129,129,96,1,15_dist_red/trial22.png,,,1,15,redHorizontal,p,36,20,Female,2021-02-20_15h26.20.089,exp11,2020.2.6,Win32,60,IwAR01LG4lvF9DQSciDRm8DykE2J6eNQ48SZDoCQps7YCXMo7pGu0wmuHUyYw,,,,,,,,,,,
,,,,,,,,,,,,,,p,1,0.736,space,0.054,0,130,130,27,1,3_dist_red/trial3.png,,,1,3,redHorizontal,p,36,20,Female,2021-02-20_15h26.20.089,exp11,2020.2.6,Win32,60,IwAR01LG4lvF9DQSciDRm8DykE2J6eNQ48SZDoCQps7YCXMo7pGu0wmuHUyYw,,,,,,,,,,,
,,,,,,,,,,,,,,p,1,0.619,space,0.051,0,131,131,11,1,0_dist_red/trial12.png,,,1,0,redHorizontal,p,36,20,Female,2021-02-20_15h26.20.089,exp11,2020.2.6,Win32,60,IwAR01LG4lvF9DQSciDRm8DykE2J6eNQ48SZDoCQps7YCXMo7pGu0wmuHUyYw,,,,,,,,,,,
,,,,,,,,,,,,,,p,1,0.953,space,0.465,0,132,132,40,1,3_dist_red/trial16.png,,,1,3,redHorizontal,p,36,20,Female,2021-02-20_15h26.20.089,exp11,2020.2.6,Win32,60,IwAR01LG4lvF9DQSciDRm8DykE2J6eNQ48SZDoCQps7YCXMo7pGu0wmuHUyYw,,,,,,,,,,,
,,,,,,,,,,,,,,p,0,0.586,space,1.114,0,133,133,167,1,0_targ_10_dist_red/trial18.png,,,0,10,redHorizontal,a,36,20,Female,2021-02-20_15h26.20.089,exp11,2020.2.6,Win32,60,IwAR01LG4lvF9DQSciDRm8DykE2J6eNQ48SZDoCQps7YCXMo7pGu0wmuHUyYw,,,,,,,,,,,
,,,,,,,,,,,,,,a,1,0.72,space,0.098,0,134,134,137,1,0_targ_4_dist_red/trial13.png,,,0,4,redHorizontal,a,36,20,Female,2021-02-20_15h26.20.089,exp11,2020.2.6,Win32,60,IwAR01LG4lvF9DQSciDRm8DykE2J6eNQ48SZDoCQps7YCXMo7pGu0wmuHUyYw,,,,,,,,,,,
,,,,,,,,,,,,,,a,1,0.637,space,0.055,0,135,135,192,1,0_targ_16_dist_red/trial18.png,,,0,16,redHorizontal,a,36,20,Female,2021-02-20_15h26.20.089,exp11,2020.2.6,Win32,60,IwAR01LG4lvF9DQSciDRm8DykE2J6eNQ48SZDoCQps7YCXMo7pGu0wmuHUyYw,,,,,,,,,,,
,,,,,,,,,,,,,,a,1,0.664,space,0.151,0,136,136,103,1,0_targ_1_dist_red/trial4.png,,,0,1,redHorizontal,a,36,20,Female,2021-02-20_15h26.20.089,exp11,2020.2.6,Win32,60,IwAR01LG4lvF9DQSciDRm8DykE2J6eNQ48SZDoCQps7YCXMo7pGu0wmuHUyYw,,,,,,,,,,,
,,,,,,,,,,,,,,p,1,0.637,space,0.102,0,137,137,7,1,0_dist_red/trial8.png,,,1,0,redHorizontal,p,36,20,Female,2021-02-20_15h26.20.089,exp11,2020.2.6,Win32,60,IwAR01LG4lvF9DQSciDRm8DykE2J6eNQ48SZDoCQps7YCXMo7pGu0wmuHUyYw,,,,,,,,,,,
,,,,,,,,,,,,,,p,1,0.602,space,0.098,0,138,138,17,1,0_dist_red/trial18.png,,,1,0,redHorizontal,p,36,20,Female,2021-02-20_15h26.20.089,exp11,2020.2.6,Win32,60,IwAR01LG4lvF9DQSciDRm8DykE2J6eNQ48SZDoCQps7YCXMo7pGu0wmuHUyYw,,,,,,,,,,,
,,,,,,,,,,,,,,a,1,0.686,space,0.086,0,139,139,178,1,0_targ_16_dist_red/trial4.png,,,0,16,redHorizontal,a,36,20,Female,2021-02-20_15h26.20.089,exp11,2020.2.6,Win32,60,IwAR01LG4lvF9DQSciDRm8DykE2J6eNQ48SZDoCQps7YCXMo7pGu0wmuHUyYw,,,,,,,,,,,
,,,,,,,,,,,,,,p,1,0.787,space,0.039,0,140,140,93,1,15_dist_red/trial19.png,,,1,15,redHorizontal,p,36,20,Female,2021-02-20_15h26.20.089,exp11,2020.2.6,Win32,60,IwAR01LG4lvF9DQSciDRm8DykE2J6eNQ48SZDoCQps7YCXMo7pGu0wmuHUyYw,,,,,,,,,,,
,,,,,,,,,,,,,,a,1,0.806,space,0.017,0,141,141,158,1,0_targ_10_dist_red/trial9.png,,,0,10,redHorizontal,a,36,20,Female,2021-02-20_15h26.20.089,exp11,2020.2.6,Win32,60,IwAR01LG4lvF9DQSciDRm8DykE2J6eNQ48SZDoCQps7YCXMo7pGu0wmuHUyYw,,,,,,,,,,,
,,,,,,,,,,,,,,p,1,0.866,space,0.014,0,142,142,2,1,0_dist_red/trial3.png,,,1,0,redHorizontal,p,36,20,Female,2021-02-20_15h26.20.089,exp11,2020.2.6,Win32,60,IwAR01LG4lvF9DQSciDRm8DykE2J6eNQ48SZDoCQps7YCXMo7pGu0wmuHUyYw,,,,,,,,,,,
,,,,,,,,,,,,,,p,1,0.789,space,0,0,143,143,68,1,9_dist_red/trial19.png,,,1,9,redHorizontal,p,36,20,Female,2021-02-20_15h26.20.089,exp11,2020.2.6,Win32,60,IwAR01LG4lvF9DQSciDRm8DykE2J6eNQ48SZDoCQps7YCXMo7pGu0wmuHUyYw,,,,,,,,,,,
,,,,,,,,,,,,,,p,1,0.805,space,0.034,0,144,144,89,1,15_dist_red/trial15.png,,,1,15,redHorizontal,p,36,20,Female,2021-02-20_15h26.20.089,exp11,2020.2.6,Win32,60,IwAR01LG4lvF9DQSciDRm8DykE2J6eNQ48SZDoCQps7YCXMo7pGu0wmuHUyYw,,,,,,,,,,,
,,,,,,,,,,,,,,a,1,0.819,space,0.084,0,145,145,134,1,0_targ_4_dist_red/trial10.png,,,0,4,redHorizontal,a,36,20,Female,2021-02-20_15h26.20.089,exp11,2020.2.6,Win32,60,IwAR01LG4lvF9DQSciDRm8DykE2J6eNQ48SZDoCQps7YCXMo7pGu0wmuHUyYw,,,,,,,,,,,
,,,,,,,,,,,,,,a,0,0.935,space,0.156,0,146,146,86,1,15_dist_red/trial12.png,,,1,15,redHorizontal,p,36,20,Female,2021-02-20_15h26.20.089,exp11,2020.2.6,Win32,60,IwAR01LG4lvF9DQSciDRm8DykE2J6eNQ48SZDoCQps7YCXMo7pGu0wmuHUyYw,,,,,,,,,,,
,,,,,,,,,,,,,,a,1,0.785,space,0.031,0,147,147,188,1,0_targ_16_dist_red/trial14.png,,,0,16,redHorizontal,a,36,20,Female,2021-02-20_15h26.20.089,exp11,2020.2.6,Win32,60,IwAR01LG4lvF9DQSciDRm8DykE2J6eNQ48SZDoCQps7YCXMo7pGu0wmuHUyYw,,,,,,,,,,,
,,,,,,,,,,,,,,a,1,0.704,space,0.05,0,148,148,173,1,0_targ_10_dist_red/trial24.png,,,0,10,redHorizontal,a,36,20,Female,2021-02-20_15h26.20.089,exp11,2020.2.6,Win32,60,IwAR01LG4lvF9DQSciDRm8DykE2J6eNQ48SZDoCQps7YCXMo7pGu0wmuHUyYw,,,,,,,,,,,
,,,,,,,,,,,,,,p,1,0.812,space,0,0,149,149,32,1,3_dist_red/trial8.png,,,1,3,redHorizontal,p,36,20,Female,2021-02-20_15h26.20.089,exp11,2020.2.6,Win32,60,IwAR01LG4lvF9DQSciDRm8DykE2J6eNQ48SZDoCQps7YCXMo7pGu0wmuHUyYw,,,,,,,,,,,
,,,,,,,,,,,,,,a,1,0.819,space,0.072,0,150,150,190,1,0_targ_16_dist_red/trial16.png,,,0,16,redHorizontal,a,36,20,Female,2021-02-20_15h26.20.089,exp11,2020.2.6,Win32,60,IwAR01LG4lvF9DQSciDRm8DykE2J6eNQ48SZDoCQps7YCXMo7pGu0wmuHUyYw,,,,,,,,,,,
,,,,,,,,,,,,,,a,1,0.939,space,0.067,0,151,151,127,1,0_targ_4_dist_red/trial3.png,,,0,4,redHorizontal,a,36,20,Female,2021-02-20_15h26.20.089,exp11,2020.2.6,Win32,60,IwAR01LG4lvF9DQSciDRm8DykE2J6eNQ48SZDoCQps7YCXMo7pGu0wmuHUyYw,,,,,,,,,,,
,,,,,,,,,,,,,,p,1,0.625,space,0.035,0,152,152,43,1,3_dist_red/trial19.png,,,1,3,redHorizontal,p,36,20,Female,2021-02-20_15h26.20.089,exp11,2020.2.6,Win32,60,IwAR01LG4lvF9DQSciDRm8DykE2J6eNQ48SZDoCQps7YCXMo7pGu0wmuHUyYw,,,,,,,,,,,
,,,,,,,,,,,,,,a,0,0.801,space,1.417,0,153,153,80,1,15_dist_red/trial6.png,,,1,15,redHorizontal,p,36,20,Female,2021-02-20_15h26.20.089,exp11,2020.2.6,Win32,60,IwAR01LG4lvF9DQSciDRm8DykE2J6eNQ48SZDoCQps7YCXMo7pGu0wmuHUyYw,,,,,,,,,,,
,,,,,,,,,,,,,,a,1,0.655,space,0.048,0,154,154,114,1,0_targ_1_dist_red/trial15.png,,,0,1,redHorizontal,a,36,20,Female,2021-02-20_15h26.20.089,exp11,2020.2.6,Win32,60,IwAR01LG4lvF9DQSciDRm8DykE2J6eNQ48SZDoCQps7YCXMo7pGu0wmuHUyYw,,,,,,,,,,,
,,,,,,,,,,,,,,p,1,0.554,space,0.084,0,155,155,18,1,0_dist_red/trial19.png,,,1,0,redHorizontal,p,36,20,Female,2021-02-20_15h26.20.089,exp11,2020.2.6,Win32,60,IwAR01LG4lvF9DQSciDRm8DykE2J6eNQ48SZDoCQps7YCXMo7pGu0wmuHUyYw,,,,,,,,,,,
,,,,,,,,,,,,,,p,1,0.634,space,0.034,0,156,156,47,1,3_dist_red/trial23.png,,,1,3,redHorizontal,p,36,20,Female,2021-02-20_15h26.20.089,exp11,2020.2.6,Win32,60,IwAR01LG4lvF9DQSciDRm8DykE2J6eNQ48SZDoCQps7YCXMo7pGu0wmuHUyYw,,,,,,,,,,,
,,,,,,,,,,,,,,a,1,0.918,space,0.101,0,157,157,183,1,0_targ_16_dist_red/trial9.png,,,0,16,redHorizontal,a,36,20,Female,2021-02-20_15h26.20.089,exp11,2020.2.6,Win32,60,IwAR01LG4lvF9DQSciDRm8DykE2J6eNQ48SZDoCQps7YCXMo7pGu0wmuHUyYw,,,,,,,,,,,
,,,,,,,,,,,,,,a,1,0.839,space,0.082,0,158,158,155,1,0_targ_10_dist_red/trial6.png,,,0,10,redHorizontal,a,36,20,Female,2021-02-20_15h26.20.089,exp11,2020.2.6,Win32,60,IwAR01LG4lvF9DQSciDRm8DykE2J6eNQ48SZDoCQps7YCXMo7pGu0wmuHUyYw,,,,,,,,,,,
,,,,,,,,,,,,,,a,1,0.803,space,0.117,0,159,159,191,1,0_targ_16_dist_red/trial17.png,,,0,16,redHorizontal,a,36,20,Female,2021-02-20_15h26.20.089,exp11,2020.2.6,Win32,60,IwAR01LG4lvF9DQSciDRm8DykE2J6eNQ48SZDoCQps7YCXMo7pGu0wmuHUyYw,,,,,,,,,,,
,,,,,,,,,,,,,,a,1,0.701,space,0.116,0,160,160,107,1,0_targ_1_dist_red/trial8.png,,,0,1,redHorizontal,a,36,20,Female,2021-02-20_15h26.20.089,exp11,2020.2.6,Win32,60,IwAR01LG4lvF9DQSciDRm8DykE2J6eNQ48SZDoCQps7YCXMo7pGu0wmuHUyYw,,,,,,,,,,,
,,,,,,,,,,,,,,p,1,0.685,space,0.091,0,161,161,57,1,9_dist_red/trial8.png,,,1,9,redHorizontal,p,36,20,Female,2021-02-20_15h26.20.089,exp11,2020.2.6,Win32,60,IwAR01LG4lvF9DQSciDRm8DykE2J6eNQ48SZDoCQps7YCXMo7pGu0wmuHUyYw,,,,,,,,,,,
,,,,,,,,,,,,,,p,1,0.836,space,0.088,0,162,162,48,1,3_dist_red/trial24.png,,,1,3,redHorizontal,p,36,20,Female,2021-02-20_15h26.20.089,exp11,2020.2.6,Win32,60,IwAR01LG4lvF9DQSciDRm8DykE2J6eNQ48SZDoCQps7YCXMo7pGu0wmuHUyYw,,,,,,,,,,,
,,,,,,,,,,,,,,a,1,0.773,space,0.715,0,163,163,154,1,0_targ_10_dist_red/trial5.png,,,0,10,redHorizontal,a,36,20,Female,2021-02-20_15h26.20.089,exp11,2020.2.6,Win32,60,IwAR01LG4lvF9DQSciDRm8DykE2J6eNQ48SZDoCQps7YCXMo7pGu0wmuHUyYw,,,,,,,,,,,
,,,,,,,,,,,,,,p,1,0.701,space,0.321,0,164,164,24,1,0_dist_red/trial25.png,,,1,0,redHorizontal,p,36,20,Female,2021-02-20_15h26.20.089,exp11,2020.2.6,Win32,60,IwAR01LG4lvF9DQSciDRm8DykE2J6eNQ48SZDoCQps7YCXMo7pGu0wmuHUyYw,,,,,,,,,,,
,,,,,,,,,,,,,,a,1,0.654,space,0.257,0,165,165,108,1,0_targ_1_dist_red/trial9.png,,,0,1,redHorizontal,a,36,20,Female,2021-02-20_15h26.20.089,exp11,2020.2.6,Win32,60,IwAR01LG4lvF9DQSciDRm8DykE2J6eNQ48SZDoCQps7YCXMo7pGu0wmuHUyYw,,,,,,,,,,,
,,,,,,,,,,,,,,a,1,0.718,space,0.285,0,166,166,131,1,0_targ_4_dist_red/trial7.png,,,0,4,redHorizontal,a,36,20,Female,2021-02-20_15h26.20.089,exp11,2020.2.6,Win32,60,IwAR01LG4lvF9DQSciDRm8DykE2J6eNQ48SZDoCQps7YCXMo7pGu0wmuHUyYw,,,,,,,,,,,
,,,,,,,,,,,,,,p,1,0.97,space,0.3,0,167,167,95,1,15_dist_red/trial21.png,,,1,15,redHorizontal,p,36,20,Female,2021-02-20_15h26.20.089,exp11,2020.2.6,Win32,60,IwAR01LG4lvF9DQSciDRm8DykE2J6eNQ48SZDoCQps7YCXMo7pGu0wmuHUyYw,,,,,,,,,,,
,,,,,,,,,,,,,,a,1,0.735,space,0.248,0,168,168,174,1,0_targ_10_dist_red/trial25.png,,,0,10,redHorizontal,a,36,20,Female,2021-02-20_15h26.20.089,exp11,2020.2.6,Win32,60,IwAR01LG4lvF9DQSciDRm8DykE2J6eNQ48SZDoCQps7YCXMo7pGu0wmuHUyYw,,,,,,,,,,,
,,,,,,,,,,,,,,p,1,0.687,space,0.298,0,169,169,41,1,3_dist_red/trial17.png,,,1,3,redHorizontal,p,36,20,Female,2021-02-20_15h26.20.089,exp11,2020.2.6,Win32,60,IwAR01LG4lvF9DQSciDRm8DykE2J6eNQ48SZDoCQps7YCXMo7pGu0wmuHUyYw,,,,,,,,,,,
,,,,,,,,,,,,,,a,1,0.702,space,0.272,0,170,170,182,1,0_targ_16_dist_red/trial8.png,,,0,16,redHorizontal,a,36,20,Female,2021-02-20_15h26.20.089,exp11,2020.2.6,Win32,60,IwAR01LG4lvF9DQSciDRm8DykE2J6eNQ48SZDoCQps7YCXMo7pGu0wmuHUyYw,,,,,,,,,,,
,,,,,,,,,,,,,,a,0,0.671,space,1.104,0,171,171,79,1,15_dist_red/trial5.png,,,1,15,redHorizontal,p,36,20,Female,2021-02-20_15h26.20.089,exp11,2020.2.6,Win32,60,IwAR01LG4lvF9DQSciDRm8DykE2J6eNQ48SZDoCQps7YCXMo7pGu0wmuHUyYw,,,,,,,,,,,
,,,,,,,,,,,,,,p,1,0.686,space,0.118,0,172,172,65,1,9_dist_red/trial16.png,,,1,9,redHorizontal,p,36,20,Female,2021-02-20_15h26.20.089,exp11,2020.2.6,Win32,60,IwAR01LG4lvF9DQSciDRm8DykE2J6eNQ48SZDoCQps7YCXMo7pGu0wmuHUyYw,,,,,,,,,,,
,,,,,,,,,,,,,,a,1,0.787,space,0.156,0,173,173,196,1,0_targ_16_dist_red/trial22.png,,,0,16,redHorizontal,a,36,20,Female,2021-02-20_15h26.20.089,exp11,2020.2.6,Win32,60,IwAR01LG4lvF9DQSciDRm8DykE2J6eNQ48SZDoCQps7YCXMo7pGu0wmuHUyYw,,,,,,,,,,,
,,,,,,,,,,,,,,a,1,0.836,space,0.267,0,174,174,172,1,0_targ_10_dist_red/trial23.png,,,0,10,redHorizontal,a,36,20,Female,2021-02-20_15h26.20.089,exp11,2020.2.6,Win32,60,IwAR01LG4lvF9DQSciDRm8DykE2J6eNQ48SZDoCQps7YCXMo7pGu0wmuHUyYw,,,,,,,,,,,
,,,,,,,,,,,,,,a,1,0.619,space,0.283,0,175,175,140,1,0_targ_4_dist_red/trial6.png,,,0,4,redHorizontal,a,36,20,Female,2021-02-20_15h26.20.089,exp11,2020.2.6,Win32,60,IwAR01LG4lvF9DQSciDRm8DykE2J6eNQ48SZDoCQps7YCXMo7pGu0wmuHUyYw,,,,,,,,,,,
,,,,,,,,,,,,,,a,1,0.489,space,0.353,0,176,176,193,1,0_targ_16_dist_red/trial19.png,,,0,16,redHorizontal,a,36,20,Female,2021-02-20_15h26.20.089,exp11,2020.2.6,Win32,60,IwAR01LG4lvF9DQSciDRm8DykE2J6eNQ48SZDoCQps7YCXMo7pGu0wmuHUyYw,,,,,,,,,,,
,,,,,,,,,,,,,,a,1,0.737,space,0.301,0,177,177,159,1,0_targ_10_dist_red/trial10.png,,,0,10,redHorizontal,a,36,20,Female,2021-02-20_15h26.20.089,exp11,2020.2.6,Win32,60,IwAR01LG4lvF9DQSciDRm8DykE2J6eNQ48SZDoCQps7YCXMo7pGu0wmuHUyYw,,,,,,,,,,,
,,,,,,,,,,,,,,p,1,0.703,space,0.35,0,178,178,23,1,0_dist_red/trial24.png,,,1,0,redHorizontal,p,36,20,Female,2021-02-20_15h26.20.089,exp11,2020.2.6,Win32,60,IwAR01LG4lvF9DQSciDRm8DykE2J6eNQ48SZDoCQps7YCXMo7pGu0wmuHUyYw,,,,,,,,,,,
,,,,,,,,,,,,,,p,1,0.618,space,0.335,0,179,179,33,1,3_dist_red/trial9.png,,,1,3,redHorizontal,p,36,20,Female,2021-02-20_15h26.20.089,exp11,2020.2.6,Win32,60,IwAR01LG4lvF9DQSciDRm8DykE2J6eNQ48SZDoCQps7YCXMo7pGu0wmuHUyYw,,,,,,,,,,,
,,,,,,,,,,,,,,a,1,0.701,space,0.365,0,180,180,157,1,0_targ_10_dist_red/trial8.png,,,0,10,redHorizontal,a,36,20,Female,2021-02-20_15h26.20.089,exp11,2020.2.6,Win32,60,IwAR01LG4lvF9DQSciDRm8DykE2J6eNQ48SZDoCQps7YCXMo7pGu0wmuHUyYw,,,,,,,,,,,
,,,,,,,,,,,,,,p,1,0.702,space,0.331,0,181,181,30,1,3_dist_red/trial6.png,,,1,3,redHorizontal,p,36,20,Female,2021-02-20_15h26.20.089,exp11,2020.2.6,Win32,60,IwAR01LG4lvF9DQSciDRm8DykE2J6eNQ48SZDoCQps7YCXMo7pGu0wmuHUyYw,,,,,,,,,,,
,,,,,,,,,,,,,,p,1,0.958,space,0.285,0,182,182,59,1,9_dist_red/trial10.png,,,1,9,redHorizontal,p,36,20,Female,2021-02-20_15h26.20.089,exp11,2020.2.6,Win32,60,IwAR01LG4lvF9DQSciDRm8DykE2J6eNQ48SZDoCQps7YCXMo7pGu0wmuHUyYw,,,,,,,,,,,
,,,,,,,,,,,,,,p,1,0.889,space,0.318,0,183,183,99,1,15_dist_red/trial25.png,,,1,15,redHorizontal,p,36,20,Female,2021-02-20_15h26.20.089,exp11,2020.2.6,Win32,60,IwAR01LG4lvF9DQSciDRm8DykE2J6eNQ48SZDoCQps7YCXMo7pGu0wmuHUyYw,,,,,,,,,,,
,,,,,,,,,,,,,,p,1,0.973,space,0.299,0,184,184,55,1,9_dist_red/trial6.png,,,1,9,redHorizontal,p,36,20,Female,2021-02-20_15h26.20.089,exp11,2020.2.6,Win32,60,IwAR01LG4lvF9DQSciDRm8DykE2J6eNQ48SZDoCQps7YCXMo7pGu0wmuHUyYw,,,,,,,,,,,
,,,,,,,,,,,,,,a,1,0.853,space,0.283,0,185,185,181,1,0_targ_16_dist_red/trial7.png,,,0,16,redHorizontal,a,36,20,Female,2021-02-20_15h26.20.089,exp11,2020.2.6,Win32,60,IwAR01LG4lvF9DQSciDRm8DykE2J6eNQ48SZDoCQps7YCXMo7pGu0wmuHUyYw,,,,,,,,,,,
,,,,,,,,,,,,,,a,1,0.602,space,0.181,0,186,186,145,1,0_targ_4_dist_red/trial21.png,,,0,4,redHorizontal,a,36,20,Female,2021-02-20_15h26.20.089,exp11,2020.2.6,Win32,60,IwAR01LG4lvF9DQSciDRm8DykE2J6eNQ48SZDoCQps7YCXMo7pGu0wmuHUyYw,,,,,,,,,,,
,,,,,,,,,,,,,,p,1,1.203,space,0.169,0,187,187,87,1,15_dist_red/trial13.png,,,1,15,redHorizontal,p,36,20,Female,2021-02-20_15h26.20.089,exp11,2020.2.6,Win32,60,IwAR01LG4lvF9DQSciDRm8DykE2J6eNQ48SZDoCQps7YCXMo7pGu0wmuHUyYw,,,,,,,,,,,
,,,,,,,,,,,,,,a,1,0.736,space,0.15,0,188,188,171,1,0_targ_10_dist_red/trial22.png,,,0,10,redHorizontal,a,36,20,Female,2021-02-20_15h26.20.089,exp11,2020.2.6,Win32,60,IwAR01LG4lvF9DQSciDRm8DykE2J6eNQ48SZDoCQps7YCXMo7pGu0wmuHUyYw,,,,,,,,,,,
,,,,,,,,,,,,,,p,1,0.802,space,0.068,0,189,189,76,1,15_dist_red/trial2.png,,,1,15,redHorizontal,p,36,20,Female,2021-02-20_15h26.20.089,exp11,2020.2.6,Win32,60,IwAR01LG4lvF9DQSciDRm8DykE2J6eNQ48SZDoCQps7YCXMo7pGu0wmuHUyYw,,,,,,,,,,,
,,,,,,,,,,,,,,a,1,0.869,space,0.033,0,190,190,101,1,0_targ_1_dist_red/trial2.png,,,0,1,redHorizontal,a,36,20,Female,2021-02-20_15h26.20.089,exp11,2020.2.6,Win32,60,IwAR01LG4lvF9DQSciDRm8DykE2J6eNQ48SZDoCQps7YCXMo7pGu0wmuHUyYw,,,,,,,,,,,
,,,,,,,,,,,,,,p,1,0.886,space,0.05,0,191,191,73,1,9_dist_red/trial24.png,,,1,9,redHorizontal,p,36,20,Female,2021-02-20_15h26.20.089,exp11,2020.2.6,Win32,60,IwAR01LG4lvF9DQSciDRm8DykE2J6eNQ48SZDoCQps7YCXMo7pGu0wmuHUyYw,,,,,,,,,,,
,,,,,,,,,,,,,,p,1,0.704,space,0.039,0,192,192,8,1,0_dist_red/trial9.png,,,1,0,redHorizontal,p,36,20,Female,2021-02-20_15h26.20.089,exp11,2020.2.6,Win32,60,IwAR01LG4lvF9DQSciDRm8DykE2J6eNQ48SZDoCQps7YCXMo7pGu0wmuHUyYw,,,,,,,,,,,
,,,,,,,,,,,,,,p,1,0.79,space,0.066,0,193,193,49,1,3_dist_red/trial25.png,,,1,3,redHorizontal,p,36,20,Female,2021-02-20_15h26.20.089,exp11,2020.2.6,Win32,60,IwAR01LG4lvF9DQSciDRm8DykE2J6eNQ48SZDoCQps7YCXMo7pGu0wmuHUyYw,,,,,,,,,,,
,,,,,,,,,,,,,,p,1,0.851,space,0.001,0,194,194,90,1,15_dist_red/trial16.png,,,1,15,redHorizontal,p,36,20,Female,2021-02-20_15h26.20.089,exp11,2020.2.6,Win32,60,IwAR01LG4lvF9DQSciDRm8DykE2J6eNQ48SZDoCQps7YCXMo7pGu0wmuHUyYw,,,,,,,,,,,
,,,,,,,,,,,,,,p,1,1.021,space,0.032,0,195,195,54,1,9_dist_red/trial5.png,,,1,9,redHorizontal,p,36,20,Female,2021-02-20_15h26.20.089,exp11,2020.2.6,Win32,60,IwAR01LG4lvF9DQSciDRm8DykE2J6eNQ48SZDoCQps7YCXMo7pGu0wmuHUyYw,,,,,,,,,,,
,,,,,,,,,,,,,,p,1,0.621,space,0.041,0,196,196,63,1,9_dist_red/trial14.png,,,1,9,redHorizontal,p,36,20,Female,2021-02-20_15h26.20.089,exp11,2020.2.6,Win32,60,IwAR01LG4lvF9DQSciDRm8DykE2J6eNQ48SZDoCQps7YCXMo7pGu0wmuHUyYw,,,,,,,,,,,
,,,,,,,,,,,,,,p,1,0.621,space,0.056,0,197,197,6,1,0_dist_red/trial7.png,,,1,0,redHorizontal,p,36,20,Female,2021-02-20_15h26.20.089,exp11,2020.2.6,Win32,60,IwAR01LG4lvF9DQSciDRm8DykE2J6eNQ48SZDoCQps7YCXMo7pGu0wmuHUyYw,,,,,,,,,,,
,,,,,,,,,,,,,,p,1,0.689,space,0.081,0,198,198,34,1,3_dist_red/trial10.png,,,1,3,redHorizontal,p,36,20,Female,2021-02-20_15h26.20.089,exp11,2020.2.6,Win32,60,IwAR01LG4lvF9DQSciDRm8DykE2J6eNQ48SZDoCQps7YCXMo7pGu0wmuHUyYw,,,,,,,,,,,
,,,,,,,,,,,,,,p,1,0.571,space,0.1,0,199,199,20,1,0_dist_red/trial21.png,,,1,0,redHorizontal,p,36,20,Female,2021-02-20_15h26.20.089,exp11,2020.2.6,Win32,60,IwAR01LG4lvF9DQSciDRm8DykE2J6eNQ48SZDoCQps7YCXMo7pGu0wmuHUyYw,,,,,,,,,,,
,,,,,,,,,,,,,,,,,,,,,,,,,,,,,,,36,20,Female,2021-02-20_15h26.20.089,exp11,2020.2.6,Win32,60,IwAR01LG4lvF9DQSciDRm8DykE2J6eNQ48SZDoCQps7YCXMo7pGu0wmuHUyYw,0,0,0,1,1,conRed.xlsx,red horizontal,Look for red horizontal bar (target) and indicate if it is present or absent in the array. If red horizontal target is present press 'p' and if absent press 'a'. Press SPACE to start.,,,
,,,,,,,,,,space,5.292,space,5.199,p,1,0.574,space,0.469,0,0,0,69,1,9_dist_green/trial20.png,,,1,9,greenverival,p,36,20,Female,2021-02-20_15h26.20.089,exp11,2020.2.6,Win32,60,IwAR01LG4lvF9DQSciDRm8DykE2J6eNQ48SZDoCQps7YCXMo7pGu0wmuHUyYw,,,,,,,,,,,
,,,,,,,,,,,,,,a,1,0.663,space,0.367,0,1,1,118,1,0_targ_1_dist_green/trial19.png,,,0,1,greenverival,a,36,20,Female,2021-02-20_15h26.20.089,exp11,2020.2.6,Win32,60,IwAR01LG4lvF9DQSciDRm8DykE2J6eNQ48SZDoCQps7YCXMo7pGu0wmuHUyYw,,,,,,,,,,,
,,,,,,,,,,,,,,p,1,1.056,space,0.271,0,2,2,96,1,15_dist_green/trial22.png,,,1,15,greenverival,p,36,20,Female,2021-02-20_15h26.20.089,exp11,2020.2.6,Win32,60,IwAR01LG4lvF9DQSciDRm8DykE2J6eNQ48SZDoCQps7YCXMo7pGu0wmuHUyYw,,,,,,,,,,,
,,,,,,,,,,,,,,a,1,0.956,space,0.45,0,3,3,175,1,0_targ_16_dist_green/trial1.png,,,0,16,greenverival,a,36,20,Female,2021-02-20_15h26.20.089,exp11,2020.2.6,Win32,60,IwAR01LG4lvF9DQSciDRm8DykE2J6eNQ48SZDoCQps7YCXMo7pGu0wmuHUyYw,,,,,,,,,,,
,,,,,,,,,,,,,,p,1,0.588,space,0.276,0,4,4,68,1,9_dist_green/trial19.png,,,1,9,greenverival,p,36,20,Female,2021-02-20_15h26.20.089,exp11,2020.2.6,Win32,60,IwAR01LG4lvF9DQSciDRm8DykE2J6eNQ48SZDoCQps7YCXMo7pGu0wmuHUyYw,,,,,,,,,,,
,,,,,,,,,,,,,,a,1,0.786,space,0.316,0,5,5,110,1,0_targ_1_dist_green/trial11.png,,,0,1,greenverival,a,36,20,Female,2021-02-20_15h26.20.089,exp11,2020.2.6,Win32,60,IwAR01LG4lvF9DQSciDRm8DykE2J6eNQ48SZDoCQps7YCXMo7pGu0wmuHUyYw,,,,,,,,,,,
,,,,,,,,,,,,,,p,1,0.819,space,0.252,0,6,6,5,1,0_dist_green/trial6.png,,,1,0,greenverival,p,36,20,Female,2021-02-20_15h26.20.089,exp11,2020.2.6,Win32,60,IwAR01LG4lvF9DQSciDRm8DykE2J6eNQ48SZDoCQps7YCXMo7pGu0wmuHUyYw,,,,,,,,,,,
,,,,,,,,,,,,,,p,1,0.6,space,0.333,0,7,7,8,1,0_dist_green/trial9.png,,,1,0,greenverival,p,36,20,Female,2021-02-20_15h26.20.089,exp11,2020.2.6,Win32,60,IwAR01LG4lvF9DQSciDRm8DykE2J6eNQ48SZDoCQps7YCXMo7pGu0wmuHUyYw,,,,,,,,,,,
,,,,,,,,,,,,,,a,1,0.863,space,0.251,0,8,8,158,1,0_targ_10_dist_green/trial9.png,,,0,10,greenverival,a,36,20,Female,2021-02-20_15h26.20.089,exp11,2020.2.6,Win32,60,IwAR01LG4lvF9DQSciDRm8DykE2J6eNQ48SZDoCQps7YCXMo7pGu0wmuHUyYw,,,,,,,,,,,
,,,,,,,,,,,,,,a,1,0.752,space,0.249,0,9,9,119,1,0_targ_1_dist_green/trial20.png,,,0,1,greenverival,a,36,20,Female,2021-02-20_15h26.20.089,exp11,2020.2.6,Win32,60,IwAR01LG4lvF9DQSciDRm8DykE2J6eNQ48SZDoCQps7YCXMo7pGu0wmuHUyYw,,,,,,,,,,,
,,,,,,,,,,,,,,a,1,0.487,space,0.338,0,10,10,116,1,0_targ_1_dist_green/trial17.png,,,0,1,greenverival,a,36,20,Female,2021-02-20_15h26.20.089,exp11,2020.2.6,Win32,60,IwAR01LG4lvF9DQSciDRm8DykE2J6eNQ48SZDoCQps7YCXMo7pGu0wmuHUyYw,,,,,,,,,,,
,,,,,,,,,,,,,,p,1,0.803,space,0.084,0,11,11,38,1,3_dist_green/trial14.png,,,1,3,greenverival,p,36,20,Female,2021-02-20_15h26.20.089,exp11,2020.2.6,Win32,60,IwAR01LG4lvF9DQSciDRm8DykE2J6eNQ48SZDoCQps7YCXMo7pGu0wmuHUyYw,,,,,,,,,,,
,,,,,,,,,,,,,,p,1,1.505,space,0.08,0,12,12,95,1,15_dist_green/trial21.png,,,1,15,greenverival,p,36,20,Female,2021-02-20_15h26.20.089,exp11,2020.2.6,Win32,60,IwAR01LG4lvF9DQSciDRm8DykE2J6eNQ48SZDoCQps7YCXMo7pGu0wmuHUyYw,,,,,,,,,,,
,,,,,,,,,,,,,,a,1,3.701,space,0.552,0,13,13,100,1,0_targ_1_dist_green/trial1.png,,,0,1,greenverival,a,36,20,Female,2021-02-20_15h26.20.089,exp11,2020.2.6,Win32,60,IwAR01LG4lvF9DQSciDRm8DykE2J6eNQ48SZDoCQps7YCXMo7pGu0wmuHUyYw,,,,,,,,,,,
,,,,,,,,,,,,,,p,1,1.757,space,0.052,0,14,14,66,1,9_dist_green/trial17.png,,,1,9,greenverival,p,36,20,Female,2021-02-20_15h26.20.089,exp11,2020.2.6,Win32,60,IwAR01LG4lvF9DQSciDRm8DykE2J6eNQ48SZDoCQps7YCXMo7pGu0wmuHUyYw,,,,,,,,,,,
,,,,,,,,,,,,,,p,1,1.187,space,0.034,0,15,15,77,1,15_dist_green/trial3.png,,,1,15,greenverival,p,36,20,Female,2021-02-20_15h26.20.089,exp11,2020.2.6,Win32,60,IwAR01LG4lvF9DQSciDRm8DykE2J6eNQ48SZDoCQps7YCXMo7pGu0wmuHUyYw,,,,,,,,,,,
,,,,,,,,,,,,,,p,1,0.619,space,0.074,0,16,16,61,1,9_dist_green/trial12.png,,,1,9,greenverival,p,36,20,Female,2021-02-20_15h26.20.089,exp11,2020.2.6,Win32,60,IwAR01LG4lvF9DQSciDRm8DykE2J6eNQ48SZDoCQps7YCXMo7pGu0wmuHUyYw,,,,,,,,,,,
,,,,,,,,,,,,,,a,1,0.776,space,0.084,0,17,17,127,1,0_targ_4_dist_green/trial3.png,,,0,4,greenverival,a,36,20,Female,2021-02-20_15h26.20.089,exp11,2020.2.6,Win32,60,IwAR01LG4lvF9DQSciDRm8DykE2J6eNQ48SZDoCQps7YCXMo7pGu0wmuHUyYw,,,,,,,,,,,
,,,,,,,,,,,,,,p,1,0.752,space,0.035,0,18,18,98,1,15_dist_green/trial24.png,,,1,15,greenverival,p,36,20,Female,2021-02-20_15h26.20.089,exp11,2020.2.6,Win32,60,IwAR01LG4lvF9DQSciDRm8DykE2J6eNQ48SZDoCQps7YCXMo7pGu0wmuHUyYw,,,,,,,,,,,
,,,,,,,,,,,,,,a,1,0.957,space,0.051,0,19,19,145,1,0_targ_4_dist_green/trial21.png,,,0,4,greenverival,a,36,20,Female,2021-02-20_15h26.20.089,exp11,2020.2.6,Win32,60,IwAR01LG4lvF9DQSciDRm8DykE2J6eNQ48SZDoCQps7YCXMo7pGu0wmuHUyYw,,,,,,,,,,,
,,,,,,,,,,,,,,a,1,0.954,space,0.038,0,20,20,150,1,0_targ_10_dist_green/trial1.png,,,0,10,greenverival,a,36,20,Female,2021-02-20_15h26.20.089,exp11,2020.2.6,Win32,60,IwAR01LG4lvF9DQSciDRm8DykE2J6eNQ48SZDoCQps7YCXMo7pGu0wmuHUyYw,,,,,,,,,,,
,,,,,,,,,,,,,,p,1,0.738,space,0.051,0,21,21,48,1,3_dist_green/trial24.png,,,1,3,greenverival,p,36,20,Female,2021-02-20_15h26.20.089,exp11,2020.2.6,Win32,60,IwAR01LG4lvF9DQSciDRm8DykE2J6eNQ48SZDoCQps7YCXMo7pGu0wmuHUyYw,,,,,,,,,,,
,,,,,,,,,,,,,,p,1,0.636,space,0.035,0,22,22,41,1,3_dist_green/trial17.png,,,1,3,greenverival,p,36,20,Female,2021-02-20_15h26.20.089,exp11,2020.2.6,Win32,60,IwAR01LG4lvF9DQSciDRm8DykE2J6eNQ48SZDoCQps7YCXMo7pGu0wmuHUyYw,,,,,,,,,,,
,,,,,,,,,,,,,,p,1,0.585,space,0.02,0,23,23,10,1,0_dist_green/trial11.png,,,1,0,greenverival,p,36,20,Female,2021-02-20_15h26.20.089,exp11,2020.2.6,Win32,60,IwAR01LG4lvF9DQSciDRm8DykE2J6eNQ48SZDoCQps7YCXMo7pGu0wmuHUyYw,,,,,,,,,,,
,,,,,,,,,,,,,,a,1,1.356,space,0.05,0,24,24,194,1,0_targ_16_dist_green/trial20.png,,,0,16,greenverival,a,36,20,Female,2021-02-20_15h26.20.089,exp11,2020.2.6,Win32,60,IwAR01LG4lvF9DQSciDRm8DykE2J6eNQ48SZDoCQps7YCXMo7pGu0wmuHUyYw,,,,,,,,,,,
,,,,,,,,,,,,,,p,1,0.707,space,0.05,0,25,25,33,1,3_dist_green/trial9.png,,,1,3,greenverival,p,36,20,Female,2021-02-20_15h26.20.089,exp11,2020.2.6,Win32,60,IwAR01LG4lvF9DQSciDRm8DykE2J6eNQ48SZDoCQps7YCXMo7pGu0wmuHUyYw,,,,,,,,,,,
,,,,,,,,,,,,,,p,1,0.672,space,0.032,0,26,26,44,1,3_dist_green/trial20.png,,,1,3,greenverival,p,36,20,Female,2021-02-20_15h26.20.089,exp11,2020.2.6,Win32,60,IwAR01LG4lvF9DQSciDRm8DykE2J6eNQ48SZDoCQps7YCXMo7pGu0wmuHUyYw,,,,,,,,,,,
,,,,,,,,,,,,,,a,1,1.12,space,0.104,0,27,27,181,1,0_targ_16_dist_green/trial7.png,,,0,16,greenverival,a,36,20,Female,2021-02-20_15h26.20.089,exp11,2020.2.6,Win32,60,IwAR01LG4lvF9DQSciDRm8DykE2J6eNQ48SZDoCQps7YCXMo7pGu0wmuHUyYw,,,,,,,,,,,
,,,,,,,,,,,,,,p,1,0.803,space,0.034,0,28,28,15,1,0_dist_green/trial16.png,,,1,0,greenverival,p,36,20,Female,2021-02-20_15h26.20.089,exp11,2020.2.6,Win32,60,IwAR01LG4lvF9DQSciDRm8DykE2J6eNQ48SZDoCQps7YCXMo7pGu0wmuHUyYw,,,,,,,,,,,
,,,,,,,,,,,,,,p,1,1,space,0.002,0,29,29,74,1,9_dist_green/trial25.png,,,1,9,greenverival,p,36,20,Female,2021-02-20_15h26.20.089,exp11,2020.2.6,Win32,60,IwAR01LG4lvF9DQSciDRm8DykE2J6eNQ48SZDoCQps7YCXMo7pGu0wmuHUyYw,,,,,,,,,,,
,,,,,,,,,,,,,,a,1,0.801,space,0.042,0,30,30,144,1,0_targ_4_dist_green/trial20.png,,,0,4,greenverival,a,36,20,Female,2021-02-20_15h26.20.089,exp11,2020.2.6,Win32,60,IwAR01LG4lvF9DQSciDRm8DykE2J6eNQ48SZDoCQps7YCXMo7pGu0wmuHUyYw,,,,,,,,,,,
,,,,,,,,,,,,,,a,1,0.79,space,0.084,0,31,31,125,1,0_targ_4_dist_green/trial1.png,,,0,4,greenverival,a,36,20,Female,2021-02-20_15h26.20.089,exp11,2020.2.6,Win32,60,IwAR01LG4lvF9DQSciDRm8DykE2J6eNQ48SZDoCQps7YCXMo7pGu0wmuHUyYw,,,,,,,,,,,
,,,,,,,,,,,,,,p,1,0.819,space,0.019,0,32,32,36,1,3_dist_green/trial12.png,,,1,3,greenverival,p,36,20,Female,2021-02-20_15h26.20.089,exp11,2020.2.6,Win32,60,IwAR01LG4lvF9DQSciDRm8DykE2J6eNQ48SZDoCQps7YCXMo7pGu0wmuHUyYw,,,,,,,,,,,
,,,,,,,,,,,,,,p,1,0.853,space,0.036,0,33,33,82,1,15_dist_green/trial8.png,,,1,15,greenverival,p,36,20,Female,2021-02-20_15h26.20.089,exp11,2020.2.6,Win32,60,IwAR01LG4lvF9DQSciDRm8DykE2J6eNQ48SZDoCQps7YCXMo7pGu0wmuHUyYw,,,,,,,,,,,
,,,,,,,,,,,,,,p,1,0.621,space,0.021,0,34,34,12,1,0_dist_green/trial13.png,,,1,0,greenverival,p,36,20,Female,2021-02-20_15h26.20.089,exp11,2020.2.6,Win32,60,IwAR01LG4lvF9DQSciDRm8DykE2J6eNQ48SZDoCQps7YCXMo7pGu0wmuHUyYw,,,,,,,,,,,
,,,,,,,,,,,,,,a,1,0.804,space,0.017,0,35,35,167,1,0_targ_10_dist_green/trial18.png,,,0,10,greenverival,a,36,20,Female,2021-02-20_15h26.20.089,exp11,2020.2.6,Win32,60,IwAR01LG4lvF9DQSciDRm8DykE2J6eNQ48SZDoCQps7YCXMo7pGu0wmuHUyYw,,,,,,,,,,,
,,,,,,,,,,,,,,a,1,0.87,space,0.083,0,36,36,126,1,0_targ_4_dist_green/trial2.png,,,0,4,greenverival,a,36,20,Female,2021-02-20_15h26.20.089,exp11,2020.2.6,Win32,60,IwAR01LG4lvF9DQSciDRm8DykE2J6eNQ48SZDoCQps7YCXMo7pGu0wmuHUyYw,,,,,,,,,,,
,,,,,,,,,,,,,,p,1,0.957,space,0.001,0,37,37,99,1,15_dist_green/trial25.png,,,1,15,greenverival,p,36,20,Female,2021-02-20_15h26.20.089,exp11,2020.2.6,Win32,60,IwAR01LG4lvF9DQSciDRm8DykE2J6eNQ48SZDoCQps7YCXMo7pGu0wmuHUyYw,,,,,,,,,,,
,,,,,,,,,,,,,,p,1,0.671,space,0.021,0,38,38,7,1,0_dist_green/trial8.png,,,1,0,greenverival,p,36,20,Female,2021-02-20_15h26.20.089,exp11,2020.2.6,Win32,60,IwAR01LG4lvF9DQSciDRm8DykE2J6eNQ48SZDoCQps7YCXMo7pGu0wmuHUyYw,,,,,,,,,,,
,,,,,,,,,,,,,,a,1,0.77,space,0.034,0,39,39,162,1,0_targ_10_dist_green/trial13.png,,,0,10,greenverival,a,36,20,Female,2021-02-20_15h26.20.089,exp11,2020.2.6,Win32,60,IwAR01LG4lvF9DQSciDRm8DykE2J6eNQ48SZDoCQps7YCXMo7pGu0wmuHUyYw,,,,,,,,,,,
,,,,,,,,,,,,,,p,1,0.702,space,0.023,0,40,40,32,1,3_dist_green/trial8.png,,,1,3,greenverival,p,36,20,Female,2021-02-20_15h26.20.089,exp11,2020.2.6,Win32,60,IwAR01LG4lvF9DQSciDRm8DykE2J6eNQ48SZDoCQps7YCXMo7pGu0wmuHUyYw,,,,,,,,,,,
,,,,,,,,,,,,,,p,1,1.253,space,0.003,0,41,41,52,1,9_dist_green/trial3.png,,,1,9,greenverival,p,36,20,Female,2021-02-20_15h26.20.089,exp11,2020.2.6,Win32,60,IwAR01LG4lvF9DQSciDRm8DykE2J6eNQ48SZDoCQps7YCXMo7pGu0wmuHUyYw,,,,,,,,,,,
,,,,,,,,,,,,,,a,1,0.869,space,0.065,0,42,42,169,1,0_targ_10_dist_green/trial20.png,,,0,10,greenverival,a,36,20,Female,2021-02-20_15h26.20.089,exp11,2020.2.6,Win32,60,IwAR01LG4lvF9DQSciDRm8DykE2J6eNQ48SZDoCQps7YCXMo7pGu0wmuHUyYw,,,,,,,,,,,
,,,,,,,,,,,,,,a,1,0.802,space,0.048,0,43,43,199,1,0_targ_16_dist_green/trial25.png,,,0,16,greenverival,a,36,20,Female,2021-02-20_15h26.20.089,exp11,2020.2.6,Win32,60,IwAR01LG4lvF9DQSciDRm8DykE2J6eNQ48SZDoCQps7YCXMo7pGu0wmuHUyYw,,,,,,,,,,,
,,,,,,,,,,,,,,a,0,0.77,space,0.091,0,44,44,79,1,15_dist_green/trial5.png,,,1,15,greenverival,p,36,20,Female,2021-02-20_15h26.20.089,exp11,2020.2.6,Win32,60,IwAR01LG4lvF9DQSciDRm8DykE2J6eNQ48SZDoCQps7YCXMo7pGu0wmuHUyYw,,,,,,,,,,,
,,,,,,,,,,,,,,p,1,0.691,space,0.944,0,45,45,39,1,3_dist_green/trial15.png,,,1,3,greenverival,p,36,20,Female,2021-02-20_15h26.20.089,exp11,2020.2.6,Win32,60,IwAR01LG4lvF9DQSciDRm8DykE2J6eNQ48SZDoCQps7YCXMo7pGu0wmuHUyYw,,,,,,,,,,,
,,,,,,,,,,,,,,a,1,0.902,space,0.038,0,46,46,168,1,0_targ_10_dist_green/trial19.png,,,0,10,greenverival,a,36,20,Female,2021-02-20_15h26.20.089,exp11,2020.2.6,Win32,60,IwAR01LG4lvF9DQSciDRm8DykE2J6eNQ48SZDoCQps7YCXMo7pGu0wmuHUyYw,,,,,,,,,,,
,,,,,,,,,,,,,,p,1,0.821,space,0.055,0,47,47,85,1,15_dist_green/trial11.png,,,1,15,greenverival,p,36,20,Female,2021-02-20_15h26.20.089,exp11,2020.2.6,Win32,60,IwAR01LG4lvF9DQSciDRm8DykE2J6eNQ48SZDoCQps7YCXMo7pGu0wmuHUyYw,,,,,,,,,,,
,,,,,,,,,,,,,,a,0,1.257,space,0.667,0,48,48,9,1,0_dist_green/trial10.png,,,1,0,greenverival,p,36,20,Female,2021-02-20_15h26.20.089,exp11,2020.2.6,Win32,60,IwAR01LG4lvF9DQSciDRm8DykE2J6eNQ48SZDoCQps7YCXMo7pGu0wmuHUyYw,,,,,,,,,,,
,,,,,,,,,,,,,,p,0,0.791,space,0.117,0,49,49,106,1,0_targ_1_dist_green/trial7.png,,,0,1,greenverival,a,36,20,Female,2021-02-20_15h26.20.089,exp11,2020.2.6,Win32,60,IwAR01LG4lvF9DQSciDRm8DykE2J6eNQ48SZDoCQps7YCXMo7pGu0wmuHUyYw,,,,,,,,,,,
,,,,,,,,,,,,,,a,1,1.219,space,0.037,0,50,50,179,1,0_targ_16_dist_green/trial5.png,,,0,16,greenverival,a,36,20,Female,2021-02-20_15h26.20.089,exp11,2020.2.6,Win32,60,IwAR01LG4lvF9DQSciDRm8DykE2J6eNQ48SZDoCQps7YCXMo7pGu0wmuHUyYw,,,,,,,,,,,
,,,,,,,,,,,,,,p,1,0.785,space,0.017,0,51,51,37,1,3_dist_green/trial13.png,,,1,3,greenverival,p,36,20,Female,2021-02-20_15h26.20.089,exp11,2020.2.6,Win32,60,IwAR01LG4lvF9DQSciDRm8DykE2J6eNQ48SZDoCQps7YCXMo7pGu0wmuHUyYw,,,,,,,,,,,
,,,,,,,,,,,,,,p,1,0.73,space,0.019,0,52,52,45,1,3_dist_green/trial21.png,,,1,3,greenverival,p,36,20,Female,2021-02-20_15h26.20.089,exp11,2020.2.6,Win32,60,IwAR01LG4lvF9DQSciDRm8DykE2J6eNQ48SZDoCQps7YCXMo7pGu0wmuHUyYw,,,,,,,,,,,
,,,,,,,,,,,,,,p,1,0.718,space,0.036,0,53,53,60,1,9_dist_green/trial11.png,,,1,9,greenverival,p,36,20,Female,2021-02-20_15h26.20.089,exp11,2020.2.6,Win32,60,IwAR01LG4lvF9DQSciDRm8DykE2J6eNQ48SZDoCQps7YCXMo7pGu0wmuHUyYw,,,,,,,,,,,
,,,,,,,,,,,,,,a,1,0.757,space,0.045,0,54,54,189,1,0_targ_16_dist_green/trial15.png,,,0,16,greenverival,a,36,20,Female,2021-02-20_15h26.20.089,exp11,2020.2.6,Win32,60,IwAR01LG4lvF9DQSciDRm8DykE2J6eNQ48SZDoCQps7YCXMo7pGu0wmuHUyYw,,,,,,,,,,,
,,,,,,,,,,,,,,a,1,0.754,space,0.056,0,55,55,186,1,0_targ_16_dist_green/trial12.png,,,0,16,greenverival,a,36,20,Female,2021-02-20_15h26.20.089,exp11,2020.2.6,Win32,60,IwAR01LG4lvF9DQSciDRm8DykE2J6eNQ48SZDoCQps7YCXMo7pGu0wmuHUyYw,,,,,,,,,,,
,,,,,,,,,,,,,,a,0,0.652,space,1.067,0,56,56,70,1,9_dist_green/trial21.png,,,1,9,greenverival,p,36,20,Female,2021-02-20_15h26.20.089,exp11,2020.2.6,Win32,60,IwAR01LG4lvF9DQSciDRm8DykE2J6eNQ48SZDoCQps7YCXMo7pGu0wmuHUyYw,,,,,,,,,,,
,,,,,,,,,,,,,,a,1,1.234,space,0.033,0,57,57,197,1,0_targ_16_dist_green/trial23.png,,,0,16,greenverival,a,36,20,Female,2021-02-20_15h26.20.089,exp11,2020.2.6,Win32,60,IwAR01LG4lvF9DQSciDRm8DykE2J6eNQ48SZDoCQps7YCXMo7pGu0wmuHUyYw,,,,,,,,,,,
,,,,,,,,,,,,,,p,1,0.736,space,0.033,0,58,58,31,1,3_dist_green/trial7.png,,,1,3,greenverival,p,36,20,Female,2021-02-20_15h26.20.089,exp11,2020.2.6,Win32,60,IwAR01LG4lvF9DQSciDRm8DykE2J6eNQ48SZDoCQps7YCXMo7pGu0wmuHUyYw,,,,,,,,,,,
,,,,,,,,,,,,,,p,1,0.807,space,0.052,0,59,59,35,1,3_dist_green/trial11.png,,,1,3,greenverival,p,36,20,Female,2021-02-20_15h26.20.089,exp11,2020.2.6,Win32,60,IwAR01LG4lvF9DQSciDRm8DykE2J6eNQ48SZDoCQps7YCXMo7pGu0wmuHUyYw,,,,,,,,,,,
,,,,,,,,,,,,,,p,1,0.62,space,0.087,0,60,60,28,1,3_dist_green/trial4.png,,,1,3,greenverival,p,36,20,Female,2021-02-20_15h26.20.089,exp11,2020.2.6,Win32,60,IwAR01LG4lvF9DQSciDRm8DykE2J6eNQ48SZDoCQps7YCXMo7pGu0wmuHUyYw,,,,,,,,,,,
,,,,,,,,,,,,,,p,1,0.536,space,0.817,0,61,61,17,1,0_dist_green/trial18.png,,,1,0,greenverival,p,36,20,Female,2021-02-20_15h26.20.089,exp11,2020.2.6,Win32,60,IwAR01LG4lvF9DQSciDRm8DykE2J6eNQ48SZDoCQps7YCXMo7pGu0wmuHUyYw,,,,,,,,,,,
,,,,,,,,,,,,,,p,1,1,space,0.017,0,62,62,56,1,9_dist_green/trial7.png,,,1,9,greenverival,p,36,20,Female,2021-02-20_15h26.20.089,exp11,2020.2.6,Win32,60,IwAR01LG4lvF9DQSciDRm8DykE2J6eNQ48SZDoCQps7YCXMo7pGu0wmuHUyYw,,,,,,,,,,,
,,,,,,,,,,,,,,a,1,1.101,space,0.051,0,63,63,155,1,0_targ_10_dist_green/trial6.png,,,0,10,greenverival,a,36,20,Female,2021-02-20_15h26.20.089,exp11,2020.2.6,Win32,60,IwAR01LG4lvF9DQSciDRm8DykE2J6eNQ48SZDoCQps7YCXMo7pGu0wmuHUyYw,,,,,,,,,,,
,,,,,,,,,,,,,,p,1,0.638,space,0.069,0,64,64,11,1,0_dist_green/trial12.png,,,1,0,greenverival,p,36,20,Female,2021-02-20_15h26.20.089,exp11,2020.2.6,Win32,60,IwAR01LG4lvF9DQSciDRm8DykE2J6eNQ48SZDoCQps7YCXMo7pGu0wmuHUyYw,,,,,,,,,,,
,,,,,,,,,,,,,,p,1,0.603,space,0.016,0,65,65,27,1,3_dist_green/trial3.png,,,1,3,greenverival,p,36,20,Female,2021-02-20_15h26.20.089,exp11,2020.2.6,Win32,60,IwAR01LG4lvF9DQSciDRm8DykE2J6eNQ48SZDoCQps7YCXMo7pGu0wmuHUyYw,,,,,,,,,,,
,,,,,,,,,,,,,,p,1,0.636,space,0,0,66,66,16,1,0_dist_green/trial17.png,,,1,0,greenverival,p,36,20,Female,2021-02-20_15h26.20.089,exp11,2020.2.6,Win32,60,IwAR01LG4lvF9DQSciDRm8DykE2J6eNQ48SZDoCQps7YCXMo7pGu0wmuHUyYw,,,,,,,,,,,
,,,,,,,,,,,,,,p,1,0.675,space,0.023,0,67,67,0,1,0_dist_green/trial1.png,,,1,0,greenverival,p,36,20,Female,2021-02-20_15h26.20.089,exp11,2020.2.6,Win32,60,IwAR01LG4lvF9DQSciDRm8DykE2J6eNQ48SZDoCQps7YCXMo7pGu0wmuHUyYw,,,,,,,,,,,
,,,,,,,,,,,,,,p,1,0.575,space,0.068,0,68,68,55,1,9_dist_green/trial6.png,,,1,9,greenverival,p,36,20,Female,2021-02-20_15h26.20.089,exp11,2020.2.6,Win32,60,IwAR01LG4lvF9DQSciDRm8DykE2J6eNQ48SZDoCQps7YCXMo7pGu0wmuHUyYw,,,,,,,,,,,
,,,,,,,,,,,,,,a,1,0.773,space,0.051,0,69,69,101,1,0_targ_1_dist_green/trial2.png,,,0,1,greenverival,a,36,20,Female,2021-02-20_15h26.20.089,exp11,2020.2.6,Win32,60,IwAR01LG4lvF9DQSciDRm8DykE2J6eNQ48SZDoCQps7YCXMo7pGu0wmuHUyYw,,,,,,,,,,,
,,,,,,,,,,,,,,a,1,1.134,space,0.051,0,70,70,195,1,0_targ_16_dist_green/trial21.png,,,0,16,greenverival,a,36,20,Female,2021-02-20_15h26.20.089,exp11,2020.2.6,Win32,60,IwAR01LG4lvF9DQSciDRm8DykE2J6eNQ48SZDoCQps7YCXMo7pGu0wmuHUyYw,,,,,,,,,,,
,,,,,,,,,,,,,,a,1,0.707,space,0.049,0,71,71,156,1,0_targ_10_dist_green/trial7.png,,,0,10,greenverival,a,36,20,Female,2021-02-20_15h26.20.089,exp11,2020.2.6,Win32,60,IwAR01LG4lvF9DQSciDRm8DykE2J6eNQ48SZDoCQps7YCXMo7pGu0wmuHUyYw,,,,,,,,,,,
,,,,,,,,,,,,,,a,1,0.635,space,0.033,0,72,72,151,1,0_targ_10_dist_green/trial2.png,,,0,10,greenverival,a,36,20,Female,2021-02-20_15h26.20.089,exp11,2020.2.6,Win32,60,IwAR01LG4lvF9DQSciDRm8DykE2J6eNQ48SZDoCQps7YCXMo7pGu0wmuHUyYw,,,,,,,,,,,
,,,,,,,,,,,,,,p,1,0.737,space,0.799,0,73,73,57,1,9_dist_green/trial8.png,,,1,9,greenverival,p,36,20,Female,2021-02-20_15h26.20.089,exp11,2020.2.6,Win32,60,IwAR01LG4lvF9DQSciDRm8DykE2J6eNQ48SZDoCQps7YCXMo7pGu0wmuHUyYw,,,,,,,,,,,
,,,,,,,,,,,,,,a,1,1.251,space,0.035,0,74,74,153,1,0_targ_10_dist_green/trial4.png,,,0,10,greenverival,a,36,20,Female,2021-02-20_15h26.20.089,exp11,2020.2.6,Win32,60,IwAR01LG4lvF9DQSciDRm8DykE2J6eNQ48SZDoCQps7YCXMo7pGu0wmuHUyYw,,,,,,,,,,,
,,,,,,,,,,,,,,p,1,0.703,space,0.018,0,75,75,30,1,3_dist_green/trial6.png,,,1,3,greenverival,p,36,20,Female,2021-02-20_15h26.20.089,exp11,2020.2.6,Win32,60,IwAR01LG4lvF9DQSciDRm8DykE2J6eNQ48SZDoCQps7YCXMo7pGu0wmuHUyYw,,,,,,,,,,,
,,,,,,,,,,,,,,p,1,1.003,space,0.032,0,76,76,94,1,15_dist_green/trial20.png,,,1,15,greenverival,p,36,20,Female,2021-02-20_15h26.20.089,exp11,2020.2.6,Win32,60,IwAR01LG4lvF9DQSciDRm8DykE2J6eNQ48SZDoCQps7YCXMo7pGu0wmuHUyYw,,,,,,,,,,,
,,,,,,,,,,,,,,a,1,0.702,space,0.051,0,77,77,132,1,0_targ_4_dist_green/trial8.png,,,0,4,greenverival,a,36,20,Female,2021-02-20_15h26.20.089,exp11,2020.2.6,Win32,60,IwAR01LG4lvF9DQSciDRm8DykE2J6eNQ48SZDoCQps7YCXMo7pGu0wmuHUyYw,,,,,,,,,,,
,,,,,,,,,,,,,,p,1,0.836,space,0.017,0,78,78,59,1,9_dist_green/trial10.png,,,1,9,greenverival,p,36,20,Female,2021-02-20_15h26.20.089,exp11,2020.2.6,Win32,60,IwAR01LG4lvF9DQSciDRm8DykE2J6eNQ48SZDoCQps7YCXMo7pGu0wmuHUyYw,,,,,,,,,,,
,,,,,,,,,,,,,,a,1,0.735,space,0.007,0,79,79,164,1,0_targ_10_dist_green/trial15.png,,,0,10,greenverival,a,36,20,Female,2021-02-20_15h26.20.089,exp11,2020.2.6,Win32,60,IwAR01LG4lvF9DQSciDRm8DykE2J6eNQ48SZDoCQps7YCXMo7pGu0wmuHUyYw,,,,,,,,,,,
,,,,,,,,,,,,,,a,1,0.802,space,0.035,0,80,80,165,1,0_targ_10_dist_green/trial16.png,,,0,10,greenverival,a,36,20,Female,2021-02-20_15h26.20.089,exp11,2020.2.6,Win32,60,IwAR01LG4lvF9DQSciDRm8DykE2J6eNQ48SZDoCQps7YCXMo7pGu0wmuHUyYw,,,,,,,,,,,
,,,,,,,,,,,,,,p,1,0.815,space,0.017,0,81,81,50,1,9_dist_green/trial1.png,,,1,9,greenverival,p,36,20,Female,2021-02-20_15h26.20.089,exp11,2020.2.6,Win32,60,IwAR01LG4lvF9DQSciDRm8DykE2J6eNQ48SZDoCQps7YCXMo7pGu0wmuHUyYw,,,,,,,,,,,
,,,,,,,,,,,,,,a,1,0.821,space,0.049,0,82,82,170,1,0_targ_10_dist_green/trial21.png,,,0,10,greenverival,a,36,20,Female,2021-02-20_15h26.20.089,exp11,2020.2.6,Win32,60,IwAR01LG4lvF9DQSciDRm8DykE2J6eNQ48SZDoCQps7YCXMo7pGu0wmuHUyYw,,,,,,,,,,,
,,,,,,,,,,,,,,p,1,0.669,space,0.067,0,83,83,71,1,9_dist_green/trial22.png,,,1,9,greenverival,p,36,20,Female,2021-02-20_15h26.20.089,exp11,2020.2.6,Win32,60,IwAR01LG4lvF9DQSciDRm8DykE2J6eNQ48SZDoCQps7YCXMo7pGu0wmuHUyYw,,,,,,,,,,,
,,,,,,,,,,,,,,p,1,0.752,space,0.098,0,84,84,91,1,15_dist_green/trial17.png,,,1,15,greenverival,p,36,20,Female,2021-02-20_15h26.20.089,exp11,2020.2.6,Win32,60,IwAR01LG4lvF9DQSciDRm8DykE2J6eNQ48SZDoCQps7YCXMo7pGu0wmuHUyYw,,,,,,,,,,,
,,,,,,,,,,,,,,a,1,0.67,space,0.074,0,85,85,163,1,0_targ_10_dist_green/trial14.png,,,0,10,greenverival,a,36,20,Female,2021-02-20_15h26.20.089,exp11,2020.2.6,Win32,60,IwAR01LG4lvF9DQSciDRm8DykE2J6eNQ48SZDoCQps7YCXMo7pGu0wmuHUyYw,,,,,,,,,,,
,,,,,,,,,,,,,,p,1,0.77,space,0.004,0,86,86,20,1,0_dist_green/trial21.png,,,1,0,greenverival,p,36,20,Female,2021-02-20_15h26.20.089,exp11,2020.2.6,Win32,60,IwAR01LG4lvF9DQSciDRm8DykE2J6eNQ48SZDoCQps7YCXMo7pGu0wmuHUyYw,,,,,,,,,,,
,,,,,,,,,,,,,,p,1,0.653,space,0.067,0,87,87,42,1,3_dist_green/trial18.png,,,1,3,greenverival,p,36,20,Female,2021-02-20_15h26.20.089,exp11,2020.2.6,Win32,60,IwAR01LG4lvF9DQSciDRm8DykE2J6eNQ48SZDoCQps7YCXMo7pGu0wmuHUyYw,,,,,,,,,,,
,,,,,,,,,,,,,,p,1,0.953,space,0.034,0,88,88,78,1,15_dist_green/trial4.png,,,1,15,greenverival,p,36,20,Female,2021-02-20_15h26.20.089,exp11,2020.2.6,Win32,60,IwAR01LG4lvF9DQSciDRm8DykE2J6eNQ48SZDoCQps7YCXMo7pGu0wmuHUyYw,,,,,,,,,,,
,,,,,,,,,,,,,,a,1,0.804,space,0.015,0,89,89,146,1,0_targ_4_dist_green/trial22.png,,,0,4,greenverival,a,36,20,Female,2021-02-20_15h26.20.089,exp11,2020.2.6,Win32,60,IwAR01LG4lvF9DQSciDRm8DykE2J6eNQ48SZDoCQps7YCXMo7pGu0wmuHUyYw,,,,,,,,,,,
,,,,,,,,,,,,,,a,1,0.786,space,0.022,0,90,90,134,1,0_targ_4_dist_green/trial10.png,,,0,4,greenverival,a,36,20,Female,2021-02-20_15h26.20.089,exp11,2020.2.6,Win32,60,IwAR01LG4lvF9DQSciDRm8DykE2J6eNQ48SZDoCQps7YCXMo7pGu0wmuHUyYw,,,,,,,,,,,
,,,,,,,,,,,,,,a,1,0.574,space,0.068,0,91,91,109,1,0_targ_1_dist_green/trial10.png,,,0,1,greenverival,a,36,20,Female,2021-02-20_15h26.20.089,exp11,2020.2.6,Win32,60,IwAR01LG4lvF9DQSciDRm8DykE2J6eNQ48SZDoCQps7YCXMo7pGu0wmuHUyYw,,,,,,,,,,,
,,,,,,,,,,,,,,a,1,0.791,space,0.018,0,92,92,183,1,0_targ_16_dist_green/trial9.png,,,0,16,greenverival,a,36,20,Female,2021-02-20_15h26.20.089,exp11,2020.2.6,Win32,60,IwAR01LG4lvF9DQSciDRm8DykE2J6eNQ48SZDoCQps7YCXMo7pGu0wmuHUyYw,,,,,,,,,,,
,,,,,,,,,,,,,,a,1,0.639,space,0.069,0,93,93,190,1,0_targ_16_dist_green/trial16.png,,,0,16,greenverival,a,36,20,Female,2021-02-20_15h26.20.089,exp11,2020.2.6,Win32,60,IwAR01LG4lvF9DQSciDRm8DykE2J6eNQ48SZDoCQps7YCXMo7pGu0wmuHUyYw,,,,,,,,,,,
,,,,,,,,,,,,,,p,1,0.686,space,0.042,0,94,94,23,1,0_dist_green/trial24.png,,,1,0,greenverival,p,36,20,Female,2021-02-20_15h26.20.089,exp11,2020.2.6,Win32,60,IwAR01LG4lvF9DQSciDRm8DykE2J6eNQ48SZDoCQps7YCXMo7pGu0wmuHUyYw,,,,,,,,,,,
,,,,,,,,,,,,,,a,1,0.619,space,0.049,0,95,95,138,1,0_targ_4_dist_green/trial14.png,,,0,4,greenverival,a,36,20,Female,2021-02-20_15h26.20.089,exp11,2020.2.6,Win32,60,IwAR01LG4lvF9DQSciDRm8DykE2J6eNQ48SZDoCQps7YCXMo7pGu0wmuHUyYw,,,,,,,,,,,
,,,,,,,,,,,,,,p,1,0.72,space,0.033,0,96,96,21,1,0_dist_green/trial22.png,,,1,0,greenverival,p,36,20,Female,2021-02-20_15h26.20.089,exp11,2020.2.6,Win32,60,IwAR01LG4lvF9DQSciDRm8DykE2J6eNQ48SZDoCQps7YCXMo7pGu0wmuHUyYw,,,,,,,,,,,
,,,,,,,,,,,,,,p,1,0.753,space,0.033,0,97,97,54,1,9_dist_green/trial5.png,,,1,9,greenverival,p,36,20,Female,2021-02-20_15h26.20.089,exp11,2020.2.6,Win32,60,IwAR01LG4lvF9DQSciDRm8DykE2J6eNQ48SZDoCQps7YCXMo7pGu0wmuHUyYw,,,,,,,,,,,
,,,,,,,,,,,,,,a,1,0.735,space,0.07,0,98,98,161,1,0_targ_10_dist_green/trial12.png,,,0,10,greenverival,a,36,20,Female,2021-02-20_15h26.20.089,exp11,2020.2.6,Win32,60,IwAR01LG4lvF9DQSciDRm8DykE2J6eNQ48SZDoCQps7YCXMo7pGu0wmuHUyYw,,,,,,,,,,,
,,,,,,,,,,,,,,p,0,0.604,space,1.233,0,99,99,113,1,0_targ_1_dist_green/trial14.png,,,0,1,greenverival,a,36,20,Female,2021-02-20_15h26.20.089,exp11,2020.2.6,Win32,60,IwAR01LG4lvF9DQSciDRm8DykE2J6eNQ48SZDoCQps7YCXMo7pGu0wmuHUyYw,,,,,,,,,,,
,,,,,,,,,,,,,,p,1,1.051,space,0.037,0,100,100,53,1,9_dist_green/trial4.png,,,1,9,greenverival,p,36,20,Female,2021-02-20_15h26.20.089,exp11,2020.2.6,Win32,60,IwAR01LG4lvF9DQSciDRm8DykE2J6eNQ48SZDoCQps7YCXMo7pGu0wmuHUyYw,,,,,,,,,,,
,,,,,,,,,,,,,,a,1,0.752,space,0.032,0,101,101,143,1,0_targ_4_dist_green/trial19.png,,,0,4,greenverival,a,36,20,Female,2021-02-20_15h26.20.089,exp11,2020.2.6,Win32,60,IwAR01LG4lvF9DQSciDRm8DykE2J6eNQ48SZDoCQps7YCXMo7pGu0wmuHUyYw,,,,,,,,,,,
,,,,,,,,,,,,,,a,1,0.7,space,0.052,0,102,102,128,1,0_targ_4_dist_green/trial4.png,,,0,4,greenverival,a,36,20,Female,2021-02-20_15h26.20.089,exp11,2020.2.6,Win32,60,IwAR01LG4lvF9DQSciDRm8DykE2J6eNQ48SZDoCQps7YCXMo7pGu0wmuHUyYw,,,,,,,,,,,
,,,,,,,,,,,,,,a,1,0.586,space,0.05,0,103,103,102,1,0_targ_1_dist_green/trial3.png,,,0,1,greenverival,a,36,20,Female,2021-02-20_15h26.20.089,exp11,2020.2.6,Win32,60,IwAR01LG4lvF9DQSciDRm8DykE2J6eNQ48SZDoCQps7YCXMo7pGu0wmuHUyYw,,,,,,,,,,,
,,,,,,,,,,,,,,p,1,0.652,space,0.033,0,104,104,86,1,15_dist_green/trial12.png,,,1,15,greenverival,p,36,20,Female,2021-02-20_15h26.20.089,exp11,2020.2.6,Win32,60,IwAR01LG4lvF9DQSciDRm8DykE2J6eNQ48SZDoCQps7YCXMo7pGu0wmuHUyYw,,,,,,,,,,,
,,,,,,,,,,,,,,a,1,0.669,space,0.088,0,105,105,121,1,0_targ_1_dist_green/trial22.png,,,0,1,greenverival,a,36,20,Female,2021-02-20_15h26.20.089,exp11,2020.2.6,Win32,60,IwAR01LG4lvF9DQSciDRm8DykE2J6eNQ48SZDoCQps7YCXMo7pGu0wmuHUyYw,,,,,,,,,,,
,,,,,,,,,,,,,,a,1,1.32,space,0.067,0,106,106,192,1,0_targ_16_dist_green/trial18.png,,,0,16,greenverival,a,36,20,Female,2021-02-20_15h26.20.089,exp11,2020.2.6,Win32,60,IwAR01LG4lvF9DQSciDRm8DykE2J6eNQ48SZDoCQps7YCXMo7pGu0wmuHUyYw,,,,,,,,,,,
,,,,,,,,,,,,,,p,1,0.769,space,0.001,0,107,107,6,1,0_dist_green/trial7.png,,,1,0,greenverival,p,36,20,Female,2021-02-20_15h26.20.089,exp11,2020.2.6,Win32,60,IwAR01LG4lvF9DQSciDRm8DykE2J6eNQ48SZDoCQps7YCXMo7pGu0wmuHUyYw,,,,,,,,,,,
,,,,,,,,,,,,,,a,1,0.67,space,0.053,0,108,108,171,1,0_targ_10_dist_green/trial22.png,,,0,10,greenverival,a,36,20,Female,2021-02-20_15h26.20.089,exp11,2020.2.6,Win32,60,IwAR01LG4lvF9DQSciDRm8DykE2J6eNQ48SZDoCQps7YCXMo7pGu0wmuHUyYw,,,,,,,,,,,
,,,,,,,,,,,,,,a,1,0.682,space,0.016,0,109,109,103,1,0_targ_1_dist_green/trial4.png,,,0,1,greenverival,a,36,20,Female,2021-02-20_15h26.20.089,exp11,2020.2.6,Win32,60,IwAR01LG4lvF9DQSciDRm8DykE2J6eNQ48SZDoCQps7YCXMo7pGu0wmuHUyYw,,,,,,,,,,,
,,,,,,,,,,,,,,a,0,0.622,space,0.101,0,110,110,65,1,9_dist_green/trial16.png,,,1,9,greenverival,p,36,20,Female,2021-02-20_15h26.20.089,exp11,2020.2.6,Win32,60,IwAR01LG4lvF9DQSciDRm8DykE2J6eNQ48SZDoCQps7YCXMo7pGu0wmuHUyYw,,,,,,,,,,,
,,,,,,,,,,,,,,p,1,1.05,space,0.014,0,111,111,75,1,15_dist_green/trial1.png,,,1,15,greenverival,p,36,20,Female,2021-02-20_15h26.20.089,exp11,2020.2.6,Win32,60,IwAR01LG4lvF9DQSciDRm8DykE2J6eNQ48SZDoCQps7YCXMo7pGu0wmuHUyYw,,,,,,,,,,,
,,,,,,,,,,,,,,p,1,0.724,space,0.019,0,112,112,87,1,15_dist_green/trial13.png,,,1,15,greenverival,p,36,20,Female,2021-02-20_15h26.20.089,exp11,2020.2.6,Win32,60,IwAR01LG4lvF9DQSciDRm8DykE2J6eNQ48SZDoCQps7YCXMo7pGu0wmuHUyYw,,,,,,,,,,,
,,,,,,,,,,,,,,p,1,0.602,space,0.018,0,113,113,84,1,15_dist_green/trial10.png,,,1,15,greenverival,p,36,20,Female,2021-02-20_15h26.20.089,exp11,2020.2.6,Win32,60,IwAR01LG4lvF9DQSciDRm8DykE2J6eNQ48SZDoCQps7YCXMo7pGu0wmuHUyYw,,,,,,,,,,,
,,,,,,,,,,,,,,p,1,0.636,space,0.002,0,114,114,72,1,9_dist_green/trial23.png,,,1,9,greenverival,p,36,20,Female,2021-02-20_15h26.20.089,exp11,2020.2.6,Win32,60,IwAR01LG4lvF9DQSciDRm8DykE2J6eNQ48SZDoCQps7YCXMo7pGu0wmuHUyYw,,,,,,,,,,,
,,,,,,,,,,,,,,p,1,0.602,space,0.019,0,115,115,88,1,15_dist_green/trial14.png,,,1,15,greenverival,p,36,20,Female,2021-02-20_15h26.20.089,exp11,2020.2.6,Win32,60,IwAR01LG4lvF9DQSciDRm8DykE2J6eNQ48SZDoCQps7YCXMo7pGu0wmuHUyYw,,,,,,,,,,,
,,,,,,,,,,,,,,p,1,0.502,space,0.017,0,116,116,63,1,9_dist_green/trial14.png,,,1,9,greenverival,p,36,20,Female,2021-02-20_15h26.20.089,exp11,2020.2.6,Win32,60,IwAR01LG4lvF9DQSciDRm8DykE2J6eNQ48SZDoCQps7YCXMo7pGu0wmuHUyYw,,,,,,,,,,,
,,,,,,,,,,,,,,a,1,0.786,space,0.017,0,117,117,159,1,0_targ_10_dist_green/trial10.png,,,0,10,greenverival,a,36,20,Female,2021-02-20_15h26.20.089,exp11,2020.2.6,Win32,60,IwAR01LG4lvF9DQSciDRm8DykE2J6eNQ48SZDoCQps7YCXMo7pGu0wmuHUyYw,,,,,,,,,,,
,,,,,,,,,,,,,,a,1,0.954,space,0.034,0,118,118,173,1,0_targ_10_dist_green/trial24.png,,,0,10,greenverival,a,36,20,Female,2021-02-20_15h26.20.089,exp11,2020.2.6,Win32,60,IwAR01LG4lvF9DQSciDRm8DykE2J6eNQ48SZDoCQps7YCXMo7pGu0wmuHUyYw,,,,,,,,,,,
,,,,,,,,,,,,,,a,1,0.619,space,0.07,0,119,119,129,1,0_targ_4_dist_green/trial5.png,,,0,4,greenverival,a,36,20,Female,2021-02-20_15h26.20.089,exp11,2020.2.6,Win32,60,IwAR01LG4lvF9DQSciDRm8DykE2J6eNQ48SZDoCQps7YCXMo7pGu0wmuHUyYw,,,,,,,,,,,
,,,,,,,,,,,,,,p,0,0.754,space,0.635,0,120,120,122,1,0_targ_1_dist_green/trial23.png,,,0,1,greenverival,a,36,20,Female,2021-02-20_15h26.20.089,exp11,2020.2.6,Win32,60,IwAR01LG4lvF9DQSciDRm8DykE2J6eNQ48SZDoCQps7YCXMo7pGu0wmuHUyYw,,,,,,,,,,,
,,,,,,,,,,,,,,a,1,0.935,space,0.021,0,121,121,152,1,0_targ_10_dist_green/trial3.png,,,0,10,greenverival,a,36,20,Female,2021-02-20_15h26.20.089,exp11,2020.2.6,Win32,60,IwAR01LG4lvF9DQSciDRm8DykE2J6eNQ48SZDoCQps7YCXMo7pGu0wmuHUyYw,,,,,,,,,,,
,,,,,,,,,,,,,,a,1,0.671,space,0.048,0,122,122,115,1,0_targ_1_dist_green/trial6.png,,,0,1,greenverival,a,36,20,Female,2021-02-20_15h26.20.089,exp11,2020.2.6,Win32,60,IwAR01LG4lvF9DQSciDRm8DykE2J6eNQ48SZDoCQps7YCXMo7pGu0wmuHUyYw,,,,,,,,,,,
,,,,,,,,,,,,,,a,1,1.585,space,0.001,0,123,123,123,1,0_targ_1_dist_green/trial24.png,,,0,1,greenverival,a,36,20,Female,2021-02-20_15h26.20.089,exp11,2020.2.6,Win32,60,IwAR01LG4lvF9DQSciDRm8DykE2J6eNQ48SZDoCQps7YCXMo7pGu0wmuHUyYw,,,,,,,,,,,
,,,,,,,,,,,,,,a,1,1.5,space,0.068,0,124,124,191,1,0_targ_16_dist_green/trial17.png,,,0,16,greenverival,a,36,20,Female,2021-02-20_15h26.20.089,exp11,2020.2.6,Win32,60,IwAR01LG4lvF9DQSciDRm8DykE2J6eNQ48SZDoCQps7YCXMo7pGu0wmuHUyYw,,,,,,,,,,,
,,,,,,,,,,,,,,a,1,0.654,space,0.018,0,125,125,157,1,0_targ_10_dist_green/trial8.png,,,0,10,greenverival,a,36,20,Female,2021-02-20_15h26.20.089,exp11,2020.2.6,Win32,60,IwAR01LG4lvF9DQSciDRm8DykE2J6eNQ48SZDoCQps7YCXMo7pGu0wmuHUyYw,,,,,,,,,,,
,,,,,,,,,,,,,,a,1,0.619,space,0.016,0,126,126,140,1,0_targ_4_dist_green/trial6.png,,,0,4,greenverival,a,36,20,Female,2021-02-20_15h26.20.089,exp11,2020.2.6,Win32,60,IwAR01LG4lvF9DQSciDRm8DykE2J6eNQ48SZDoCQps7YCXMo7pGu0wmuHUyYw,,,,,,,,,,,
,,,,,,,,,,,,,,a,1,0.504,space,0.082,0,127,127,112,1,0_targ_1_dist_green/trial13.png,,,0,1,greenverival,a,36,20,Female,2021-02-20_15h26.20.089,exp11,2020.2.6,Win32,60,IwAR01LG4lvF9DQSciDRm8DykE2J6eNQ48SZDoCQps7YCXMo7pGu0wmuHUyYw,,,,,,,,,,,
,,,,,,,,,,,,,,a,1,0.732,space,0.034,0,128,128,141,1,0_targ_4_dist_green/trial17.png,,,0,4,greenverival,a,36,20,Female,2021-02-20_15h26.20.089,exp11,2020.2.6,Win32,60,IwAR01LG4lvF9DQSciDRm8DykE2J6eNQ48SZDoCQps7YCXMo7pGu0wmuHUyYw,,,,,,,,,,,
,,,,,,,,,,,,,,a,1,0.569,space,0.033,0,129,129,117,1,0_targ_1_dist_green/trial18.png,,,0,1,greenverival,a,36,20,Female,2021-02-20_15h26.20.089,exp11,2020.2.6,Win32,60,IwAR01LG4lvF9DQSciDRm8DykE2J6eNQ48SZDoCQps7YCXMo7pGu0wmuHUyYw,,,,,,,,,,,
,,,,,,,,,,,,,,p,1,1.003,space,0.018,0,130,130,73,1,9_dist_green/trial24.png,,,1,9,greenverival,p,36,20,Female,2021-02-20_15h26.20.089,exp11,2020.2.6,Win32,60,IwAR01LG4lvF9DQSciDRm8DykE2J6eNQ48SZDoCQps7YCXMo7pGu0wmuHUyYw,,,,,,,,,,,
,,,,,,,,,,,,,,p,1,0.637,space,0.051,0,131,131,64,1,9_dist_green/trial15.png,,,1,9,greenverival,p,36,20,Female,2021-02-20_15h26.20.089,exp11,2020.2.6,Win32,60,IwAR01LG4lvF9DQSciDRm8DykE2J6eNQ48SZDoCQps7YCXMo7pGu0wmuHUyYw,,,,,,,,,,,
,,,,,,,,,,,,,,a,1,0.651,space,0.07,0,132,132,133,1,0_targ_4_dist_green/trial9.png,,,0,4,greenverival,a,36,20,Female,2021-02-20_15h26.20.089,exp11,2020.2.6,Win32,60,IwAR01LG4lvF9DQSciDRm8DykE2J6eNQ48SZDoCQps7YCXMo7pGu0wmuHUyYw,,,,,,,,,,,
,,,,,,,,,,,,,,p,1,0.754,space,0,0,133,133,29,1,3_dist_green/trial5.png,,,1,3,greenverival,p,36,20,Female,2021-02-20_15h26.20.089,exp11,2020.2.6,Win32,60,IwAR01LG4lvF9DQSciDRm8DykE2J6eNQ48SZDoCQps7YCXMo7pGu0wmuHUyYw,,,,,,,,,,,
,,,,,,,,,,,,,,a,1,0.853,space,0.035,0,134,134,137,1,0_targ_4_dist_green/trial13.png,,,0,4,greenverival,a,36,20,Female,2021-02-20_15h26.20.089,exp11,2020.2.6,Win32,60,IwAR01LG4lvF9DQSciDRm8DykE2J6eNQ48SZDoCQps7YCXMo7pGu0wmuHUyYw,,,,,,,,,,,
,,,,,,,,,,,,,,p,1,0.784,space,0.033,0,135,135,4,1,0_dist_green/trial5.png,,,1,0,greenverival,p,36,20,Female,2021-02-20_15h26.20.089,exp11,2020.2.6,Win32,60,IwAR01LG4lvF9DQSciDRm8DykE2J6eNQ48SZDoCQps7YCXMo7pGu0wmuHUyYw,,,,,,,,,,,
,,,,,,,,,,,,,,a,0,0.787,space,0.186,0,136,136,89,1,15_dist_green/trial15.png,,,1,15,greenverival,p,36,20,Female,2021-02-20_15h26.20.089,exp11,2020.2.6,Win32,60,IwAR01LG4lvF9DQSciDRm8DykE2J6eNQ48SZDoCQps7YCXMo7pGu0wmuHUyYw,,,,,,,,,,,
,,,,,,,,,,,,,,p,1,0.843,space,0.896,0,137,137,40,1,3_dist_green/trial16.png,,,1,3,greenverival,p,36,20,Female,2021-02-20_15h26.20.089,exp11,2020.2.6,Win32,60,IwAR01LG4lvF9DQSciDRm8DykE2J6eNQ48SZDoCQps7YCXMo7pGu0wmuHUyYw,,,,,,,,,,,
,,,,,,,,,,,,,,a,1,0.867,space,0.069,0,138,138,187,1,0_targ_16_dist_green/trial13.png,,,0,16,greenverival,a,36,20,Female,2021-02-20_15h26.20.089,exp11,2020.2.6,Win32,60,IwAR01LG4lvF9DQSciDRm8DykE2J6eNQ48SZDoCQps7YCXMo7pGu0wmuHUyYw,,,,,,,,,,,
,,,,,,,,,,,,,,a,1,0.768,space,0.007,0,139,139,176,1,0_targ_16_dist_green/trial2.png,,,0,16,greenverival,a,36,20,Female,2021-02-20_15h26.20.089,exp11,2020.2.6,Win32,60,IwAR01LG4lvF9DQSciDRm8DykE2J6eNQ48SZDoCQps7YCXMo7pGu0wmuHUyYw,,,,,,,,,,,
,,,,,,,,,,,,,,a,1,0.67,space,0.067,0,140,140,188,1,0_targ_16_dist_green/trial14.png,,,0,16,greenverival,a,36,20,Female,2021-02-20_15h26.20.089,exp11,2020.2.6,Win32,60,IwAR01LG4lvF9DQSciDRm8DykE2J6eNQ48SZDoCQps7YCXMo7pGu0wmuHUyYw,,,,,,,,,,,
,,,,,,,,,,,,,,a,1,1.188,space,0.04,0,141,141,172,1,0_targ_10_dist_green/trial23.png,,,0,10,greenverival,a,36,20,Female,2021-02-20_15h26.20.089,exp11,2020.2.6,Win32,60,IwAR01LG4lvF9DQSciDRm8DykE2J6eNQ48SZDoCQps7YCXMo7pGu0wmuHUyYw,,,,,,,,,,,
,,,,,,,,,,,,,,p,1,0.87,space,0.04,0,142,142,34,1,3_dist_green/trial10.png,,,1,3,greenverival,p,36,20,Female,2021-02-20_15h26.20.089,exp11,2020.2.6,Win32,60,IwAR01LG4lvF9DQSciDRm8DykE2J6eNQ48SZDoCQps7YCXMo7pGu0wmuHUyYw,,,,,,,,,,,
,,,,,,,,,,,,,,a,1,0.718,space,0.05,0,143,143,178,1,0_targ_16_dist_green/trial4.png,,,0,16,greenverival,a,36,20,Female,2021-02-20_15h26.20.089,exp11,2020.2.6,Win32,60,IwAR01LG4lvF9DQSciDRm8DykE2J6eNQ48SZDoCQps7YCXMo7pGu0wmuHUyYw,,,,,,,,,,,
,,,,,,,,,,,,,,p,1,0.668,space,0.029,0,144,144,2,1,0_dist_green/trial3.png,,,1,0,greenverival,p,36,20,Female,2021-02-20_15h26.20.089,exp11,2020.2.6,Win32,60,IwAR01LG4lvF9DQSciDRm8DykE2J6eNQ48SZDoCQps7YCXMo7pGu0wmuHUyYw,,,,,,,,,,,
,,,,,,,,,,,,,,p,1,0.622,space,0.034,0,145,145,22,1,0_dist_green/trial23.png,,,1,0,greenverival,p,36,20,Female,2021-02-20_15h26.20.089,exp11,2020.2.6,Win32,60,IwAR01LG4lvF9DQSciDRm8DykE2J6eNQ48SZDoCQps7YCXMo7pGu0wmuHUyYw,,,,,,,,,,,
,,,,,,,,,,,,,,a,1,0.62,space,0.03,0,146,146,193,1,0_targ_16_dist_green/trial19.png,,,0,16,greenverival,a,36,20,Female,2021-02-20_15h26.20.089,exp11,2020.2.6,Win32,60,IwAR01LG4lvF9DQSciDRm8DykE2J6eNQ48SZDoCQps7YCXMo7pGu0wmuHUyYw,,,,,,,,,,,
,,,,,,,,,,,,,,a,1,0.901,space,0.037,0,147,147,135,1,0_targ_4_dist_green/trial11.png,,,0,4,greenverival,a,36,20,Female,2021-02-20_15h26.20.089,exp11,2020.2.6,Win32,60,IwAR01LG4lvF9DQSciDRm8DykE2J6eNQ48SZDoCQps7YCXMo7pGu0wmuHUyYw,,,,,,,,,,,
,,,,,,,,,,,,,,a,1,0.703,space,0.018,0,148,148,139,1,0_targ_4_dist_green/trial15.png,,,0,4,greenverival,a,36,20,Female,2021-02-20_15h26.20.089,exp11,2020.2.6,Win32,60,IwAR01LG4lvF9DQSciDRm8DykE2J6eNQ48SZDoCQps7YCXMo7pGu0wmuHUyYw,,,,,,,,,,,
,,,,,,,,,,,,,,a,1,0.638,space,0.038,0,149,149,160,1,0_targ_10_dist_green/trial11.png,,,0,10,greenverival,a,36,20,Female,2021-02-20_15h26.20.089,exp11,2020.2.6,Win32,60,IwAR01LG4lvF9DQSciDRm8DykE2J6eNQ48SZDoCQps7YCXMo7pGu0wmuHUyYw,,,,,,,,,,,
,,,,,,,,,,,,,,a,1,0.587,space,0.018,0,150,150,166,1,0_targ_10_dist_green/trial17.png,,,0,10,greenverival,a,36,20,Female,2021-02-20_15h26.20.089,exp11,2020.2.6,Win32,60,IwAR01LG4lvF9DQSciDRm8DykE2J6eNQ48SZDoCQps7YCXMo7pGu0wmuHUyYw,,,,,,,,,,,
,,,,,,,,,,,,,,a,1,0.537,space,0.066,0,151,151,130,1,0_targ_4_dist_green/trial6.png,,,0,4,greenverival,a,36,20,Female,2021-02-20_15h26.20.089,exp11,2020.2.6,Win32,60,IwAR01LG4lvF9DQSciDRm8DykE2J6eNQ48SZDoCQps7YCXMo7pGu0wmuHUyYw,,,,,,,,,,,
,,,,,,,,,,,,,,a,1,0.567,space,0.086,0,152,152,136,1,0_targ_4_dist_green/trial12.png,,,0,4,greenverival,a,36,20,Female,2021-02-20_15h26.20.089,exp11,2020.2.6,Win32,60,IwAR01LG4lvF9DQSciDRm8DykE2J6eNQ48SZDoCQps7YCXMo7pGu0wmuHUyYw,,,,,,,,,,,
,,,,,,,,,,,,,,p,1,0.686,space,0.019,0,153,153,18,1,0_dist_green/trial19.png,,,1,0,greenverival,p,36,20,Female,2021-02-20_15h26.20.089,exp11,2020.2.6,Win32,60,IwAR01LG4lvF9DQSciDRm8DykE2J6eNQ48SZDoCQps7YCXMo7pGu0wmuHUyYw,,,,,,,,,,,
,,,,,,,,,,,,,,p,1,0.72,space,0.021,0,154,154,62,1,9_dist_green/trial13.png,,,1,9,greenverival,p,36,20,Female,2021-02-20_15h26.20.089,exp11,2020.2.6,Win32,60,IwAR01LG4lvF9DQSciDRm8DykE2J6eNQ48SZDoCQps7YCXMo7pGu0wmuHUyYw,,,,,,,,,,,
,,,,,,,,,,,,,,a,1,0.753,space,0.052,0,155,155,114,1,0_targ_1_dist_green/trial15.png,,,0,1,greenverival,a,36,20,Female,2021-02-20_15h26.20.089,exp11,2020.2.6,Win32,60,IwAR01LG4lvF9DQSciDRm8DykE2J6eNQ48SZDoCQps7YCXMo7pGu0wmuHUyYw,,,,,,,,,,,
,,,,,,,,,,,,,,p,1,0.604,space,0.05,0,156,156,3,1,0_dist_green/trial4.png,,,1,0,greenverival,p,36,20,Female,2021-02-20_15h26.20.089,exp11,2020.2.6,Win32,60,IwAR01LG4lvF9DQSciDRm8DykE2J6eNQ48SZDoCQps7YCXMo7pGu0wmuHUyYw,,,,,,,,,,,
,,,,,,,,,,,,,,p,1,0.83,space,0.067,0,157,157,51,1,9_dist_green/trial2.png,,,1,9,greenverival,p,36,20,Female,2021-02-20_15h26.20.089,exp11,2020.2.6,Win32,60,IwAR01LG4lvF9DQSciDRm8DykE2J6eNQ48SZDoCQps7YCXMo7pGu0wmuHUyYw,,,,,,,,,,,
,,,,,,,,,,,,,,a,1,0.689,space,0.04,0,158,158,148,1,0_targ_4_dist_green/trial24.png,,,0,4,greenverival,a,36,20,Female,2021-02-20_15h26.20.089,exp11,2020.2.6,Win32,60,IwAR01LG4lvF9DQSciDRm8DykE2J6eNQ48SZDoCQps7YCXMo7pGu0wmuHUyYw,,,,,,,,,,,
,,,,,,,,,,,,,,a,1,0.653,space,0.022,0,159,159,104,1,0_targ_1_dist_green/trial5.png,,,0,1,greenverival,a,36,20,Female,2021-02-20_15h26.20.089,exp11,2020.2.6,Win32,60,IwAR01LG4lvF9DQSciDRm8DykE2J6eNQ48SZDoCQps7YCXMo7pGu0wmuHUyYw,,,,,,,,,,,
,,,,,,,,,,,,,,p,1,0.869,space,0.033,0,160,160,83,1,15_dist_green/trial9.png,,,1,15,greenverival,p,36,20,Female,2021-02-20_15h26.20.089,exp11,2020.2.6,Win32,60,IwAR01LG4lvF9DQSciDRm8DykE2J6eNQ48SZDoCQps7YCXMo7pGu0wmuHUyYw,,,,,,,,,,,
,,,,,,,,,,,,,,p,1,1.009,space,0.053,0,161,161,93,1,15_dist_green/trial19.png,,,1,15,greenverival,p,36,20,Female,2021-02-20_15h26.20.089,exp11,2020.2.6,Win32,60,IwAR01LG4lvF9DQSciDRm8DykE2J6eNQ48SZDoCQps7YCXMo7pGu0wmuHUyYw,,,,,,,,,,,
,,,,,,,,,,,,,,a,1,0.671,space,0.066,0,162,162,108,1,0_targ_1_dist_green/trial9.png,,,0,1,greenverival,a,36,20,Female,2021-02-20_15h26.20.089,exp11,2020.2.6,Win32,60,IwAR01LG4lvF9DQSciDRm8DykE2J6eNQ48SZDoCQps7YCXMo7pGu0wmuHUyYw,,,,,,,,,,,
,,,,,,,,,,,,,,a,1,0.956,space,0.134,0,163,163,196,1,0_targ_16_dist_green/trial22.png,,,0,16,greenverival,a,36,20,Female,2021-02-20_15h26.20.089,exp11,2020.2.6,Win32,60,IwAR01LG4lvF9DQSciDRm8DykE2J6eNQ48SZDoCQps7YCXMo7pGu0wmuHUyYw,,,,,,,,,,,
,,,,,,,,,,,,,,a,1,1.205,space,0.036,0,164,164,182,1,0_targ_16_dist_green/trial8.png,,,0,16,greenverival,a,36,20,Female,2021-02-20_15h26.20.089,exp11,2020.2.6,Win32,60,IwAR01LG4lvF9DQSciDRm8DykE2J6eNQ48SZDoCQps7YCXMo7pGu0wmuHUyYw,,,,,,,,,,,
,,,,,,,,,,,,,,a,1,0.642,space,0.074,0,165,165,174,1,0_targ_10_dist_green/trial25.png,,,0,10,greenverival,a,36,20,Female,2021-02-20_15h26.20.089,exp11,2020.2.6,Win32,60,IwAR01LG4lvF9DQSciDRm8DykE2J6eNQ48SZDoCQps7YCXMo7pGu0wmuHUyYw,,,,,,,,,,,
,,,,,,,,,,,,,,a,0,0.519,space,0.332,0,166,166,80,1,15_dist_green/trial6.png,,,1,15,greenverival,p,36,20,Female,2021-02-20_15h26.20.089,exp11,2020.2.6,Win32,60,IwAR01LG4lvF9DQSciDRm8DykE2J6eNQ48SZDoCQps7YCXMo7pGu0wmuHUyYw,,,,,,,,,,,
,,,,,,,,,,,,,,p,1,0.67,space,0.014,0,167,167,43,1,3_dist_green/trial19.png,,,1,3,greenverival,p,36,20,Female,2021-02-20_15h26.20.089,exp11,2020.2.6,Win32,60,IwAR01LG4lvF9DQSciDRm8DykE2J6eNQ48SZDoCQps7YCXMo7pGu0wmuHUyYw,,,,,,,,,,,
,,,,,,,,,,,,,,p,1,0.542,space,0.05,0,168,168,19,1,0_dist_green/trial20.png,,,1,0,greenverival,p,36,20,Female,2021-02-20_15h26.20.089,exp11,2020.2.6,Win32,60,IwAR01LG4lvF9DQSciDRm8DykE2J6eNQ48SZDoCQps7YCXMo7pGu0wmuHUyYw,,,,,,,,,,,
,,,,,,,,,,,,,,a,1,0.687,space,0,0,169,169,147,1,0_targ_4_dist_green/trial23.png,,,0,4,greenverival,a,36,20,Female,2021-02-20_15h26.20.089,exp11,2020.2.6,Win32,60,IwAR01LG4lvF9DQSciDRm8DykE2J6eNQ48SZDoCQps7YCXMo7pGu0wmuHUyYw,,,,,,,,,,,
,,,,,,,,,,,,,,a,1,0.607,space,0.067,0,170,170,124,1,0_targ_1_dist_green/trial25.png,,,0,1,greenverival,a,36,20,Female,2021-02-20_15h26.20.089,exp11,2020.2.6,Win32,60,IwAR01LG4lvF9DQSciDRm8DykE2J6eNQ48SZDoCQps7YCXMo7pGu0wmuHUyYw,,,,,,,,,,,
,,,,,,,,,,,,,,p,1,0.603,space,0.818,0,171,171,24,1,0_dist_green/trial25.png,,,1,0,greenverival,p,36,20,Female,2021-02-20_15h26.20.089,exp11,2020.2.6,Win32,60,IwAR01LG4lvF9DQSciDRm8DykE2J6eNQ48SZDoCQps7YCXMo7pGu0wmuHUyYw,,,,,,,,,,,
,,,,,,,,,,,,,,p,1,0.671,space,0.015,0,172,172,1,1,0_dist_green/trial2.png,,,1,0,greenverival,p,36,20,Female,2021-02-20_15h26.20.089,exp11,2020.2.6,Win32,60,IwAR01LG4lvF9DQSciDRm8DykE2J6eNQ48SZDoCQps7YCXMo7pGu0wmuHUyYw,,,,,,,,,,,
,,,,,,,,,,,,,,a,1,1.305,space,0.101,0,173,173,120,1,0_targ_1_dist_green/trial21.png,,,0,1,greenverival,a,36,20,Female,2021-02-20_15h26.20.089,exp11,2020.2.6,Win32,60,IwAR01LG4lvF9DQSciDRm8DykE2J6eNQ48SZDoCQps7YCXMo7pGu0wmuHUyYw,,,,,,,,,,,
,,,,,,,,,,,,,,p,1,0.804,space,0.018,0,174,174,58,1,9_dist_green/trial9.png,,,1,9,greenverival,p,36,20,Female,2021-02-20_15h26.20.089,exp11,2020.2.6,Win32,60,IwAR01LG4lvF9DQSciDRm8DykE2J6eNQ48SZDoCQps7YCXMo7pGu0wmuHUyYw,,,,,,,,,,,
,,,,,,,,,,,,,,a,1,0.805,space,0.034,0,175,175,142,1,0_targ_4_dist_green/trial18.png,,,0,4,greenverival,a,36,20,Female,2021-02-20_15h26.20.089,exp11,2020.2.6,Win32,60,IwAR01LG4lvF9DQSciDRm8DykE2J6eNQ48SZDoCQps7YCXMo7pGu0wmuHUyYw,,,,,,,,,,,
,,,,,,,,,,,,,,p,1,0.736,space,0.749,0,176,176,47,1,3_dist_green/trial23.png,,,1,3,greenverival,p,36,20,Female,2021-02-20_15h26.20.089,exp11,2020.2.6,Win32,60,IwAR01LG4lvF9DQSciDRm8DykE2J6eNQ48SZDoCQps7YCXMo7pGu0wmuHUyYw,,,,,,,,,,,
,,,,,,,,,,,,,,p,1,0.639,space,0.053,0,177,177,81,1,15_dist_green/trial7.png,,,1,15,greenverival,p,36,20,Female,2021-02-20_15h26.20.089,exp11,2020.2.6,Win32,60,IwAR01LG4lvF9DQSciDRm8DykE2J6eNQ48SZDoCQps7YCXMo7pGu0wmuHUyYw,,,,,,,,,,,
,,,,,,,,,,,,,,p,1,0.754,space,0.067,0,178,178,49,1,3_dist_green/trial25.png,,,1,3,greenverival,p,36,20,Female,2021-02-20_15h26.20.089,exp11,2020.2.6,Win32,60,IwAR01LG4lvF9DQSciDRm8DykE2J6eNQ48SZDoCQps7YCXMo7pGu0wmuHUyYw,,,,,,,,,,,
,,,,,,,,,,,,,,a,1,0.918,space,0.067,0,179,179,185,1,0_targ_16_dist_green/trial11.png,,,0,16,greenverival,a,36,20,Female,2021-02-20_15h26.20.089,exp11,2020.2.6,Win32,60,IwAR01LG4lvF9DQSciDRm8DykE2J6eNQ48SZDoCQps7YCXMo7pGu0wmuHUyYw,,,,,,,,,,,
,,,,,,,,,,,,,,a,1,0.621,space,0.051,0,180,180,131,1,0_targ_4_dist_green/trial7.png,,,0,4,greenverival,a,36,20,Female,2021-02-20_15h26.20.089,exp11,2020.2.6,Win32,60,IwAR01LG4lvF9DQSciDRm8DykE2J6eNQ48SZDoCQps7YCXMo7pGu0wmuHUyYw,,,,,,,,,,,
,,,,,,,,,,,,,,p,1,0.671,space,0.067,0,181,181,67,1,9_dist_green/trial18.png,,,1,9,greenverival,p,36,20,Female,2021-02-20_15h26.20.089,exp11,2020.2.6,Win32,60,IwAR01LG4lvF9DQSciDRm8DykE2J6eNQ48SZDoCQps7YCXMo7pGu0wmuHUyYw,,,,,,,,,,,
,,,,,,,,,,,,,,a,1,0.719,space,0.051,0,182,182,184,1,0_targ_16_dist_green/trial10.png,,,0,16,greenverival,a,36,20,Female,2021-02-20_15h26.20.089,exp11,2020.2.6,Win32,60,IwAR01LG4lvF9DQSciDRm8DykE2J6eNQ48SZDoCQps7YCXMo7pGu0wmuHUyYw,,,,,,,,,,,
,,,,,,,,,,,,,,p,1,0.703,space,0.034,0,183,183,13,1,0_dist_green/trial14.png,,,1,0,greenverival,p,36,20,Female,2021-02-20_15h26.20.089,exp11,2020.2.6,Win32,60,IwAR01LG4lvF9DQSciDRm8DykE2J6eNQ48SZDoCQps7YCXMo7pGu0wmuHUyYw,,,,,,,,,,,
,,,,,,,,,,,,,,p,1,1.006,space,0.036,0,184,184,97,1,15_dist_green/trial23.png,,,1,15,greenverival,p,36,20,Female,2021-02-20_15h26.20.089,exp11,2020.2.6,Win32,60,IwAR01LG4lvF9DQSciDRm8DykE2J6eNQ48SZDoCQps7YCXMo7pGu0wmuHUyYw,,,,,,,,,,,
,,,,,,,,,,,,,,p,1,0.587,space,0.668,0,185,185,46,1,3_dist_green/trial22.png,,,1,3,greenverival,p,36,20,Female,2021-02-20_15h26.20.089,exp11,2020.2.6,Win32,60,IwAR01LG4lvF9DQSciDRm8DykE2J6eNQ48SZDoCQps7YCXMo7pGu0wmuHUyYw,,,,,,,,,,,
,,,,,,,,,,,,,,a,1,0.805,space,0.035,0,186,186,180,1,0_targ_16_dist_green/trial6.png,,,0,16,greenverival,a,36,20,Female,2021-02-20_15h26.20.089,exp11,2020.2.6,Win32,60,IwAR01LG4lvF9DQSciDRm8DykE2J6eNQ48SZDoCQps7YCXMo7pGu0wmuHUyYw,,,,,,,,,,,
,,,,,,,,,,,,,,p,1,0.752,space,0.019,0,187,187,26,1,3_dist_green/trial2.png,,,1,3,greenverival,p,36,20,Female,2021-02-20_15h26.20.089,exp11,2020.2.6,Win32,60,IwAR01LG4lvF9DQSciDRm8DykE2J6eNQ48SZDoCQps7YCXMo7pGu0wmuHUyYw,,,,,,,,,,,
,,,,,,,,,,,,,,p,1,0.85,space,0.015,0,188,188,90,1,15_dist_green/trial16.png,,,1,15,greenverival,p,36,20,Female,2021-02-20_15h26.20.089,exp11,2020.2.6,Win32,60,IwAR01LG4lvF9DQSciDRm8DykE2J6eNQ48SZDoCQps7YCXMo7pGu0wmuHUyYw,,,,,,,,,,,
,,,,,,,,,,,,,,a,1,1.035,space,0.022,0,189,189,177,1,0_targ_16_dist_green/trial3.png,,,0,16,greenverival,a,36,20,Female,2021-02-20_15h26.20.089,exp11,2020.2.6,Win32,60,IwAR01LG4lvF9DQSciDRm8DykE2J6eNQ48SZDoCQps7YCXMo7pGu0wmuHUyYw,,,,,,,,,,,
,,,,,,,,,,,,,,a,1,0.635,space,0.033,0,190,190,111,1,0_targ_1_dist_green/trial12.png,,,0,1,greenverival,a,36,20,Female,2021-02-20_15h26.20.089,exp11,2020.2.6,Win32,60,IwAR01LG4lvF9DQSciDRm8DykE2J6eNQ48SZDoCQps7YCXMo7pGu0wmuHUyYw,,,,,,,,,,,
,,,,,,,,,,,,,,a,1,0.752,space,0.05,0,191,191,198,1,0_targ_16_dist_green/trial24.png,,,0,16,greenverival,a,36,20,Female,2021-02-20_15h26.20.089,exp11,2020.2.6,Win32,60,IwAR01LG4lvF9DQSciDRm8DykE2J6eNQ48SZDoCQps7YCXMo7pGu0wmuHUyYw,,,,,,,,,,,
,,,,,,,,,,,,,,p,1,0.77,space,0.001,0,192,192,14,1,0_dist_green/trial15.png,,,1,0,greenverival,p,36,20,Female,2021-02-20_15h26.20.089,exp11,2020.2.6,Win32,60,IwAR01LG4lvF9DQSciDRm8DykE2J6eNQ48SZDoCQps7YCXMo7pGu0wmuHUyYw,,,,,,,,,,,
,,,,,,,,,,,,,,a,1,0.903,space,0.038,0,193,193,149,1,0_targ_4_dist_green/trial25.png,,,0,4,greenverival,a,36,20,Female,2021-02-20_15h26.20.089,exp11,2020.2.6,Win32,60,IwAR01LG4lvF9DQSciDRm8DykE2J6eNQ48SZDoCQps7YCXMo7pGu0wmuHUyYw,,,,,,,,,,,
,,,,,,,,,,,,,,a,1,0.588,space,0.033,0,194,194,154,1,0_targ_10_dist_green/trial5.png,,,0,10,greenverival,a,36,20,Female,2021-02-20_15h26.20.089,exp11,2020.2.6,Win32,60,IwAR01LG4lvF9DQSciDRm8DykE2J6eNQ48SZDoCQps7YCXMo7pGu0wmuHUyYw,,,,,,,,,,,
,,,,,,,,,,,,,,p,1,1.321,space,0.621,0,195,195,76,1,15_dist_green/trial2.png,,,1,15,greenverival,p,36,20,Female,2021-02-20_15h26.20.089,exp11,2020.2.6,Win32,60,IwAR01LG4lvF9DQSciDRm8DykE2J6eNQ48SZDoCQps7YCXMo7pGu0wmuHUyYw,,,,,,,,,,,
,,,,,,,,,,,,,,p,1,0.687,space,0.017,0,196,196,92,1,15_dist_green/trial18.png,,,1,15,greenverival,p,36,20,Female,2021-02-20_15h26.20.089,exp11,2020.2.6,Win32,60,IwAR01LG4lvF9DQSciDRm8DykE2J6eNQ48SZDoCQps7YCXMo7pGu0wmuHUyYw,,,,,,,,,,,
,,,,,,,,,,,,,,p,1,1.303,space,1.698,0,197,197,25,1,3_dist_green/trial1.png,,,1,3,greenverival,p,36,20,Female,2021-02-20_15h26.20.089,exp11,2020.2.6,Win32,60,IwAR01LG4lvF9DQSciDRm8DykE2J6eNQ48SZDoCQps7YCXMo7pGu0wmuHUyYw,,,,,,,,,,,
,,,,,,,,,,,,,,a,1,0.703,space,0.035,0,198,198,105,1,0_targ_1_dist_green/trial6.png,,,0,1,greenverival,a,36,20,Female,2021-02-20_15h26.20.089,exp11,2020.2.6,Win32,60,IwAR01LG4lvF9DQSciDRm8DykE2J6eNQ48SZDoCQps7YCXMo7pGu0wmuHUyYw,,,,,,,,,,,
,,,,,,,,,,,,,,a,1,0.686,space,0.001,0,199,199,107,1,0_targ_1_dist_green/trial8.png,,,0,1,greenverival,a,36,20,Female,2021-02-20_15h26.20.089,exp11,2020.2.6,Win32,60,IwAR01LG4lvF9DQSciDRm8DykE2J6eNQ48SZDoCQps7YCXMo7pGu0wmuHUyYw,,,,,,,,,,,
,,,,,,,,,,,,,,,,,,,,,,,,,,,,,,,36,20,Female,2021-02-20_15h26.20.089,exp11,2020.2.6,Win32,60,IwAR01LG4lvF9DQSciDRm8DykE2J6eNQ48SZDoCQps7YCXMo7pGu0wmuHUyYw,0,1,1,0,1,conGreen.xlsx,green vertical,Look for green vertical bar (target) and indicate if it is present or absent in the array. If green vertical target is present press 'p' and if absent press 'a'. Press SPACE to start.,,,
