key_resp_6.keys,key_resp_6.rt,key_resp_7.keys,key_resp_7.rt,key_resp_8.keys,key_resp_8.rt,key_resp_10.keys,key_resp_10.rt,key_resp_9.keys,key_resp_9.rt,key_resp_3.keys,key_resp_3.rt,key_resp_5.keys,key_resp_5.rt,key_resp.keys,key_resp.corr,key_resp.rt,key_resp_4.keys,key_resp_4.rt,trials.thisRepN,trials.thisTrialN,trials.thisN,trials.thisIndex,trials.ran,ImageFile,tarPos,tarSize,targPres,numDist,targetName,correctAns,participant,age,sex,date,expName,psychopyVersion,OS,frameRate,fbclid,trials_2.thisRepN,trials_2.thisTrialN,trials_2.thisN,trials_2.thisIndex,trials_2.ran,condsFile,targName,instructionText,colTarget,sizeTarg,posit
space,1.86802,space,6.34977,space,2.160275,space,10.628525,space,1.26044,space,7.32236,space,5.66512,a,1,2.040365,space,4.1181,0,0,0,151,1,0_targ_10_dist_red/trial2.png,,,0,10,redHorizontal,a,38,18,female,2021-02-20_17h02.41.894,exp11,2020.2.6,MacIntel,60,IwAR0U0N2r7Wz3tx8_zo6WMUTajaJJNk3WVkEedKbuVWuY7x2IGd22fUIWMv0,,,,,,,,,,,
,,,,,,,,,,,,,,p,1,0.91105,space,1.43104,0,1,1,66,1,9_dist_red/trial17.png,,,1,9,redHorizontal,p,38,18,female,2021-02-20_17h02.41.894,exp11,2020.2.6,MacIntel,60,IwAR0U0N2r7Wz3tx8_zo6WMUTajaJJNk3WVkEedKbuVWuY7x2IGd22fUIWMv0,,,,,,,,,,,
,,,,,,,,,,,,,,p,1,0.739,space,0.709255,0,2,2,20,1,0_dist_red/trial21.png,,,1,0,redHorizontal,p,38,18,female,2021-02-20_17h02.41.894,exp11,2020.2.6,MacIntel,60,IwAR0U0N2r7Wz3tx8_zo6WMUTajaJJNk3WVkEedKbuVWuY7x2IGd22fUIWMv0,,,,,,,,,,,
,,,,,,,,,,,,,,a,1,0.887475,space,0.768285,0,3,3,157,1,0_targ_10_dist_red/trial8.png,,,0,10,redHorizontal,a,38,18,female,2021-02-20_17h02.41.894,exp11,2020.2.6,MacIntel,60,IwAR0U0N2r7Wz3tx8_zo6WMUTajaJJNk3WVkEedKbuVWuY7x2IGd22fUIWMv0,,,,,,,,,,,
,,,,,,,,,,,,,,a,1,0.74155,space,0.73886,0,4,4,190,1,0_targ_16_dist_red/trial16.png,,,0,16,redHorizontal,a,38,18,female,2021-02-20_17h02.41.894,exp11,2020.2.6,MacIntel,60,IwAR0U0N2r7Wz3tx8_zo6WMUTajaJJNk3WVkEedKbuVWuY7x2IGd22fUIWMv0,,,,,,,,,,,
,,,,,,,,,,,,,,a,1,0.944965,space,0.86422,0,5,5,141,1,0_targ_4_dist_red/trial17.png,,,0,4,redHorizontal,a,38,18,female,2021-02-20_17h02.41.894,exp11,2020.2.6,MacIntel,60,IwAR0U0N2r7Wz3tx8_zo6WMUTajaJJNk3WVkEedKbuVWuY7x2IGd22fUIWMv0,,,,,,,,,,,
,,,,,,,,,,,,,,p,1,0.675565,space,0.75132,0,6,6,65,1,9_dist_red/trial16.png,,,1,9,redHorizontal,p,38,18,female,2021-02-20_17h02.41.894,exp11,2020.2.6,MacIntel,60,IwAR0U0N2r7Wz3tx8_zo6WMUTajaJJNk3WVkEedKbuVWuY7x2IGd22fUIWMv0,,,,,,,,,,,
,,,,,,,,,,,,,,a,1,0.98872,space,0.65042,0,7,7,171,1,0_targ_10_dist_red/trial22.png,,,0,10,redHorizontal,a,38,18,female,2021-02-20_17h02.41.894,exp11,2020.2.6,MacIntel,60,IwAR0U0N2r7Wz3tx8_zo6WMUTajaJJNk3WVkEedKbuVWuY7x2IGd22fUIWMv0,,,,,,,,,,,
,,,,,,,,,,,,,,a,1,1.158495,space,0.834535,0,8,8,199,1,0_targ_16_dist_red/trial25.png,,,0,16,redHorizontal,a,38,18,female,2021-02-20_17h02.41.894,exp11,2020.2.6,MacIntel,60,IwAR0U0N2r7Wz3tx8_zo6WMUTajaJJNk3WVkEedKbuVWuY7x2IGd22fUIWMv0,,,,,,,,,,,
,,,,,,,,,,,,,,a,1,0.65988,space,0.76942,0,9,9,128,1,0_targ_4_dist_red/trial4.png,,,0,4,redHorizontal,a,38,18,female,2021-02-20_17h02.41.894,exp11,2020.2.6,MacIntel,60,IwAR0U0N2r7Wz3tx8_zo6WMUTajaJJNk3WVkEedKbuVWuY7x2IGd22fUIWMv0,,,,,,,,,,,
,,,,,,,,,,,,,,p,1,1.417,space,0.632475,0,10,10,77,1,15_dist_red/trial3.png,,,1,15,redHorizontal,p,38,18,female,2021-02-20_17h02.41.894,exp11,2020.2.6,MacIntel,60,IwAR0U0N2r7Wz3tx8_zo6WMUTajaJJNk3WVkEedKbuVWuY7x2IGd22fUIWMv0,,,,,,,,,,,
,,,,,,,,,,,,,,p,1,0.903255,space,0.73121,0,11,11,94,1,15_dist_red/trial20.png,,,1,15,redHorizontal,p,38,18,female,2021-02-20_17h02.41.894,exp11,2020.2.6,MacIntel,60,IwAR0U0N2r7Wz3tx8_zo6WMUTajaJJNk3WVkEedKbuVWuY7x2IGd22fUIWMv0,,,,,,,,,,,
,,,,,,,,,,,,,,p,1,0.677725,space,0.698355,0,12,12,3,1,0_dist_red/trial4.png,,,1,0,redHorizontal,p,38,18,female,2021-02-20_17h02.41.894,exp11,2020.2.6,MacIntel,60,IwAR0U0N2r7Wz3tx8_zo6WMUTajaJJNk3WVkEedKbuVWuY7x2IGd22fUIWMv0,,,,,,,,,,,
,,,,,,,,,,,,,,a,1,0.799935,space,0.537885,0,13,13,178,1,0_targ_16_dist_red/trial4.png,,,0,16,redHorizontal,a,38,18,female,2021-02-20_17h02.41.894,exp11,2020.2.6,MacIntel,60,IwAR0U0N2r7Wz3tx8_zo6WMUTajaJJNk3WVkEedKbuVWuY7x2IGd22fUIWMv0,,,,,,,,,,,
,,,,,,,,,,,,,,a,1,1.69744,space,0.516805,0,14,14,129,1,0_targ_4_dist_red/trial5.png,,,0,4,redHorizontal,a,38,18,female,2021-02-20_17h02.41.894,exp11,2020.2.6,MacIntel,60,IwAR0U0N2r7Wz3tx8_zo6WMUTajaJJNk3WVkEedKbuVWuY7x2IGd22fUIWMv0,,,,,,,,,,,
,,,,,,,,,,,,,,p,1,0.700655,space,0.483765,0,15,15,7,1,0_dist_red/trial8.png,,,1,0,redHorizontal,p,38,18,female,2021-02-20_17h02.41.894,exp11,2020.2.6,MacIntel,60,IwAR0U0N2r7Wz3tx8_zo6WMUTajaJJNk3WVkEedKbuVWuY7x2IGd22fUIWMv0,,,,,,,,,,,
,,,,,,,,,,,,,,a,1,0.863885,space,0.500825,0,16,16,197,1,0_targ_16_dist_red/trial23.png,,,0,16,redHorizontal,a,38,18,female,2021-02-20_17h02.41.894,exp11,2020.2.6,MacIntel,60,IwAR0U0N2r7Wz3tx8_zo6WMUTajaJJNk3WVkEedKbuVWuY7x2IGd22fUIWMv0,,,,,,,,,,,
,,,,,,,,,,,,,,a,1,0.74827,space,0.449525,0,17,17,133,1,0_targ_4_dist_red/trial9.png,,,0,4,redHorizontal,a,38,18,female,2021-02-20_17h02.41.894,exp11,2020.2.6,MacIntel,60,IwAR0U0N2r7Wz3tx8_zo6WMUTajaJJNk3WVkEedKbuVWuY7x2IGd22fUIWMv0,,,,,,,,,,,
,,,,,,,,,,,,,,p,1,1.11721,space,0.537495,0,18,18,87,1,15_dist_red/trial13.png,,,1,15,redHorizontal,p,38,18,female,2021-02-20_17h02.41.894,exp11,2020.2.6,MacIntel,60,IwAR0U0N2r7Wz3tx8_zo6WMUTajaJJNk3WVkEedKbuVWuY7x2IGd22fUIWMv0,,,,,,,,,,,
,,,,,,,,,,,,,,p,1,0.6882,space,0.48202,0,19,19,93,1,15_dist_red/trial19.png,,,1,15,redHorizontal,p,38,18,female,2021-02-20_17h02.41.894,exp11,2020.2.6,MacIntel,60,IwAR0U0N2r7Wz3tx8_zo6WMUTajaJJNk3WVkEedKbuVWuY7x2IGd22fUIWMv0,,,,,,,,,,,
,,,,,,,,,,,,,,a,1,0.741625,space,0.50278,0,20,20,191,1,0_targ_16_dist_red/trial17.png,,,0,16,redHorizontal,a,38,18,female,2021-02-20_17h02.41.894,exp11,2020.2.6,MacIntel,60,IwAR0U0N2r7Wz3tx8_zo6WMUTajaJJNk3WVkEedKbuVWuY7x2IGd22fUIWMv0,,,,,,,,,,,
,,,,,,,,,,,,,,a,1,1.004435,space,0.50304,0,21,21,140,1,0_targ_4_dist_red/trial6.png,,,0,4,redHorizontal,a,38,18,female,2021-02-20_17h02.41.894,exp11,2020.2.6,MacIntel,60,IwAR0U0N2r7Wz3tx8_zo6WMUTajaJJNk3WVkEedKbuVWuY7x2IGd22fUIWMv0,,,,,,,,,,,
,,,,,,,,,,,,,,p,1,0.87325,space,0.46608,0,22,22,74,1,9_dist_red/trial25.png,,,1,9,redHorizontal,p,38,18,female,2021-02-20_17h02.41.894,exp11,2020.2.6,MacIntel,60,IwAR0U0N2r7Wz3tx8_zo6WMUTajaJJNk3WVkEedKbuVWuY7x2IGd22fUIWMv0,,,,,,,,,,,
,,,,,,,,,,,,,,a,1,0.824675,space,0.47814,0,23,23,108,1,0_targ_1_dist_red/trial9.png,,,0,1,redHorizontal,a,38,18,female,2021-02-20_17h02.41.894,exp11,2020.2.6,MacIntel,60,IwAR0U0N2r7Wz3tx8_zo6WMUTajaJJNk3WVkEedKbuVWuY7x2IGd22fUIWMv0,,,,,,,,,,,
,,,,,,,,,,,,,,p,1,0.75283,space,0.51951,0,24,24,39,1,3_dist_red/trial15.png,,,1,3,redHorizontal,p,38,18,female,2021-02-20_17h02.41.894,exp11,2020.2.6,MacIntel,60,IwAR0U0N2r7Wz3tx8_zo6WMUTajaJJNk3WVkEedKbuVWuY7x2IGd22fUIWMv0,,,,,,,,,,,
,,,,,,,,,,,,,,a,1,1.24721,space,0.50084,0,25,25,198,1,0_targ_16_dist_red/trial24.png,,,0,16,redHorizontal,a,38,18,female,2021-02-20_17h02.41.894,exp11,2020.2.6,MacIntel,60,IwAR0U0N2r7Wz3tx8_zo6WMUTajaJJNk3WVkEedKbuVWuY7x2IGd22fUIWMv0,,,,,,,,,,,
,,,,,,,,,,,,,,p,1,0.84939,space,0.55128,0,26,26,58,1,9_dist_red/trial9.png,,,1,9,redHorizontal,p,38,18,female,2021-02-20_17h02.41.894,exp11,2020.2.6,MacIntel,60,IwAR0U0N2r7Wz3tx8_zo6WMUTajaJJNk3WVkEedKbuVWuY7x2IGd22fUIWMv0,,,,,,,,,,,
,,,,,,,,,,,,,,p,1,0.834785,space,0.46875,0,27,27,90,1,15_dist_red/trial16.png,,,1,15,redHorizontal,p,38,18,female,2021-02-20_17h02.41.894,exp11,2020.2.6,MacIntel,60,IwAR0U0N2r7Wz3tx8_zo6WMUTajaJJNk3WVkEedKbuVWuY7x2IGd22fUIWMv0,,,,,,,,,,,
,,,,,,,,,,,,,,a,1,0.76924,space,0.497335,0,28,28,117,1,0_targ_1_dist_red/trial18.png,,,0,1,redHorizontal,a,38,18,female,2021-02-20_17h02.41.894,exp11,2020.2.6,MacIntel,60,IwAR0U0N2r7Wz3tx8_zo6WMUTajaJJNk3WVkEedKbuVWuY7x2IGd22fUIWMv0,,,,,,,,,,,
,,,,,,,,,,,,,,p,1,0.768055,space,0.473175,0,29,29,55,1,9_dist_red/trial6.png,,,1,9,redHorizontal,p,38,18,female,2021-02-20_17h02.41.894,exp11,2020.2.6,MacIntel,60,IwAR0U0N2r7Wz3tx8_zo6WMUTajaJJNk3WVkEedKbuVWuY7x2IGd22fUIWMv0,,,,,,,,,,,
,,,,,,,,,,,,,,p,1,0.834435,space,0.666085,0,30,30,29,1,3_dist_red/trial5.png,,,1,3,redHorizontal,p,38,18,female,2021-02-20_17h02.41.894,exp11,2020.2.6,MacIntel,60,IwAR0U0N2r7Wz3tx8_zo6WMUTajaJJNk3WVkEedKbuVWuY7x2IGd22fUIWMv0,,,,,,,,,,,
,,,,,,,,,,,,,,p,1,0.722625,space,0.526165,0,31,31,46,1,3_dist_red/trial22.png,,,1,3,redHorizontal,p,38,18,female,2021-02-20_17h02.41.894,exp11,2020.2.6,MacIntel,60,IwAR0U0N2r7Wz3tx8_zo6WMUTajaJJNk3WVkEedKbuVWuY7x2IGd22fUIWMv0,,,,,,,,,,,
,,,,,,,,,,,,,,a,0,0.745575,space,0.71627,0,32,32,75,1,15_dist_red/trial1.png,,,1,15,redHorizontal,p,38,18,female,2021-02-20_17h02.41.894,exp11,2020.2.6,MacIntel,60,IwAR0U0N2r7Wz3tx8_zo6WMUTajaJJNk3WVkEedKbuVWuY7x2IGd22fUIWMv0,,,,,,,,,,,
,,,,,,,,,,,,,,p,1,0.751115,space,0.56862,0,33,33,37,1,3_dist_red/trial13.png,,,1,3,redHorizontal,p,38,18,female,2021-02-20_17h02.41.894,exp11,2020.2.6,MacIntel,60,IwAR0U0N2r7Wz3tx8_zo6WMUTajaJJNk3WVkEedKbuVWuY7x2IGd22fUIWMv0,,,,,,,,,,,
,,,,,,,,,,,,,,p,1,0.738235,space,0.486675,0,34,34,27,1,3_dist_red/trial3.png,,,1,3,redHorizontal,p,38,18,female,2021-02-20_17h02.41.894,exp11,2020.2.6,MacIntel,60,IwAR0U0N2r7Wz3tx8_zo6WMUTajaJJNk3WVkEedKbuVWuY7x2IGd22fUIWMv0,,,,,,,,,,,
,,,,,,,,,,,,,,p,1,0.631805,space,0.585635,0,35,35,23,1,0_dist_red/trial24.png,,,1,0,redHorizontal,p,38,18,female,2021-02-20_17h02.41.894,exp11,2020.2.6,MacIntel,60,IwAR0U0N2r7Wz3tx8_zo6WMUTajaJJNk3WVkEedKbuVWuY7x2IGd22fUIWMv0,,,,,,,,,,,
,,,,,,,,,,,,,,a,1,1.71692,space,0.51839,0,36,36,114,1,0_targ_1_dist_red/trial15.png,,,0,1,redHorizontal,a,38,18,female,2021-02-20_17h02.41.894,exp11,2020.2.6,MacIntel,60,IwAR0U0N2r7Wz3tx8_zo6WMUTajaJJNk3WVkEedKbuVWuY7x2IGd22fUIWMv0,,,,,,,,,,,
,,,,,,,,,,,,,,p,1,0.915065,space,1.141325,0,37,37,49,1,3_dist_red/trial25.png,,,1,3,redHorizontal,p,38,18,female,2021-02-20_17h02.41.894,exp11,2020.2.6,MacIntel,60,IwAR0U0N2r7Wz3tx8_zo6WMUTajaJJNk3WVkEedKbuVWuY7x2IGd22fUIWMv0,,,,,,,,,,,
,,,,,,,,,,,,,,a,1,0.76892,space,0.65208,0,38,38,102,1,0_targ_1_dist_red/trial3.png,,,0,1,redHorizontal,a,38,18,female,2021-02-20_17h02.41.894,exp11,2020.2.6,MacIntel,60,IwAR0U0N2r7Wz3tx8_zo6WMUTajaJJNk3WVkEedKbuVWuY7x2IGd22fUIWMv0,,,,,,,,,,,
,,,,,,,,,,,,,,p,1,0.748145,space,0.635365,0,39,39,28,1,3_dist_red/trial4.png,,,1,3,redHorizontal,p,38,18,female,2021-02-20_17h02.41.894,exp11,2020.2.6,MacIntel,60,IwAR0U0N2r7Wz3tx8_zo6WMUTajaJJNk3WVkEedKbuVWuY7x2IGd22fUIWMv0,,,,,,,,,,,
,,,,,,,,,,,,,,p,1,0.828355,space,0.65033,0,40,40,98,1,15_dist_red/trial24.png,,,1,15,redHorizontal,p,38,18,female,2021-02-20_17h02.41.894,exp11,2020.2.6,MacIntel,60,IwAR0U0N2r7Wz3tx8_zo6WMUTajaJJNk3WVkEedKbuVWuY7x2IGd22fUIWMv0,,,,,,,,,,,
,,,,,,,,,,,,,,p,1,1.41156,space,0.571805,0,41,41,38,1,3_dist_red/trial14.png,,,1,3,redHorizontal,p,38,18,female,2021-02-20_17h02.41.894,exp11,2020.2.6,MacIntel,60,IwAR0U0N2r7Wz3tx8_zo6WMUTajaJJNk3WVkEedKbuVWuY7x2IGd22fUIWMv0,,,,,,,,,,,
,,,,,,,,,,,,,,a,1,1.11995,space,0.517905,0,42,42,120,1,0_targ_1_dist_red/trial21.png,,,0,1,redHorizontal,a,38,18,female,2021-02-20_17h02.41.894,exp11,2020.2.6,MacIntel,60,IwAR0U0N2r7Wz3tx8_zo6WMUTajaJJNk3WVkEedKbuVWuY7x2IGd22fUIWMv0,,,,,,,,,,,
,,,,,,,,,,,,,,p,0,1.049485,space,0.55208,0,43,43,155,1,0_targ_10_dist_red/trial6.png,,,0,10,redHorizontal,a,38,18,female,2021-02-20_17h02.41.894,exp11,2020.2.6,MacIntel,60,IwAR0U0N2r7Wz3tx8_zo6WMUTajaJJNk3WVkEedKbuVWuY7x2IGd22fUIWMv0,,,,,,,,,,,
,,,,,,,,,,,,,,p,1,1.67104,space,0.48172,0,44,44,34,1,3_dist_red/trial10.png,,,1,3,redHorizontal,p,38,18,female,2021-02-20_17h02.41.894,exp11,2020.2.6,MacIntel,60,IwAR0U0N2r7Wz3tx8_zo6WMUTajaJJNk3WVkEedKbuVWuY7x2IGd22fUIWMv0,,,,,,,,,,,
,,,,,,,,,,,,,,a,0,1.61234,space,0.51805,0,45,45,95,1,15_dist_red/trial21.png,,,1,15,redHorizontal,p,38,18,female,2021-02-20_17h02.41.894,exp11,2020.2.6,MacIntel,60,IwAR0U0N2r7Wz3tx8_zo6WMUTajaJJNk3WVkEedKbuVWuY7x2IGd22fUIWMv0,,,,,,,,,,,
,,,,,,,,,,,,,,a,1,1.386775,space,0.417245,0,46,46,196,1,0_targ_16_dist_red/trial22.png,,,0,16,redHorizontal,a,38,18,female,2021-02-20_17h02.41.894,exp11,2020.2.6,MacIntel,60,IwAR0U0N2r7Wz3tx8_zo6WMUTajaJJNk3WVkEedKbuVWuY7x2IGd22fUIWMv0,,,,,,,,,,,
,,,,,,,,,,,,,,p,1,0.621015,space,0.42406,0,47,47,42,1,3_dist_red/trial18.png,,,1,3,redHorizontal,p,38,18,female,2021-02-20_17h02.41.894,exp11,2020.2.6,MacIntel,60,IwAR0U0N2r7Wz3tx8_zo6WMUTajaJJNk3WVkEedKbuVWuY7x2IGd22fUIWMv0,,,,,,,,,,,
,,,,,,,,,,,,,,p,1,0.51297,space,0.31045,0,48,48,17,1,0_dist_red/trial18.png,,,1,0,redHorizontal,p,38,18,female,2021-02-20_17h02.41.894,exp11,2020.2.6,MacIntel,60,IwAR0U0N2r7Wz3tx8_zo6WMUTajaJJNk3WVkEedKbuVWuY7x2IGd22fUIWMv0,,,,,,,,,,,
,,,,,,,,,,,,,,p,1,0.64314,space,0.29911,0,49,49,97,1,15_dist_red/trial23.png,,,1,15,redHorizontal,p,38,18,female,2021-02-20_17h02.41.894,exp11,2020.2.6,MacIntel,60,IwAR0U0N2r7Wz3tx8_zo6WMUTajaJJNk3WVkEedKbuVWuY7x2IGd22fUIWMv0,,,,,,,,,,,
,,,,,,,,,,,,,,a,1,0.767175,space,0.33696,0,50,50,182,1,0_targ_16_dist_red/trial8.png,,,0,16,redHorizontal,a,38,18,female,2021-02-20_17h02.41.894,exp11,2020.2.6,MacIntel,60,IwAR0U0N2r7Wz3tx8_zo6WMUTajaJJNk3WVkEedKbuVWuY7x2IGd22fUIWMv0,,,,,,,,,,,
,,,,,,,,,,,,,,a,1,0.924375,space,0.30087,0,51,51,162,1,0_targ_10_dist_red/trial13.png,,,0,10,redHorizontal,a,38,18,female,2021-02-20_17h02.41.894,exp11,2020.2.6,MacIntel,60,IwAR0U0N2r7Wz3tx8_zo6WMUTajaJJNk3WVkEedKbuVWuY7x2IGd22fUIWMv0,,,,,,,,,,,
,,,,,,,,,,,,,,a,1,2.201825,space,0.500595,0,52,52,148,1,0_targ_4_dist_red/trial24.png,,,0,4,redHorizontal,a,38,18,female,2021-02-20_17h02.41.894,exp11,2020.2.6,MacIntel,60,IwAR0U0N2r7Wz3tx8_zo6WMUTajaJJNk3WVkEedKbuVWuY7x2IGd22fUIWMv0,,,,,,,,,,,
,,,,,,,,,,,,,,a,1,0.799605,space,0.35597,0,53,53,194,1,0_targ_16_dist_red/trial20.png,,,0,16,redHorizontal,a,38,18,female,2021-02-20_17h02.41.894,exp11,2020.2.6,MacIntel,60,IwAR0U0N2r7Wz3tx8_zo6WMUTajaJJNk3WVkEedKbuVWuY7x2IGd22fUIWMv0,,,,,,,,,,,
,,,,,,,,,,,,,,p,1,0.58169,space,0.3519,0,54,54,71,1,9_dist_red/trial22.png,,,1,9,redHorizontal,p,38,18,female,2021-02-20_17h02.41.894,exp11,2020.2.6,MacIntel,60,IwAR0U0N2r7Wz3tx8_zo6WMUTajaJJNk3WVkEedKbuVWuY7x2IGd22fUIWMv0,,,,,,,,,,,
,,,,,,,,,,,,,,a,1,0.88395,space,0.382405,0,55,55,116,1,0_targ_1_dist_red/trial17.png,,,0,1,redHorizontal,a,38,18,female,2021-02-20_17h02.41.894,exp11,2020.2.6,MacIntel,60,IwAR0U0N2r7Wz3tx8_zo6WMUTajaJJNk3WVkEedKbuVWuY7x2IGd22fUIWMv0,,,,,,,,,,,
,,,,,,,,,,,,,,p,1,1.548595,space,0.554775,0,56,56,25,1,3_dist_red/trial1.png,,,1,3,redHorizontal,p,38,18,female,2021-02-20_17h02.41.894,exp11,2020.2.6,MacIntel,60,IwAR0U0N2r7Wz3tx8_zo6WMUTajaJJNk3WVkEedKbuVWuY7x2IGd22fUIWMv0,,,,,,,,,,,
,,,,,,,,,,,,,,p,1,0.583435,space,0.36475,0,57,57,1,1,0_dist_red/trial2.png,,,1,0,redHorizontal,p,38,18,female,2021-02-20_17h02.41.894,exp11,2020.2.6,MacIntel,60,IwAR0U0N2r7Wz3tx8_zo6WMUTajaJJNk3WVkEedKbuVWuY7x2IGd22fUIWMv0,,,,,,,,,,,
,,,,,,,,,,,,,,p,1,1.066595,space,0.424885,0,58,58,99,1,15_dist_red/trial25.png,,,1,15,redHorizontal,p,38,18,female,2021-02-20_17h02.41.894,exp11,2020.2.6,MacIntel,60,IwAR0U0N2r7Wz3tx8_zo6WMUTajaJJNk3WVkEedKbuVWuY7x2IGd22fUIWMv0,,,,,,,,,,,
,,,,,,,,,,,,,,a,1,0.643235,space,0.45383,0,59,59,100,1,0_targ_1_dist_red/trial1.png,,,0,1,redHorizontal,a,38,18,female,2021-02-20_17h02.41.894,exp11,2020.2.6,MacIntel,60,IwAR0U0N2r7Wz3tx8_zo6WMUTajaJJNk3WVkEedKbuVWuY7x2IGd22fUIWMv0,,,,,,,,,,,
,,,,,,,,,,,,,,a,1,0.713995,space,0.605065,0,60,60,164,1,0_targ_10_dist_red/trial15.png,,,0,10,redHorizontal,a,38,18,female,2021-02-20_17h02.41.894,exp11,2020.2.6,MacIntel,60,IwAR0U0N2r7Wz3tx8_zo6WMUTajaJJNk3WVkEedKbuVWuY7x2IGd22fUIWMv0,,,,,,,,,,,
,,,,,,,,,,,,,,a,1,0.600485,space,0.388145,0,61,61,106,1,0_targ_1_dist_red/trial7.png,,,0,1,redHorizontal,a,38,18,female,2021-02-20_17h02.41.894,exp11,2020.2.6,MacIntel,60,IwAR0U0N2r7Wz3tx8_zo6WMUTajaJJNk3WVkEedKbuVWuY7x2IGd22fUIWMv0,,,,,,,,,,,
,,,,,,,,,,,,,,a,1,0.767005,space,0.370925,0,62,62,134,1,0_targ_4_dist_red/trial10.png,,,0,4,redHorizontal,a,38,18,female,2021-02-20_17h02.41.894,exp11,2020.2.6,MacIntel,60,IwAR0U0N2r7Wz3tx8_zo6WMUTajaJJNk3WVkEedKbuVWuY7x2IGd22fUIWMv0,,,,,,,,,,,
,,,,,,,,,,,,,,p,1,0.668535,space,0.46711,0,63,63,32,1,3_dist_red/trial8.png,,,1,3,redHorizontal,p,38,18,female,2021-02-20_17h02.41.894,exp11,2020.2.6,MacIntel,60,IwAR0U0N2r7Wz3tx8_zo6WMUTajaJJNk3WVkEedKbuVWuY7x2IGd22fUIWMv0,,,,,,,,,,,
,,,,,,,,,,,,,,p,1,0.649465,space,0.401885,0,64,64,18,1,0_dist_red/trial19.png,,,1,0,redHorizontal,p,38,18,female,2021-02-20_17h02.41.894,exp11,2020.2.6,MacIntel,60,IwAR0U0N2r7Wz3tx8_zo6WMUTajaJJNk3WVkEedKbuVWuY7x2IGd22fUIWMv0,,,,,,,,,,,
,,,,,,,,,,,,,,p,1,0.659055,space,0.41581,0,65,65,33,1,3_dist_red/trial9.png,,,1,3,redHorizontal,p,38,18,female,2021-02-20_17h02.41.894,exp11,2020.2.6,MacIntel,60,IwAR0U0N2r7Wz3tx8_zo6WMUTajaJJNk3WVkEedKbuVWuY7x2IGd22fUIWMv0,,,,,,,,,,,
,,,,,,,,,,,,,,p,1,0.80368,space,0.449,0,66,66,88,1,15_dist_red/trial14.png,,,1,15,redHorizontal,p,38,18,female,2021-02-20_17h02.41.894,exp11,2020.2.6,MacIntel,60,IwAR0U0N2r7Wz3tx8_zo6WMUTajaJJNk3WVkEedKbuVWuY7x2IGd22fUIWMv0,,,,,,,,,,,
,,,,,,,,,,,,,,p,1,1.01214,space,0.382325,0,67,67,80,1,15_dist_red/trial6.png,,,1,15,redHorizontal,p,38,18,female,2021-02-20_17h02.41.894,exp11,2020.2.6,MacIntel,60,IwAR0U0N2r7Wz3tx8_zo6WMUTajaJJNk3WVkEedKbuVWuY7x2IGd22fUIWMv0,,,,,,,,,,,
,,,,,,,,,,,,,,a,1,0.673175,space,0.44776,0,68,68,107,1,0_targ_1_dist_red/trial8.png,,,0,1,redHorizontal,a,38,18,female,2021-02-20_17h02.41.894,exp11,2020.2.6,MacIntel,60,IwAR0U0N2r7Wz3tx8_zo6WMUTajaJJNk3WVkEedKbuVWuY7x2IGd22fUIWMv0,,,,,,,,,,,
,,,,,,,,,,,,,,a,1,1.121765,space,0.55782,0,69,69,188,1,0_targ_16_dist_red/trial14.png,,,0,16,redHorizontal,a,38,18,female,2021-02-20_17h02.41.894,exp11,2020.2.6,MacIntel,60,IwAR0U0N2r7Wz3tx8_zo6WMUTajaJJNk3WVkEedKbuVWuY7x2IGd22fUIWMv0,,,,,,,,,,,
,,,,,,,,,,,,,,a,1,0.71472,space,0.43479,0,70,70,166,1,0_targ_10_dist_red/trial17.png,,,0,10,redHorizontal,a,38,18,female,2021-02-20_17h02.41.894,exp11,2020.2.6,MacIntel,60,IwAR0U0N2r7Wz3tx8_zo6WMUTajaJJNk3WVkEedKbuVWuY7x2IGd22fUIWMv0,,,,,,,,,,,
,,,,,,,,,,,,,,p,1,0.68422,space,0.56781,0,71,71,2,1,0_dist_red/trial3.png,,,1,0,redHorizontal,p,38,18,female,2021-02-20_17h02.41.894,exp11,2020.2.6,MacIntel,60,IwAR0U0N2r7Wz3tx8_zo6WMUTajaJJNk3WVkEedKbuVWuY7x2IGd22fUIWMv0,,,,,,,,,,,
,,,,,,,,,,,,,,a,1,1.515265,space,0.455465,0,72,72,179,1,0_targ_16_dist_red/trial5.png,,,0,16,redHorizontal,a,38,18,female,2021-02-20_17h02.41.894,exp11,2020.2.6,MacIntel,60,IwAR0U0N2r7Wz3tx8_zo6WMUTajaJJNk3WVkEedKbuVWuY7x2IGd22fUIWMv0,,,,,,,,,,,
,,,,,,,,,,,,,,p,1,0.71634,space,0.537555,0,73,73,36,1,3_dist_red/trial12.png,,,1,3,redHorizontal,p,38,18,female,2021-02-20_17h02.41.894,exp11,2020.2.6,MacIntel,60,IwAR0U0N2r7Wz3tx8_zo6WMUTajaJJNk3WVkEedKbuVWuY7x2IGd22fUIWMv0,,,,,,,,,,,
,,,,,,,,,,,,,,a,1,1.511275,space,0.426465,0,74,74,175,1,0_targ_16_dist_red/trial1.png,,,0,16,redHorizontal,a,38,18,female,2021-02-20_17h02.41.894,exp11,2020.2.6,MacIntel,60,IwAR0U0N2r7Wz3tx8_zo6WMUTajaJJNk3WVkEedKbuVWuY7x2IGd22fUIWMv0,,,,,,,,,,,
,,,,,,,,,,,,,,a,1,0.83525,space,0.368835,0,75,75,103,1,0_targ_1_dist_red/trial4.png,,,0,1,redHorizontal,a,38,18,female,2021-02-20_17h02.41.894,exp11,2020.2.6,MacIntel,60,IwAR0U0N2r7Wz3tx8_zo6WMUTajaJJNk3WVkEedKbuVWuY7x2IGd22fUIWMv0,,,,,,,,,,,
,,,,,,,,,,,,,,a,1,0.799955,space,0.450665,0,76,76,160,1,0_targ_10_dist_red/trial11.png,,,0,10,redHorizontal,a,38,18,female,2021-02-20_17h02.41.894,exp11,2020.2.6,MacIntel,60,IwAR0U0N2r7Wz3tx8_zo6WMUTajaJJNk3WVkEedKbuVWuY7x2IGd22fUIWMv0,,,,,,,,,,,
,,,,,,,,,,,,,,p,1,0.767655,space,0.45202,0,77,77,85,1,15_dist_red/trial11.png,,,1,15,redHorizontal,p,38,18,female,2021-02-20_17h02.41.894,exp11,2020.2.6,MacIntel,60,IwAR0U0N2r7Wz3tx8_zo6WMUTajaJJNk3WVkEedKbuVWuY7x2IGd22fUIWMv0,,,,,,,,,,,
,,,,,,,,,,,,,,p,1,0.718425,space,0.504935,0,78,78,91,1,15_dist_red/trial17.png,,,1,15,redHorizontal,p,38,18,female,2021-02-20_17h02.41.894,exp11,2020.2.6,MacIntel,60,IwAR0U0N2r7Wz3tx8_zo6WMUTajaJJNk3WVkEedKbuVWuY7x2IGd22fUIWMv0,,,,,,,,,,,
,,,,,,,,,,,,,,a,1,0.64154,space,0.46757,0,79,79,104,1,0_targ_1_dist_red/trial5.png,,,0,1,redHorizontal,a,38,18,female,2021-02-20_17h02.41.894,exp11,2020.2.6,MacIntel,60,IwAR0U0N2r7Wz3tx8_zo6WMUTajaJJNk3WVkEedKbuVWuY7x2IGd22fUIWMv0,,,,,,,,,,,
,,,,,,,,,,,,,,p,1,0.980195,space,0.538395,0,80,80,79,1,15_dist_red/trial5.png,,,1,15,redHorizontal,p,38,18,female,2021-02-20_17h02.41.894,exp11,2020.2.6,MacIntel,60,IwAR0U0N2r7Wz3tx8_zo6WMUTajaJJNk3WVkEedKbuVWuY7x2IGd22fUIWMv0,,,,,,,,,,,
,,,,,,,,,,,,,,a,1,0.76444,space,0.51621,0,81,81,183,1,0_targ_16_dist_red/trial9.png,,,0,16,redHorizontal,a,38,18,female,2021-02-20_17h02.41.894,exp11,2020.2.6,MacIntel,60,IwAR0U0N2r7Wz3tx8_zo6WMUTajaJJNk3WVkEedKbuVWuY7x2IGd22fUIWMv0,,,,,,,,,,,
,,,,,,,,,,,,,,p,1,0.694715,space,0.570875,0,82,82,11,1,0_dist_red/trial12.png,,,1,0,redHorizontal,p,38,18,female,2021-02-20_17h02.41.894,exp11,2020.2.6,MacIntel,60,IwAR0U0N2r7Wz3tx8_zo6WMUTajaJJNk3WVkEedKbuVWuY7x2IGd22fUIWMv0,,,,,,,,,,,
,,,,,,,,,,,,,,p,1,0.682235,space,0.566775,0,83,83,68,1,9_dist_red/trial19.png,,,1,9,redHorizontal,p,38,18,female,2021-02-20_17h02.41.894,exp11,2020.2.6,MacIntel,60,IwAR0U0N2r7Wz3tx8_zo6WMUTajaJJNk3WVkEedKbuVWuY7x2IGd22fUIWMv0,,,,,,,,,,,
,,,,,,,,,,,,,,a,1,0.7189,space,0.53678,0,84,84,186,1,0_targ_16_dist_red/trial12.png,,,0,16,redHorizontal,a,38,18,female,2021-02-20_17h02.41.894,exp11,2020.2.6,MacIntel,60,IwAR0U0N2r7Wz3tx8_zo6WMUTajaJJNk3WVkEedKbuVWuY7x2IGd22fUIWMv0,,,,,,,,,,,
,,,,,,,,,,,,,,p,1,1.178145,space,0.449995,0,85,85,60,1,9_dist_red/trial11.png,,,1,9,redHorizontal,p,38,18,female,2021-02-20_17h02.41.894,exp11,2020.2.6,MacIntel,60,IwAR0U0N2r7Wz3tx8_zo6WMUTajaJJNk3WVkEedKbuVWuY7x2IGd22fUIWMv0,,,,,,,,,,,
,,,,,,,,,,,,,,a,1,0.630955,space,0.46565,0,86,86,111,1,0_targ_1_dist_red/trial12.png,,,0,1,redHorizontal,a,38,18,female,2021-02-20_17h02.41.894,exp11,2020.2.6,MacIntel,60,IwAR0U0N2r7Wz3tx8_zo6WMUTajaJJNk3WVkEedKbuVWuY7x2IGd22fUIWMv0,,,,,,,,,,,
,,,,,,,,,,,,,,a,1,0.83474,space,0.50455,0,87,87,158,1,0_targ_10_dist_red/trial9.png,,,0,10,redHorizontal,a,38,18,female,2021-02-20_17h02.41.894,exp11,2020.2.6,MacIntel,60,IwAR0U0N2r7Wz3tx8_zo6WMUTajaJJNk3WVkEedKbuVWuY7x2IGd22fUIWMv0,,,,,,,,,,,
,,,,,,,,,,,,,,a,1,1.28334,space,0.418735,0,88,88,181,1,0_targ_16_dist_red/trial7.png,,,0,16,redHorizontal,a,38,18,female,2021-02-20_17h02.41.894,exp11,2020.2.6,MacIntel,60,IwAR0U0N2r7Wz3tx8_zo6WMUTajaJJNk3WVkEedKbuVWuY7x2IGd22fUIWMv0,,,,,,,,,,,
,,,,,,,,,,,,,,a,1,1.411945,space,0.368735,0,89,89,167,1,0_targ_10_dist_red/trial18.png,,,0,10,redHorizontal,a,38,18,female,2021-02-20_17h02.41.894,exp11,2020.2.6,MacIntel,60,IwAR0U0N2r7Wz3tx8_zo6WMUTajaJJNk3WVkEedKbuVWuY7x2IGd22fUIWMv0,,,,,,,,,,,
,,,,,,,,,,,,,,p,1,0.66748,space,0.464625,0,90,90,92,1,15_dist_red/trial18.png,,,1,15,redHorizontal,p,38,18,female,2021-02-20_17h02.41.894,exp11,2020.2.6,MacIntel,60,IwAR0U0N2r7Wz3tx8_zo6WMUTajaJJNk3WVkEedKbuVWuY7x2IGd22fUIWMv0,,,,,,,,,,,
,,,,,,,,,,,,,,p,1,0.634215,space,0.4004,0,91,91,48,1,3_dist_red/trial24.png,,,1,3,redHorizontal,p,38,18,female,2021-02-20_17h02.41.894,exp11,2020.2.6,MacIntel,60,IwAR0U0N2r7Wz3tx8_zo6WMUTajaJJNk3WVkEedKbuVWuY7x2IGd22fUIWMv0,,,,,,,,,,,
,,,,,,,,,,,,,,a,1,0.583895,space,0.465425,0,92,92,143,1,0_targ_4_dist_red/trial19.png,,,0,4,redHorizontal,a,38,18,female,2021-02-20_17h02.41.894,exp11,2020.2.6,MacIntel,60,IwAR0U0N2r7Wz3tx8_zo6WMUTajaJJNk3WVkEedKbuVWuY7x2IGd22fUIWMv0,,,,,,,,,,,
,,,,,,,,,,,,,,p,1,0.63141,space,0.455085,0,93,93,0,1,0_dist_red/trial1.png,,,1,0,redHorizontal,p,38,18,female,2021-02-20_17h02.41.894,exp11,2020.2.6,MacIntel,60,IwAR0U0N2r7Wz3tx8_zo6WMUTajaJJNk3WVkEedKbuVWuY7x2IGd22fUIWMv0,,,,,,,,,,,
,,,,,,,,,,,,,,p,1,0.702555,space,0.4739,0,94,94,62,1,9_dist_red/trial13.png,,,1,9,redHorizontal,p,38,18,female,2021-02-20_17h02.41.894,exp11,2020.2.6,MacIntel,60,IwAR0U0N2r7Wz3tx8_zo6WMUTajaJJNk3WVkEedKbuVWuY7x2IGd22fUIWMv0,,,,,,,,,,,
,,,,,,,,,,,,,,a,1,0.648145,space,0.56585,0,95,95,125,1,0_targ_4_dist_red/trial1.png,,,0,4,redHorizontal,a,38,18,female,2021-02-20_17h02.41.894,exp11,2020.2.6,MacIntel,60,IwAR0U0N2r7Wz3tx8_zo6WMUTajaJJNk3WVkEedKbuVWuY7x2IGd22fUIWMv0,,,,,,,,,,,
,,,,,,,,,,,,,,p,1,0.70093,space,0.49934,0,96,96,44,1,3_dist_red/trial20.png,,,1,3,redHorizontal,p,38,18,female,2021-02-20_17h02.41.894,exp11,2020.2.6,MacIntel,60,IwAR0U0N2r7Wz3tx8_zo6WMUTajaJJNk3WVkEedKbuVWuY7x2IGd22fUIWMv0,,,,,,,,,,,
,,,,,,,,,,,,,,p,1,0.751485,space,0.532215,0,97,97,45,1,3_dist_red/trial21.png,,,1,3,redHorizontal,p,38,18,female,2021-02-20_17h02.41.894,exp11,2020.2.6,MacIntel,60,IwAR0U0N2r7Wz3tx8_zo6WMUTajaJJNk3WVkEedKbuVWuY7x2IGd22fUIWMv0,,,,,,,,,,,
,,,,,,,,,,,,,,p,1,0.715725,space,0.527925,0,98,98,26,1,3_dist_red/trial2.png,,,1,3,redHorizontal,p,38,18,female,2021-02-20_17h02.41.894,exp11,2020.2.6,MacIntel,60,IwAR0U0N2r7Wz3tx8_zo6WMUTajaJJNk3WVkEedKbuVWuY7x2IGd22fUIWMv0,,,,,,,,,,,
,,,,,,,,,,,,,,a,1,0.66667,space,0.582615,0,99,99,153,1,0_targ_10_dist_red/trial4.png,,,0,10,redHorizontal,a,38,18,female,2021-02-20_17h02.41.894,exp11,2020.2.6,MacIntel,60,IwAR0U0N2r7Wz3tx8_zo6WMUTajaJJNk3WVkEedKbuVWuY7x2IGd22fUIWMv0,,,,,,,,,,,
,,,,,,,,,,,,,,p,1,0.678655,space,0.552655,0,100,100,81,1,15_dist_red/trial7.png,,,1,15,redHorizontal,p,38,18,female,2021-02-20_17h02.41.894,exp11,2020.2.6,MacIntel,60,IwAR0U0N2r7Wz3tx8_zo6WMUTajaJJNk3WVkEedKbuVWuY7x2IGd22fUIWMv0,,,,,,,,,,,
,,,,,,,,,,,,,,a,1,0.72483,space,0.567595,0,101,101,127,1,0_targ_4_dist_red/trial3.png,,,0,4,redHorizontal,a,38,18,female,2021-02-20_17h02.41.894,exp11,2020.2.6,MacIntel,60,IwAR0U0N2r7Wz3tx8_zo6WMUTajaJJNk3WVkEedKbuVWuY7x2IGd22fUIWMv0,,,,,,,,,,,
,,,,,,,,,,,,,,a,1,0.68418,space,0.56606,0,102,102,124,1,0_targ_1_dist_red/trial25.png,,,0,1,redHorizontal,a,38,18,female,2021-02-20_17h02.41.894,exp11,2020.2.6,MacIntel,60,IwAR0U0N2r7Wz3tx8_zo6WMUTajaJJNk3WVkEedKbuVWuY7x2IGd22fUIWMv0,,,,,,,,,,,
,,,,,,,,,,,,,,a,1,1.31897,space,0.453415,0,103,103,192,1,0_targ_16_dist_red/trial18.png,,,0,16,redHorizontal,a,38,18,female,2021-02-20_17h02.41.894,exp11,2020.2.6,MacIntel,60,IwAR0U0N2r7Wz3tx8_zo6WMUTajaJJNk3WVkEedKbuVWuY7x2IGd22fUIWMv0,,,,,,,,,,,
,,,,,,,,,,,,,,p,1,0.97794,space,0.45268,0,104,104,76,1,15_dist_red/trial2.png,,,1,15,redHorizontal,p,38,18,female,2021-02-20_17h02.41.894,exp11,2020.2.6,MacIntel,60,IwAR0U0N2r7Wz3tx8_zo6WMUTajaJJNk3WVkEedKbuVWuY7x2IGd22fUIWMv0,,,,,,,,,,,
,,,,,,,,,,,,,,p,1,2.13314,space,0.450955,0,105,105,69,1,9_dist_red/trial20.png,,,1,9,redHorizontal,p,38,18,female,2021-02-20_17h02.41.894,exp11,2020.2.6,MacIntel,60,IwAR0U0N2r7Wz3tx8_zo6WMUTajaJJNk3WVkEedKbuVWuY7x2IGd22fUIWMv0,,,,,,,,,,,
,,,,,,,,,,,,,,a,1,0.78252,space,0.49975,0,106,106,150,1,0_targ_10_dist_red/trial1.png,,,0,10,redHorizontal,a,38,18,female,2021-02-20_17h02.41.894,exp11,2020.2.6,MacIntel,60,IwAR0U0N2r7Wz3tx8_zo6WMUTajaJJNk3WVkEedKbuVWuY7x2IGd22fUIWMv0,,,,,,,,,,,
,,,,,,,,,,,,,,a,1,1.0351,space,0.564935,0,107,107,154,1,0_targ_10_dist_red/trial5.png,,,0,10,redHorizontal,a,38,18,female,2021-02-20_17h02.41.894,exp11,2020.2.6,MacIntel,60,IwAR0U0N2r7Wz3tx8_zo6WMUTajaJJNk3WVkEedKbuVWuY7x2IGd22fUIWMv0,,,,,,,,,,,
,,,,,,,,,,,,,,a,1,0.92617,space,0.481385,0,108,108,177,1,0_targ_16_dist_red/trial3.png,,,0,16,redHorizontal,a,38,18,female,2021-02-20_17h02.41.894,exp11,2020.2.6,MacIntel,60,IwAR0U0N2r7Wz3tx8_zo6WMUTajaJJNk3WVkEedKbuVWuY7x2IGd22fUIWMv0,,,,,,,,,,,
,,,,,,,,,,,,,,p,1,0.66745,space,0.505655,0,109,109,19,1,0_dist_red/trial20.png,,,1,0,redHorizontal,p,38,18,female,2021-02-20_17h02.41.894,exp11,2020.2.6,MacIntel,60,IwAR0U0N2r7Wz3tx8_zo6WMUTajaJJNk3WVkEedKbuVWuY7x2IGd22fUIWMv0,,,,,,,,,,,
,,,,,,,,,,,,,,a,1,0.79497,space,0.567525,0,110,110,185,1,0_targ_16_dist_red/trial11.png,,,0,16,redHorizontal,a,38,18,female,2021-02-20_17h02.41.894,exp11,2020.2.6,MacIntel,60,IwAR0U0N2r7Wz3tx8_zo6WMUTajaJJNk3WVkEedKbuVWuY7x2IGd22fUIWMv0,,,,,,,,,,,
,,,,,,,,,,,,,,a,1,1.529335,space,0.615755,0,111,111,163,1,0_targ_10_dist_red/trial14.png,,,0,10,redHorizontal,a,38,18,female,2021-02-20_17h02.41.894,exp11,2020.2.6,MacIntel,60,IwAR0U0N2r7Wz3tx8_zo6WMUTajaJJNk3WVkEedKbuVWuY7x2IGd22fUIWMv0,,,,,,,,,,,
,,,,,,,,,,,,,,a,1,0.764815,space,0.59985,0,112,112,189,1,0_targ_16_dist_red/trial15.png,,,0,16,redHorizontal,a,38,18,female,2021-02-20_17h02.41.894,exp11,2020.2.6,MacIntel,60,IwAR0U0N2r7Wz3tx8_zo6WMUTajaJJNk3WVkEedKbuVWuY7x2IGd22fUIWMv0,,,,,,,,,,,
,,,,,,,,,,,,,,a,1,0.90084,space,0.5008,0,113,113,161,1,0_targ_10_dist_red/trial12.png,,,0,10,redHorizontal,a,38,18,female,2021-02-20_17h02.41.894,exp11,2020.2.6,MacIntel,60,IwAR0U0N2r7Wz3tx8_zo6WMUTajaJJNk3WVkEedKbuVWuY7x2IGd22fUIWMv0,,,,,,,,,,,
,,,,,,,,,,,,,,a,1,1.115215,space,0.45465,0,114,114,168,1,0_targ_10_dist_red/trial19.png,,,0,10,redHorizontal,a,38,18,female,2021-02-20_17h02.41.894,exp11,2020.2.6,MacIntel,60,IwAR0U0N2r7Wz3tx8_zo6WMUTajaJJNk3WVkEedKbuVWuY7x2IGd22fUIWMv0,,,,,,,,,,,
,,,,,,,,,,,,,,a,1,0.66694,space,0.46835,0,115,115,173,1,0_targ_10_dist_red/trial24.png,,,0,10,redHorizontal,a,38,18,female,2021-02-20_17h02.41.894,exp11,2020.2.6,MacIntel,60,IwAR0U0N2r7Wz3tx8_zo6WMUTajaJJNk3WVkEedKbuVWuY7x2IGd22fUIWMv0,,,,,,,,,,,
,,,,,,,,,,,,,,a,1,0.81106,space,0.47011,0,116,116,110,1,0_targ_1_dist_red/trial11.png,,,0,1,redHorizontal,a,38,18,female,2021-02-20_17h02.41.894,exp11,2020.2.6,MacIntel,60,IwAR0U0N2r7Wz3tx8_zo6WMUTajaJJNk3WVkEedKbuVWuY7x2IGd22fUIWMv0,,,,,,,,,,,
,,,,,,,,,,,,,,p,1,0.650105,space,0.537915,0,117,117,8,1,0_dist_red/trial9.png,,,1,0,redHorizontal,p,38,18,female,2021-02-20_17h02.41.894,exp11,2020.2.6,MacIntel,60,IwAR0U0N2r7Wz3tx8_zo6WMUTajaJJNk3WVkEedKbuVWuY7x2IGd22fUIWMv0,,,,,,,,,,,
,,,,,,,,,,,,,,a,1,0.646185,space,0.601425,0,118,118,172,1,0_targ_10_dist_red/trial23.png,,,0,10,redHorizontal,a,38,18,female,2021-02-20_17h02.41.894,exp11,2020.2.6,MacIntel,60,IwAR0U0N2r7Wz3tx8_zo6WMUTajaJJNk3WVkEedKbuVWuY7x2IGd22fUIWMv0,,,,,,,,,,,
,,,,,,,,,,,,,,a,1,0.68571,space,0.53554,0,119,119,152,1,0_targ_10_dist_red/trial3.png,,,0,10,redHorizontal,a,38,18,female,2021-02-20_17h02.41.894,exp11,2020.2.6,MacIntel,60,IwAR0U0N2r7Wz3tx8_zo6WMUTajaJJNk3WVkEedKbuVWuY7x2IGd22fUIWMv0,,,,,,,,,,,
,,,,,,,,,,,,,,a,1,0.64085,space,0.564415,0,120,120,193,1,0_targ_16_dist_red/trial19.png,,,0,16,redHorizontal,a,38,18,female,2021-02-20_17h02.41.894,exp11,2020.2.6,MacIntel,60,IwAR0U0N2r7Wz3tx8_zo6WMUTajaJJNk3WVkEedKbuVWuY7x2IGd22fUIWMv0,,,,,,,,,,,
,,,,,,,,,,,,,,p,1,0.734205,space,0.55293,0,121,121,50,1,9_dist_red/trial1.png,,,1,9,redHorizontal,p,38,18,female,2021-02-20_17h02.41.894,exp11,2020.2.6,MacIntel,60,IwAR0U0N2r7Wz3tx8_zo6WMUTajaJJNk3WVkEedKbuVWuY7x2IGd22fUIWMv0,,,,,,,,,,,
,,,,,,,,,,,,,,p,1,0.78248,space,0.49954,0,122,122,89,1,15_dist_red/trial15.png,,,1,15,redHorizontal,p,38,18,female,2021-02-20_17h02.41.894,exp11,2020.2.6,MacIntel,60,IwAR0U0N2r7Wz3tx8_zo6WMUTajaJJNk3WVkEedKbuVWuY7x2IGd22fUIWMv0,,,,,,,,,,,
,,,,,,,,,,,,,,p,1,0.751545,space,0.48609,0,123,123,63,1,9_dist_red/trial14.png,,,1,9,redHorizontal,p,38,18,female,2021-02-20_17h02.41.894,exp11,2020.2.6,MacIntel,60,IwAR0U0N2r7Wz3tx8_zo6WMUTajaJJNk3WVkEedKbuVWuY7x2IGd22fUIWMv0,,,,,,,,,,,
,,,,,,,,,,,,,,a,1,0.67965,space,0.551295,0,124,124,146,1,0_targ_4_dist_red/trial22.png,,,0,4,redHorizontal,a,38,18,female,2021-02-20_17h02.41.894,exp11,2020.2.6,MacIntel,60,IwAR0U0N2r7Wz3tx8_zo6WMUTajaJJNk3WVkEedKbuVWuY7x2IGd22fUIWMv0,,,,,,,,,,,
,,,,,,,,,,,,,,a,1,0.68423,space,0.8491,0,125,125,147,1,0_targ_4_dist_red/trial23.png,,,0,4,redHorizontal,a,38,18,female,2021-02-20_17h02.41.894,exp11,2020.2.6,MacIntel,60,IwAR0U0N2r7Wz3tx8_zo6WMUTajaJJNk3WVkEedKbuVWuY7x2IGd22fUIWMv0,,,,,,,,,,,
,,,,,,,,,,,,,,a,1,0.78591,space,0.483035,0,126,126,184,1,0_targ_16_dist_red/trial10.png,,,0,16,redHorizontal,a,38,18,female,2021-02-20_17h02.41.894,exp11,2020.2.6,MacIntel,60,IwAR0U0N2r7Wz3tx8_zo6WMUTajaJJNk3WVkEedKbuVWuY7x2IGd22fUIWMv0,,,,,,,,,,,
,,,,,,,,,,,,,,a,1,0.65216,space,0.515115,0,127,127,112,1,0_targ_1_dist_red/trial13.png,,,0,1,redHorizontal,a,38,18,female,2021-02-20_17h02.41.894,exp11,2020.2.6,MacIntel,60,IwAR0U0N2r7Wz3tx8_zo6WMUTajaJJNk3WVkEedKbuVWuY7x2IGd22fUIWMv0,,,,,,,,,,,
,,,,,,,,,,,,,,a,1,0.56658,space,0.50276,0,128,128,115,1,0_targ_1_dist_red/trial6.png,,,0,1,redHorizontal,a,38,18,female,2021-02-20_17h02.41.894,exp11,2020.2.6,MacIntel,60,IwAR0U0N2r7Wz3tx8_zo6WMUTajaJJNk3WVkEedKbuVWuY7x2IGd22fUIWMv0,,,,,,,,,,,
,,,,,,,,,,,,,,p,1,0.783185,space,0.515705,0,129,129,83,1,15_dist_red/trial9.png,,,1,15,redHorizontal,p,38,18,female,2021-02-20_17h02.41.894,exp11,2020.2.6,MacIntel,60,IwAR0U0N2r7Wz3tx8_zo6WMUTajaJJNk3WVkEedKbuVWuY7x2IGd22fUIWMv0,,,,,,,,,,,
,,,,,,,,,,,,,,a,1,0.6509,space,0.499945,0,130,130,121,1,0_targ_1_dist_red/trial22.png,,,0,1,redHorizontal,a,38,18,female,2021-02-20_17h02.41.894,exp11,2020.2.6,MacIntel,60,IwAR0U0N2r7Wz3tx8_zo6WMUTajaJJNk3WVkEedKbuVWuY7x2IGd22fUIWMv0,,,,,,,,,,,
,,,,,,,,,,,,,,p,1,0.796845,space,0.534265,0,131,131,12,1,0_dist_red/trial13.png,,,1,0,redHorizontal,p,38,18,female,2021-02-20_17h02.41.894,exp11,2020.2.6,MacIntel,60,IwAR0U0N2r7Wz3tx8_zo6WMUTajaJJNk3WVkEedKbuVWuY7x2IGd22fUIWMv0,,,,,,,,,,,
,,,,,,,,,,,,,,a,1,1.39661,space,0.538355,0,132,132,156,1,0_targ_10_dist_red/trial7.png,,,0,10,redHorizontal,a,38,18,female,2021-02-20_17h02.41.894,exp11,2020.2.6,MacIntel,60,IwAR0U0N2r7Wz3tx8_zo6WMUTajaJJNk3WVkEedKbuVWuY7x2IGd22fUIWMv0,,,,,,,,,,,
,,,,,,,,,,,,,,a,0,0.718415,space,0.64847,0,133,133,6,1,0_dist_red/trial7.png,,,1,0,redHorizontal,p,38,18,female,2021-02-20_17h02.41.894,exp11,2020.2.6,MacIntel,60,IwAR0U0N2r7Wz3tx8_zo6WMUTajaJJNk3WVkEedKbuVWuY7x2IGd22fUIWMv0,,,,,,,,,,,
,,,,,,,,,,,,,,p,1,0.774135,space,0.451425,0,134,134,64,1,9_dist_red/trial15.png,,,1,9,redHorizontal,p,38,18,female,2021-02-20_17h02.41.894,exp11,2020.2.6,MacIntel,60,IwAR0U0N2r7Wz3tx8_zo6WMUTajaJJNk3WVkEedKbuVWuY7x2IGd22fUIWMv0,,,,,,,,,,,
,,,,,,,,,,,,,,a,1,0.620435,space,0.420775,0,135,135,135,1,0_targ_4_dist_red/trial11.png,,,0,4,redHorizontal,a,38,18,female,2021-02-20_17h02.41.894,exp11,2020.2.6,MacIntel,60,IwAR0U0N2r7Wz3tx8_zo6WMUTajaJJNk3WVkEedKbuVWuY7x2IGd22fUIWMv0,,,,,,,,,,,
,,,,,,,,,,,,,,a,0,2.165395,space,3.20952,0,136,136,59,1,9_dist_red/trial10.png,,,1,9,redHorizontal,p,38,18,female,2021-02-20_17h02.41.894,exp11,2020.2.6,MacIntel,60,IwAR0U0N2r7Wz3tx8_zo6WMUTajaJJNk3WVkEedKbuVWuY7x2IGd22fUIWMv0,,,,,,,,,,,
,,,,,,,,,,,,,,a,1,0.782695,space,0.41733,0,137,137,113,1,0_targ_1_dist_red/trial14.png,,,0,1,redHorizontal,a,38,18,female,2021-02-20_17h02.41.894,exp11,2020.2.6,MacIntel,60,IwAR0U0N2r7Wz3tx8_zo6WMUTajaJJNk3WVkEedKbuVWuY7x2IGd22fUIWMv0,,,,,,,,,,,
,,,,,,,,,,,,,,p,1,0.66785,space,0.399745,0,138,138,51,1,9_dist_red/trial2.png,,,1,9,redHorizontal,p,38,18,female,2021-02-20_17h02.41.894,exp11,2020.2.6,MacIntel,60,IwAR0U0N2r7Wz3tx8_zo6WMUTajaJJNk3WVkEedKbuVWuY7x2IGd22fUIWMv0,,,,,,,,,,,
,,,,,,,,,,,,,,p,1,0.67322,space,0.331245,0,139,139,78,1,15_dist_red/trial4.png,,,1,15,redHorizontal,p,38,18,female,2021-02-20_17h02.41.894,exp11,2020.2.6,MacIntel,60,IwAR0U0N2r7Wz3tx8_zo6WMUTajaJJNk3WVkEedKbuVWuY7x2IGd22fUIWMv0,,,,,,,,,,,
,,,,,,,,,,,,,,a,1,0.56309,space,0.38516,0,140,140,118,1,0_targ_1_dist_red/trial19.png,,,0,1,redHorizontal,a,38,18,female,2021-02-20_17h02.41.894,exp11,2020.2.6,MacIntel,60,IwAR0U0N2r7Wz3tx8_zo6WMUTajaJJNk3WVkEedKbuVWuY7x2IGd22fUIWMv0,,,,,,,,,,,
,,,,,,,,,,,,,,p,1,0.586005,space,0.318125,0,141,141,52,1,9_dist_red/trial3.png,,,1,9,redHorizontal,p,38,18,female,2021-02-20_17h02.41.894,exp11,2020.2.6,MacIntel,60,IwAR0U0N2r7Wz3tx8_zo6WMUTajaJJNk3WVkEedKbuVWuY7x2IGd22fUIWMv0,,,,,,,,,,,
,,,,,,,,,,,,,,p,1,0.502525,space,0.28692,0,142,142,4,1,0_dist_red/trial5.png,,,1,0,redHorizontal,p,38,18,female,2021-02-20_17h02.41.894,exp11,2020.2.6,MacIntel,60,IwAR0U0N2r7Wz3tx8_zo6WMUTajaJJNk3WVkEedKbuVWuY7x2IGd22fUIWMv0,,,,,,,,,,,
,,,,,,,,,,,,,,p,1,0.58275,space,0.2972,0,143,143,54,1,9_dist_red/trial5.png,,,1,9,redHorizontal,p,38,18,female,2021-02-20_17h02.41.894,exp11,2020.2.6,MacIntel,60,IwAR0U0N2r7Wz3tx8_zo6WMUTajaJJNk3WVkEedKbuVWuY7x2IGd22fUIWMv0,,,,,,,,,,,
,,,,,,,,,,,,,,p,1,0.562945,space,0.32224,0,144,144,53,1,9_dist_red/trial4.png,,,1,9,redHorizontal,p,38,18,female,2021-02-20_17h02.41.894,exp11,2020.2.6,MacIntel,60,IwAR0U0N2r7Wz3tx8_zo6WMUTajaJJNk3WVkEedKbuVWuY7x2IGd22fUIWMv0,,,,,,,,,,,
,,,,,,,,,,,,,,p,1,0.601045,space,0.317685,0,145,145,22,1,0_dist_red/trial23.png,,,1,0,redHorizontal,p,38,18,female,2021-02-20_17h02.41.894,exp11,2020.2.6,MacIntel,60,IwAR0U0N2r7Wz3tx8_zo6WMUTajaJJNk3WVkEedKbuVWuY7x2IGd22fUIWMv0,,,,,,,,,,,
,,,,,,,,,,,,,,a,1,0.620455,space,0.276295,0,146,146,101,1,0_targ_1_dist_red/trial2.png,,,0,1,redHorizontal,a,38,18,female,2021-02-20_17h02.41.894,exp11,2020.2.6,MacIntel,60,IwAR0U0N2r7Wz3tx8_zo6WMUTajaJJNk3WVkEedKbuVWuY7x2IGd22fUIWMv0,,,,,,,,,,,
,,,,,,,,,,,,,,a,1,0.845955,space,0.38159,0,147,147,187,1,0_targ_16_dist_red/trial13.png,,,0,16,redHorizontal,a,38,18,female,2021-02-20_17h02.41.894,exp11,2020.2.6,MacIntel,60,IwAR0U0N2r7Wz3tx8_zo6WMUTajaJJNk3WVkEedKbuVWuY7x2IGd22fUIWMv0,,,,,,,,,,,
,,,,,,,,,,,,,,a,1,0.9753,space,0.302075,0,148,148,159,1,0_targ_10_dist_red/trial10.png,,,0,10,redHorizontal,a,38,18,female,2021-02-20_17h02.41.894,exp11,2020.2.6,MacIntel,60,IwAR0U0N2r7Wz3tx8_zo6WMUTajaJJNk3WVkEedKbuVWuY7x2IGd22fUIWMv0,,,,,,,,,,,
,,,,,,,,,,,,,,p,1,0.720915,space,0.28359,0,149,149,84,1,15_dist_red/trial10.png,,,1,15,redHorizontal,p,38,18,female,2021-02-20_17h02.41.894,exp11,2020.2.6,MacIntel,60,IwAR0U0N2r7Wz3tx8_zo6WMUTajaJJNk3WVkEedKbuVWuY7x2IGd22fUIWMv0,,,,,,,,,,,
,,,,,,,,,,,,,,p,1,0.79223,space,0.331035,0,150,150,15,1,0_dist_red/trial16.png,,,1,0,redHorizontal,p,38,18,female,2021-02-20_17h02.41.894,exp11,2020.2.6,MacIntel,60,IwAR0U0N2r7Wz3tx8_zo6WMUTajaJJNk3WVkEedKbuVWuY7x2IGd22fUIWMv0,,,,,,,,,,,
,,,,,,,,,,,,,,a,1,0.70816,space,0.32421,0,151,151,131,1,0_targ_4_dist_red/trial7.png,,,0,4,redHorizontal,a,38,18,female,2021-02-20_17h02.41.894,exp11,2020.2.6,MacIntel,60,IwAR0U0N2r7Wz3tx8_zo6WMUTajaJJNk3WVkEedKbuVWuY7x2IGd22fUIWMv0,,,,,,,,,,,
,,,,,,,,,,,,,,a,1,0.65168,space,0.364325,0,152,152,139,1,0_targ_4_dist_red/trial15.png,,,0,4,redHorizontal,a,38,18,female,2021-02-20_17h02.41.894,exp11,2020.2.6,MacIntel,60,IwAR0U0N2r7Wz3tx8_zo6WMUTajaJJNk3WVkEedKbuVWuY7x2IGd22fUIWMv0,,,,,,,,,,,
,,,,,,,,,,,,,,a,1,0.99819,space,0.44956,0,153,153,149,1,0_targ_4_dist_red/trial25.png,,,0,4,redHorizontal,a,38,18,female,2021-02-20_17h02.41.894,exp11,2020.2.6,MacIntel,60,IwAR0U0N2r7Wz3tx8_zo6WMUTajaJJNk3WVkEedKbuVWuY7x2IGd22fUIWMv0,,,,,,,,,,,
,,,,,,,,,,,,,,p,1,0.669755,space,0.319945,0,154,154,57,1,9_dist_red/trial8.png,,,1,9,redHorizontal,p,38,18,female,2021-02-20_17h02.41.894,exp11,2020.2.6,MacIntel,60,IwAR0U0N2r7Wz3tx8_zo6WMUTajaJJNk3WVkEedKbuVWuY7x2IGd22fUIWMv0,,,,,,,,,,,
,,,,,,,,,,,,,,p,1,0.83574,space,0.364675,0,155,155,35,1,3_dist_red/trial11.png,,,1,3,redHorizontal,p,38,18,female,2021-02-20_17h02.41.894,exp11,2020.2.6,MacIntel,60,IwAR0U0N2r7Wz3tx8_zo6WMUTajaJJNk3WVkEedKbuVWuY7x2IGd22fUIWMv0,,,,,,,,,,,
,,,,,,,,,,,,,,p,1,0.73554,space,0.36863,0,156,156,70,1,9_dist_red/trial21.png,,,1,9,redHorizontal,p,38,18,female,2021-02-20_17h02.41.894,exp11,2020.2.6,MacIntel,60,IwAR0U0N2r7Wz3tx8_zo6WMUTajaJJNk3WVkEedKbuVWuY7x2IGd22fUIWMv0,,,,,,,,,,,
,,,,,,,,,,,,,,a,1,0.736435,space,0.368865,0,157,157,180,1,0_targ_16_dist_red/trial6.png,,,0,16,redHorizontal,a,38,18,female,2021-02-20_17h02.41.894,exp11,2020.2.6,MacIntel,60,IwAR0U0N2r7Wz3tx8_zo6WMUTajaJJNk3WVkEedKbuVWuY7x2IGd22fUIWMv0,,,,,,,,,,,
,,,,,,,,,,,,,,p,1,0.63183,space,0.3884,0,158,158,10,1,0_dist_red/trial11.png,,,1,0,redHorizontal,p,38,18,female,2021-02-20_17h02.41.894,exp11,2020.2.6,MacIntel,60,IwAR0U0N2r7Wz3tx8_zo6WMUTajaJJNk3WVkEedKbuVWuY7x2IGd22fUIWMv0,,,,,,,,,,,
,,,,,,,,,,,,,,p,1,0.683465,space,0.39899,0,159,159,67,1,9_dist_red/trial18.png,,,1,9,redHorizontal,p,38,18,female,2021-02-20_17h02.41.894,exp11,2020.2.6,MacIntel,60,IwAR0U0N2r7Wz3tx8_zo6WMUTajaJJNk3WVkEedKbuVWuY7x2IGd22fUIWMv0,,,,,,,,,,,
,,,,,,,,,,,,,,p,1,0.530765,space,0.487755,0,160,160,21,1,0_dist_red/trial22.png,,,1,0,redHorizontal,p,38,18,female,2021-02-20_17h02.41.894,exp11,2020.2.6,MacIntel,60,IwAR0U0N2r7Wz3tx8_zo6WMUTajaJJNk3WVkEedKbuVWuY7x2IGd22fUIWMv0,,,,,,,,,,,
,,,,,,,,,,,,,,p,1,0.85459,space,0.504025,0,161,161,47,1,3_dist_red/trial23.png,,,1,3,redHorizontal,p,38,18,female,2021-02-20_17h02.41.894,exp11,2020.2.6,MacIntel,60,IwAR0U0N2r7Wz3tx8_zo6WMUTajaJJNk3WVkEedKbuVWuY7x2IGd22fUIWMv0,,,,,,,,,,,
,,,,,,,,,,,,,,p,1,0.58032,space,0.5225,0,162,162,24,1,0_dist_red/trial25.png,,,1,0,redHorizontal,p,38,18,female,2021-02-20_17h02.41.894,exp11,2020.2.6,MacIntel,60,IwAR0U0N2r7Wz3tx8_zo6WMUTajaJJNk3WVkEedKbuVWuY7x2IGd22fUIWMv0,,,,,,,,,,,
,,,,,,,,,,,,,,a,1,0.61791,space,0.448385,0,163,163,130,1,0_targ_4_dist_red/trial6.png,,,0,4,redHorizontal,a,38,18,female,2021-02-20_17h02.41.894,exp11,2020.2.6,MacIntel,60,IwAR0U0N2r7Wz3tx8_zo6WMUTajaJJNk3WVkEedKbuVWuY7x2IGd22fUIWMv0,,,,,,,,,,,
,,,,,,,,,,,,,,a,1,0.8691,space,0.486765,0,164,164,138,1,0_targ_4_dist_red/trial14.png,,,0,4,redHorizontal,a,38,18,female,2021-02-20_17h02.41.894,exp11,2020.2.6,MacIntel,60,IwAR0U0N2r7Wz3tx8_zo6WMUTajaJJNk3WVkEedKbuVWuY7x2IGd22fUIWMv0,,,,,,,,,,,
,,,,,,,,,,,,,,p,0,0.64743,space,4.302435,0,165,165,119,1,0_targ_1_dist_red/trial20.png,,,0,1,redHorizontal,a,38,18,female,2021-02-20_17h02.41.894,exp11,2020.2.6,MacIntel,60,IwAR0U0N2r7Wz3tx8_zo6WMUTajaJJNk3WVkEedKbuVWuY7x2IGd22fUIWMv0,,,,,,,,,,,
,,,,,,,,,,,,,,p,1,1.245825,space,0.38448,0,166,166,30,1,3_dist_red/trial6.png,,,1,3,redHorizontal,p,38,18,female,2021-02-20_17h02.41.894,exp11,2020.2.6,MacIntel,60,IwAR0U0N2r7Wz3tx8_zo6WMUTajaJJNk3WVkEedKbuVWuY7x2IGd22fUIWMv0,,,,,,,,,,,
,,,,,,,,,,,,,,p,1,0.466985,space,0.350085,0,167,167,14,1,0_dist_red/trial15.png,,,1,0,redHorizontal,p,38,18,female,2021-02-20_17h02.41.894,exp11,2020.2.6,MacIntel,60,IwAR0U0N2r7Wz3tx8_zo6WMUTajaJJNk3WVkEedKbuVWuY7x2IGd22fUIWMv0,,,,,,,,,,,
,,,,,,,,,,,,,,p,1,0.53078,space,0.35503,0,168,168,5,1,0_dist_red/trial6.png,,,1,0,redHorizontal,p,38,18,female,2021-02-20_17h02.41.894,exp11,2020.2.6,MacIntel,60,IwAR0U0N2r7Wz3tx8_zo6WMUTajaJJNk3WVkEedKbuVWuY7x2IGd22fUIWMv0,,,,,,,,,,,
,,,,,,,,,,,,,,p,1,0.6481,space,0.30432,0,169,169,31,1,3_dist_red/trial7.png,,,1,3,redHorizontal,p,38,18,female,2021-02-20_17h02.41.894,exp11,2020.2.6,MacIntel,60,IwAR0U0N2r7Wz3tx8_zo6WMUTajaJJNk3WVkEedKbuVWuY7x2IGd22fUIWMv0,,,,,,,,,,,
,,,,,,,,,,,,,,a,1,0.617265,space,0.398855,0,170,170,145,1,0_targ_4_dist_red/trial21.png,,,0,4,redHorizontal,a,38,18,female,2021-02-20_17h02.41.894,exp11,2020.2.6,MacIntel,60,IwAR0U0N2r7Wz3tx8_zo6WMUTajaJJNk3WVkEedKbuVWuY7x2IGd22fUIWMv0,,,,,,,,,,,
,,,,,,,,,,,,,,a,1,0.84841,space,0.38828,0,171,171,109,1,0_targ_1_dist_red/trial10.png,,,0,1,redHorizontal,a,38,18,female,2021-02-20_17h02.41.894,exp11,2020.2.6,MacIntel,60,IwAR0U0N2r7Wz3tx8_zo6WMUTajaJJNk3WVkEedKbuVWuY7x2IGd22fUIWMv0,,,,,,,,,,,
,,,,,,,,,,,,,,a,1,0.882355,space,0.420535,0,172,172,195,1,0_targ_16_dist_red/trial21.png,,,0,16,redHorizontal,a,38,18,female,2021-02-20_17h02.41.894,exp11,2020.2.6,MacIntel,60,IwAR0U0N2r7Wz3tx8_zo6WMUTajaJJNk3WVkEedKbuVWuY7x2IGd22fUIWMv0,,,,,,,,,,,
,,,,,,,,,,,,,,a,1,0.58466,space,0.416995,0,173,173,142,1,0_targ_4_dist_red/trial18.png,,,0,4,redHorizontal,a,38,18,female,2021-02-20_17h02.41.894,exp11,2020.2.6,MacIntel,60,IwAR0U0N2r7Wz3tx8_zo6WMUTajaJJNk3WVkEedKbuVWuY7x2IGd22fUIWMv0,,,,,,,,,,,
,,,,,,,,,,,,,,p,1,0.66274,space,0.43534,0,174,174,56,1,9_dist_red/trial7.png,,,1,9,redHorizontal,p,38,18,female,2021-02-20_17h02.41.894,exp11,2020.2.6,MacIntel,60,IwAR0U0N2r7Wz3tx8_zo6WMUTajaJJNk3WVkEedKbuVWuY7x2IGd22fUIWMv0,,,,,,,,,,,
,,,,,,,,,,,,,,p,1,0.66599,space,0.437985,0,175,175,41,1,3_dist_red/trial17.png,,,1,3,redHorizontal,p,38,18,female,2021-02-20_17h02.41.894,exp11,2020.2.6,MacIntel,60,IwAR0U0N2r7Wz3tx8_zo6WMUTajaJJNk3WVkEedKbuVWuY7x2IGd22fUIWMv0,,,,,,,,,,,
,,,,,,,,,,,,,,p,1,0.603275,space,0.43726,0,176,176,73,1,9_dist_red/trial24.png,,,1,9,redHorizontal,p,38,18,female,2021-02-20_17h02.41.894,exp11,2020.2.6,MacIntel,60,IwAR0U0N2r7Wz3tx8_zo6WMUTajaJJNk3WVkEedKbuVWuY7x2IGd22fUIWMv0,,,,,,,,,,,
,,,,,,,,,,,,,,a,1,0.84857,space,0.52251,0,177,177,176,1,0_targ_16_dist_red/trial2.png,,,0,16,redHorizontal,a,38,18,female,2021-02-20_17h02.41.894,exp11,2020.2.6,MacIntel,60,IwAR0U0N2r7Wz3tx8_zo6WMUTajaJJNk3WVkEedKbuVWuY7x2IGd22fUIWMv0,,,,,,,,,,,
,,,,,,,,,,,,,,a,1,0.782815,space,0.41788,0,178,178,165,1,0_targ_10_dist_red/trial16.png,,,0,10,redHorizontal,a,38,18,female,2021-02-20_17h02.41.894,exp11,2020.2.6,MacIntel,60,IwAR0U0N2r7Wz3tx8_zo6WMUTajaJJNk3WVkEedKbuVWuY7x2IGd22fUIWMv0,,,,,,,,,,,
,,,,,,,,,,,,,,p,1,0.58462,space,0.437565,0,179,179,16,1,0_dist_red/trial17.png,,,1,0,redHorizontal,p,38,18,female,2021-02-20_17h02.41.894,exp11,2020.2.6,MacIntel,60,IwAR0U0N2r7Wz3tx8_zo6WMUTajaJJNk3WVkEedKbuVWuY7x2IGd22fUIWMv0,,,,,,,,,,,
,,,,,,,,,,,,,,a,1,0.60289,space,0.43174,0,180,180,170,1,0_targ_10_dist_red/trial21.png,,,0,10,redHorizontal,a,38,18,female,2021-02-20_17h02.41.894,exp11,2020.2.6,MacIntel,60,IwAR0U0N2r7Wz3tx8_zo6WMUTajaJJNk3WVkEedKbuVWuY7x2IGd22fUIWMv0,,,,,,,,,,,
,,,,,,,,,,,,,,p,1,0.66075,space,0.41784,0,181,181,96,1,15_dist_red/trial22.png,,,1,15,redHorizontal,p,38,18,female,2021-02-20_17h02.41.894,exp11,2020.2.6,MacIntel,60,IwAR0U0N2r7Wz3tx8_zo6WMUTajaJJNk3WVkEedKbuVWuY7x2IGd22fUIWMv0,,,,,,,,,,,
,,,,,,,,,,,,,,a,1,0.682515,space,0.420715,0,182,182,169,1,0_targ_10_dist_red/trial20.png,,,0,10,redHorizontal,a,38,18,female,2021-02-20_17h02.41.894,exp11,2020.2.6,MacIntel,60,IwAR0U0N2r7Wz3tx8_zo6WMUTajaJJNk3WVkEedKbuVWuY7x2IGd22fUIWMv0,,,,,,,,,,,
,,,,,,,,,,,,,,a,1,0.7976,space,0.420795,0,183,183,136,1,0_targ_4_dist_red/trial12.png,,,0,4,redHorizontal,a,38,18,female,2021-02-20_17h02.41.894,exp11,2020.2.6,MacIntel,60,IwAR0U0N2r7Wz3tx8_zo6WMUTajaJJNk3WVkEedKbuVWuY7x2IGd22fUIWMv0,,,,,,,,,,,
,,,,,,,,,,,,,,a,1,0.813225,space,0.43989,0,184,184,123,1,0_targ_1_dist_red/trial24.png,,,0,1,redHorizontal,a,38,18,female,2021-02-20_17h02.41.894,exp11,2020.2.6,MacIntel,60,IwAR0U0N2r7Wz3tx8_zo6WMUTajaJJNk3WVkEedKbuVWuY7x2IGd22fUIWMv0,,,,,,,,,,,
,,,,,,,,,,,,,,p,1,0.73359,space,0.43317,0,185,185,40,1,3_dist_red/trial16.png,,,1,3,redHorizontal,p,38,18,female,2021-02-20_17h02.41.894,exp11,2020.2.6,MacIntel,60,IwAR0U0N2r7Wz3tx8_zo6WMUTajaJJNk3WVkEedKbuVWuY7x2IGd22fUIWMv0,,,,,,,,,,,
,,,,,,,,,,,,,,a,1,0.62931,space,0.41892,0,186,186,132,1,0_targ_4_dist_red/trial8.png,,,0,4,redHorizontal,a,38,18,female,2021-02-20_17h02.41.894,exp11,2020.2.6,MacIntel,60,IwAR0U0N2r7Wz3tx8_zo6WMUTajaJJNk3WVkEedKbuVWuY7x2IGd22fUIWMv0,,,,,,,,,,,
,,,,,,,,,,,,,,a,1,0.70542,space,0.349645,0,187,187,105,1,0_targ_1_dist_red/trial6.png,,,0,1,redHorizontal,a,38,18,female,2021-02-20_17h02.41.894,exp11,2020.2.6,MacIntel,60,IwAR0U0N2r7Wz3tx8_zo6WMUTajaJJNk3WVkEedKbuVWuY7x2IGd22fUIWMv0,,,,,,,,,,,
,,,,,,,,,,,,,,a,1,0.59966,space,0.449445,0,188,188,137,1,0_targ_4_dist_red/trial13.png,,,0,4,redHorizontal,a,38,18,female,2021-02-20_17h02.41.894,exp11,2020.2.6,MacIntel,60,IwAR0U0N2r7Wz3tx8_zo6WMUTajaJJNk3WVkEedKbuVWuY7x2IGd22fUIWMv0,,,,,,,,,,,
,,,,,,,,,,,,,,p,1,0.56761,space,0.504185,0,189,189,9,1,0_dist_red/trial10.png,,,1,0,redHorizontal,p,38,18,female,2021-02-20_17h02.41.894,exp11,2020.2.6,MacIntel,60,IwAR0U0N2r7Wz3tx8_zo6WMUTajaJJNk3WVkEedKbuVWuY7x2IGd22fUIWMv0,,,,,,,,,,,
,,,,,,,,,,,,,,a,1,0.69959,space,0.58792,0,190,190,144,1,0_targ_4_dist_red/trial20.png,,,0,4,redHorizontal,a,38,18,female,2021-02-20_17h02.41.894,exp11,2020.2.6,MacIntel,60,IwAR0U0N2r7Wz3tx8_zo6WMUTajaJJNk3WVkEedKbuVWuY7x2IGd22fUIWMv0,,,,,,,,,,,
,,,,,,,,,,,,,,p,1,0.55167,space,0.516995,0,191,191,13,1,0_dist_red/trial14.png,,,1,0,redHorizontal,p,38,18,female,2021-02-20_17h02.41.894,exp11,2020.2.6,MacIntel,60,IwAR0U0N2r7Wz3tx8_zo6WMUTajaJJNk3WVkEedKbuVWuY7x2IGd22fUIWMv0,,,,,,,,,,,
,,,,,,,,,,,,,,p,1,0.617835,space,0.64936,0,192,192,43,1,3_dist_red/trial19.png,,,1,3,redHorizontal,p,38,18,female,2021-02-20_17h02.41.894,exp11,2020.2.6,MacIntel,60,IwAR0U0N2r7Wz3tx8_zo6WMUTajaJJNk3WVkEedKbuVWuY7x2IGd22fUIWMv0,,,,,,,,,,,
,,,,,,,,,,,,,,a,1,0.66767,space,0.557405,0,193,193,174,1,0_targ_10_dist_red/trial25.png,,,0,10,redHorizontal,a,38,18,female,2021-02-20_17h02.41.894,exp11,2020.2.6,MacIntel,60,IwAR0U0N2r7Wz3tx8_zo6WMUTajaJJNk3WVkEedKbuVWuY7x2IGd22fUIWMv0,,,,,,,,,,,
,,,,,,,,,,,,,,p,1,0.644925,space,0.51356,0,194,194,86,1,15_dist_red/trial12.png,,,1,15,redHorizontal,p,38,18,female,2021-02-20_17h02.41.894,exp11,2020.2.6,MacIntel,60,IwAR0U0N2r7Wz3tx8_zo6WMUTajaJJNk3WVkEedKbuVWuY7x2IGd22fUIWMv0,,,,,,,,,,,
,,,,,,,,,,,,,,p,1,0.56132,space,0.548925,0,195,195,61,1,9_dist_red/trial12.png,,,1,9,redHorizontal,p,38,18,female,2021-02-20_17h02.41.894,exp11,2020.2.6,MacIntel,60,IwAR0U0N2r7Wz3tx8_zo6WMUTajaJJNk3WVkEedKbuVWuY7x2IGd22fUIWMv0,,,,,,,,,,,
,,,,,,,,,,,,,,a,1,0.820975,space,0.584465,0,196,196,122,1,0_targ_1_dist_red/trial23.png,,,0,1,redHorizontal,a,38,18,female,2021-02-20_17h02.41.894,exp11,2020.2.6,MacIntel,60,IwAR0U0N2r7Wz3tx8_zo6WMUTajaJJNk3WVkEedKbuVWuY7x2IGd22fUIWMv0,,,,,,,,,,,
,,,,,,,,,,,,,,a,1,0.547565,space,0.60285,0,197,197,126,1,0_targ_4_dist_red/trial2.png,,,0,4,redHorizontal,a,38,18,female,2021-02-20_17h02.41.894,exp11,2020.2.6,MacIntel,60,IwAR0U0N2r7Wz3tx8_zo6WMUTajaJJNk3WVkEedKbuVWuY7x2IGd22fUIWMv0,,,,,,,,,,,
,,,,,,,,,,,,,,p,1,1.08336,space,0.502715,0,198,198,82,1,15_dist_red/trial8.png,,,1,15,redHorizontal,p,38,18,female,2021-02-20_17h02.41.894,exp11,2020.2.6,MacIntel,60,IwAR0U0N2r7Wz3tx8_zo6WMUTajaJJNk3WVkEedKbuVWuY7x2IGd22fUIWMv0,,,,,,,,,,,
,,,,,,,,,,,,,,p,1,0.581935,space,0.57091,0,199,199,72,1,9_dist_red/trial23.png,,,1,9,redHorizontal,p,38,18,female,2021-02-20_17h02.41.894,exp11,2020.2.6,MacIntel,60,IwAR0U0N2r7Wz3tx8_zo6WMUTajaJJNk3WVkEedKbuVWuY7x2IGd22fUIWMv0,,,,,,,,,,,
,,,,,,,,,,,,,,,,,,,,,,,,,,,,,,,38,18,female,2021-02-20_17h02.41.894,exp11,2020.2.6,MacIntel,60,IwAR0U0N2r7Wz3tx8_zo6WMUTajaJJNk3WVkEedKbuVWuY7x2IGd22fUIWMv0,0,0,0,1,1,conRed.xlsx,red horizontal,Look for red horizontal bar (target) and indicate if it is present or absent in the array. If red horizontal target is present press 'p' and if absent press 'a'. Press SPACE to start.,,,
,,,,,,,,,,space,7.215545,space,1.84462,a,1,0.76202,space,0.550205,0,0,0,108,1,0_targ_1_dist_green/trial9.png,,,0,1,greenverival,a,38,18,female,2021-02-20_17h02.41.894,exp11,2020.2.6,MacIntel,60,IwAR0U0N2r7Wz3tx8_zo6WMUTajaJJNk3WVkEedKbuVWuY7x2IGd22fUIWMv0,,,,,,,,,,,
,,,,,,,,,,,,,,p,1,0.54589,space,0.484785,0,1,1,20,1,0_dist_green/trial21.png,,,1,0,greenverival,p,38,18,female,2021-02-20_17h02.41.894,exp11,2020.2.6,MacIntel,60,IwAR0U0N2r7Wz3tx8_zo6WMUTajaJJNk3WVkEedKbuVWuY7x2IGd22fUIWMv0,,,,,,,,,,,
,,,,,,,,,,,,,,a,1,1.48275,space,0.416115,0,2,2,179,1,0_targ_16_dist_green/trial5.png,,,0,16,greenverival,a,38,18,female,2021-02-20_17h02.41.894,exp11,2020.2.6,MacIntel,60,IwAR0U0N2r7Wz3tx8_zo6WMUTajaJJNk3WVkEedKbuVWuY7x2IGd22fUIWMv0,,,,,,,,,,,
,,,,,,,,,,,,,,p,1,0.81921,space,0.453815,0,3,3,52,1,9_dist_green/trial3.png,,,1,9,greenverival,p,38,18,female,2021-02-20_17h02.41.894,exp11,2020.2.6,MacIntel,60,IwAR0U0N2r7Wz3tx8_zo6WMUTajaJJNk3WVkEedKbuVWuY7x2IGd22fUIWMv0,,,,,,,,,,,
,,,,,,,,,,,,,,p,1,0.70048,space,0.48568,0,4,4,80,1,15_dist_green/trial6.png,,,1,15,greenverival,p,38,18,female,2021-02-20_17h02.41.894,exp11,2020.2.6,MacIntel,60,IwAR0U0N2r7Wz3tx8_zo6WMUTajaJJNk3WVkEedKbuVWuY7x2IGd22fUIWMv0,,,,,,,,,,,
,,,,,,,,,,,,,,p,1,0.61326,space,0.42121,0,5,5,41,1,3_dist_green/trial17.png,,,1,3,greenverival,p,38,18,female,2021-02-20_17h02.41.894,exp11,2020.2.6,MacIntel,60,IwAR0U0N2r7Wz3tx8_zo6WMUTajaJJNk3WVkEedKbuVWuY7x2IGd22fUIWMv0,,,,,,,,,,,
,,,,,,,,,,,,,,a,1,0.585305,space,0.43233,0,6,6,100,1,0_targ_1_dist_green/trial1.png,,,0,1,greenverival,a,38,18,female,2021-02-20_17h02.41.894,exp11,2020.2.6,MacIntel,60,IwAR0U0N2r7Wz3tx8_zo6WMUTajaJJNk3WVkEedKbuVWuY7x2IGd22fUIWMv0,,,,,,,,,,,
,,,,,,,,,,,,,,a,1,1.051545,space,0.369435,0,7,7,154,1,0_targ_10_dist_green/trial5.png,,,0,10,greenverival,a,38,18,female,2021-02-20_17h02.41.894,exp11,2020.2.6,MacIntel,60,IwAR0U0N2r7Wz3tx8_zo6WMUTajaJJNk3WVkEedKbuVWuY7x2IGd22fUIWMv0,,,,,,,,,,,
,,,,,,,,,,,,,,p,1,0.59918,space,0.4412,0,8,8,18,1,0_dist_green/trial19.png,,,1,0,greenverival,p,38,18,female,2021-02-20_17h02.41.894,exp11,2020.2.6,MacIntel,60,IwAR0U0N2r7Wz3tx8_zo6WMUTajaJJNk3WVkEedKbuVWuY7x2IGd22fUIWMv0,,,,,,,,,,,
,,,,,,,,,,,,,,a,0,0.917495,space,1.117465,0,9,9,90,1,15_dist_green/trial16.png,,,1,15,greenverival,p,38,18,female,2021-02-20_17h02.41.894,exp11,2020.2.6,MacIntel,60,IwAR0U0N2r7Wz3tx8_zo6WMUTajaJJNk3WVkEedKbuVWuY7x2IGd22fUIWMv0,,,,,,,,,,,
,,,,,,,,,,,,,,a,1,0.683905,space,0.517555,0,10,10,123,1,0_targ_1_dist_green/trial24.png,,,0,1,greenverival,a,38,18,female,2021-02-20_17h02.41.894,exp11,2020.2.6,MacIntel,60,IwAR0U0N2r7Wz3tx8_zo6WMUTajaJJNk3WVkEedKbuVWuY7x2IGd22fUIWMv0,,,,,,,,,,,
,,,,,,,,,,,,,,a,1,1.032575,space,0.386145,0,11,11,149,1,0_targ_4_dist_green/trial25.png,,,0,4,greenverival,a,38,18,female,2021-02-20_17h02.41.894,exp11,2020.2.6,MacIntel,60,IwAR0U0N2r7Wz3tx8_zo6WMUTajaJJNk3WVkEedKbuVWuY7x2IGd22fUIWMv0,,,,,,,,,,,
,,,,,,,,,,,,,,p,1,0.872285,space,0.419395,0,12,12,91,1,15_dist_green/trial17.png,,,1,15,greenverival,p,38,18,female,2021-02-20_17h02.41.894,exp11,2020.2.6,MacIntel,60,IwAR0U0N2r7Wz3tx8_zo6WMUTajaJJNk3WVkEedKbuVWuY7x2IGd22fUIWMv0,,,,,,,,,,,
,,,,,,,,,,,,,,a,1,0.58553,space,0.36778,0,13,13,119,1,0_targ_1_dist_green/trial20.png,,,0,1,greenverival,a,38,18,female,2021-02-20_17h02.41.894,exp11,2020.2.6,MacIntel,60,IwAR0U0N2r7Wz3tx8_zo6WMUTajaJJNk3WVkEedKbuVWuY7x2IGd22fUIWMv0,,,,,,,,,,,
,,,,,,,,,,,,,,p,1,0.86697,space,0.400585,0,14,14,83,1,15_dist_green/trial9.png,,,1,15,greenverival,p,38,18,female,2021-02-20_17h02.41.894,exp11,2020.2.6,MacIntel,60,IwAR0U0N2r7Wz3tx8_zo6WMUTajaJJNk3WVkEedKbuVWuY7x2IGd22fUIWMv0,,,,,,,,,,,
,,,,,,,,,,,,,,a,1,0.932165,space,0.370435,0,15,15,175,1,0_targ_16_dist_green/trial1.png,,,0,16,greenverival,a,38,18,female,2021-02-20_17h02.41.894,exp11,2020.2.6,MacIntel,60,IwAR0U0N2r7Wz3tx8_zo6WMUTajaJJNk3WVkEedKbuVWuY7x2IGd22fUIWMv0,,,,,,,,,,,
,,,,,,,,,,,,,,a,1,1.069055,space,0.44801,0,16,16,158,1,0_targ_10_dist_green/trial9.png,,,0,10,greenverival,a,38,18,female,2021-02-20_17h02.41.894,exp11,2020.2.6,MacIntel,60,IwAR0U0N2r7Wz3tx8_zo6WMUTajaJJNk3WVkEedKbuVWuY7x2IGd22fUIWMv0,,,,,,,,,,,
,,,,,,,,,,,,,,a,1,0.68772,space,0.38344,0,17,17,135,1,0_targ_4_dist_green/trial11.png,,,0,4,greenverival,a,38,18,female,2021-02-20_17h02.41.894,exp11,2020.2.6,MacIntel,60,IwAR0U0N2r7Wz3tx8_zo6WMUTajaJJNk3WVkEedKbuVWuY7x2IGd22fUIWMv0,,,,,,,,,,,
,,,,,,,,,,,,,,a,1,0.585835,space,0.400565,0,18,18,148,1,0_targ_4_dist_green/trial24.png,,,0,4,greenverival,a,38,18,female,2021-02-20_17h02.41.894,exp11,2020.2.6,MacIntel,60,IwAR0U0N2r7Wz3tx8_zo6WMUTajaJJNk3WVkEedKbuVWuY7x2IGd22fUIWMv0,,,,,,,,,,,
,,,,,,,,,,,,,,a,1,0.703205,space,0.366485,0,19,19,185,1,0_targ_16_dist_green/trial11.png,,,0,16,greenverival,a,38,18,female,2021-02-20_17h02.41.894,exp11,2020.2.6,MacIntel,60,IwAR0U0N2r7Wz3tx8_zo6WMUTajaJJNk3WVkEedKbuVWuY7x2IGd22fUIWMv0,,,,,,,,,,,
,,,,,,,,,,,,,,a,1,0.66397,space,0.42246,0,20,20,183,1,0_targ_16_dist_green/trial9.png,,,0,16,greenverival,a,38,18,female,2021-02-20_17h02.41.894,exp11,2020.2.6,MacIntel,60,IwAR0U0N2r7Wz3tx8_zo6WMUTajaJJNk3WVkEedKbuVWuY7x2IGd22fUIWMv0,,,,,,,,,,,
,,,,,,,,,,,,,,p,1,0.835545,space,0.458475,0,21,21,94,1,15_dist_green/trial20.png,,,1,15,greenverival,p,38,18,female,2021-02-20_17h02.41.894,exp11,2020.2.6,MacIntel,60,IwAR0U0N2r7Wz3tx8_zo6WMUTajaJJNk3WVkEedKbuVWuY7x2IGd22fUIWMv0,,,,,,,,,,,
,,,,,,,,,,,,,,a,1,0.547615,space,0.404255,0,22,22,105,1,0_targ_1_dist_green/trial6.png,,,0,1,greenverival,a,38,18,female,2021-02-20_17h02.41.894,exp11,2020.2.6,MacIntel,60,IwAR0U0N2r7Wz3tx8_zo6WMUTajaJJNk3WVkEedKbuVWuY7x2IGd22fUIWMv0,,,,,,,,,,,
,,,,,,,,,,,,,,a,1,0.81564,space,0.43327,0,23,23,176,1,0_targ_16_dist_green/trial2.png,,,0,16,greenverival,a,38,18,female,2021-02-20_17h02.41.894,exp11,2020.2.6,MacIntel,60,IwAR0U0N2r7Wz3tx8_zo6WMUTajaJJNk3WVkEedKbuVWuY7x2IGd22fUIWMv0,,,,,,,,,,,
,,,,,,,,,,,,,,a,1,0.66594,space,0.515025,0,24,24,184,1,0_targ_16_dist_green/trial10.png,,,0,16,greenverival,a,38,18,female,2021-02-20_17h02.41.894,exp11,2020.2.6,MacIntel,60,IwAR0U0N2r7Wz3tx8_zo6WMUTajaJJNk3WVkEedKbuVWuY7x2IGd22fUIWMv0,,,,,,,,,,,
,,,,,,,,,,,,,,p,1,0.77756,space,0.57304,0,25,25,96,1,15_dist_green/trial22.png,,,1,15,greenverival,p,38,18,female,2021-02-20_17h02.41.894,exp11,2020.2.6,MacIntel,60,IwAR0U0N2r7Wz3tx8_zo6WMUTajaJJNk3WVkEedKbuVWuY7x2IGd22fUIWMv0,,,,,,,,,,,
,,,,,,,,,,,,,,p,1,0.61066,space,0.48277,0,26,26,39,1,3_dist_green/trial15.png,,,1,3,greenverival,p,38,18,female,2021-02-20_17h02.41.894,exp11,2020.2.6,MacIntel,60,IwAR0U0N2r7Wz3tx8_zo6WMUTajaJJNk3WVkEedKbuVWuY7x2IGd22fUIWMv0,,,,,,,,,,,
,,,,,,,,,,,,,,p,1,0.84897,space,0.539035,0,27,27,58,1,9_dist_green/trial9.png,,,1,9,greenverival,p,38,18,female,2021-02-20_17h02.41.894,exp11,2020.2.6,MacIntel,60,IwAR0U0N2r7Wz3tx8_zo6WMUTajaJJNk3WVkEedKbuVWuY7x2IGd22fUIWMv0,,,,,,,,,,,
,,,,,,,,,,,,,,a,1,0.565915,space,0.48367,0,28,28,121,1,0_targ_1_dist_green/trial22.png,,,0,1,greenverival,a,38,18,female,2021-02-20_17h02.41.894,exp11,2020.2.6,MacIntel,60,IwAR0U0N2r7Wz3tx8_zo6WMUTajaJJNk3WVkEedKbuVWuY7x2IGd22fUIWMv0,,,,,,,,,,,
,,,,,,,,,,,,,,a,1,1.01425,space,0.45724,0,29,29,153,1,0_targ_10_dist_green/trial4.png,,,0,10,greenverival,a,38,18,female,2021-02-20_17h02.41.894,exp11,2020.2.6,MacIntel,60,IwAR0U0N2r7Wz3tx8_zo6WMUTajaJJNk3WVkEedKbuVWuY7x2IGd22fUIWMv0,,,,,,,,,,,
,,,,,,,,,,,,,,p,1,0.730125,space,0.51361,0,30,30,68,1,9_dist_green/trial19.png,,,1,9,greenverival,p,38,18,female,2021-02-20_17h02.41.894,exp11,2020.2.6,MacIntel,60,IwAR0U0N2r7Wz3tx8_zo6WMUTajaJJNk3WVkEedKbuVWuY7x2IGd22fUIWMv0,,,,,,,,,,,
,,,,,,,,,,,,,,p,1,1.17788,space,0.54186,0,31,31,35,1,3_dist_green/trial11.png,,,1,3,greenverival,p,38,18,female,2021-02-20_17h02.41.894,exp11,2020.2.6,MacIntel,60,IwAR0U0N2r7Wz3tx8_zo6WMUTajaJJNk3WVkEedKbuVWuY7x2IGd22fUIWMv0,,,,,,,,,,,
,,,,,,,,,,,,,,a,1,0.624345,space,0.505185,0,32,32,126,1,0_targ_4_dist_green/trial2.png,,,0,4,greenverival,a,38,18,female,2021-02-20_17h02.41.894,exp11,2020.2.6,MacIntel,60,IwAR0U0N2r7Wz3tx8_zo6WMUTajaJJNk3WVkEedKbuVWuY7x2IGd22fUIWMv0,,,,,,,,,,,
,,,,,,,,,,,,,,a,1,0.692885,space,0.485875,0,33,33,107,1,0_targ_1_dist_green/trial8.png,,,0,1,greenverival,a,38,18,female,2021-02-20_17h02.41.894,exp11,2020.2.6,MacIntel,60,IwAR0U0N2r7Wz3tx8_zo6WMUTajaJJNk3WVkEedKbuVWuY7x2IGd22fUIWMv0,,,,,,,,,,,
,,,,,,,,,,,,,,p,1,0.816385,space,0.500525,0,34,34,95,1,15_dist_green/trial21.png,,,1,15,greenverival,p,38,18,female,2021-02-20_17h02.41.894,exp11,2020.2.6,MacIntel,60,IwAR0U0N2r7Wz3tx8_zo6WMUTajaJJNk3WVkEedKbuVWuY7x2IGd22fUIWMv0,,,,,,,,,,,
,,,,,,,,,,,,,,a,1,0.683575,space,0.536825,0,35,35,131,1,0_targ_4_dist_green/trial7.png,,,0,4,greenverival,a,38,18,female,2021-02-20_17h02.41.894,exp11,2020.2.6,MacIntel,60,IwAR0U0N2r7Wz3tx8_zo6WMUTajaJJNk3WVkEedKbuVWuY7x2IGd22fUIWMv0,,,,,,,,,,,
,,,,,,,,,,,,,,a,1,0.61583,space,0.586145,0,36,36,147,1,0_targ_4_dist_green/trial23.png,,,0,4,greenverival,a,38,18,female,2021-02-20_17h02.41.894,exp11,2020.2.6,MacIntel,60,IwAR0U0N2r7Wz3tx8_zo6WMUTajaJJNk3WVkEedKbuVWuY7x2IGd22fUIWMv0,,,,,,,,,,,
,,,,,,,,,,,,,,p,1,0.73046,space,0.537945,0,37,37,50,1,9_dist_green/trial1.png,,,1,9,greenverival,p,38,18,female,2021-02-20_17h02.41.894,exp11,2020.2.6,MacIntel,60,IwAR0U0N2r7Wz3tx8_zo6WMUTajaJJNk3WVkEedKbuVWuY7x2IGd22fUIWMv0,,,,,,,,,,,
,,,,,,,,,,,,,,a,1,0.718175,space,0.532245,0,38,38,169,1,0_targ_10_dist_green/trial20.png,,,0,10,greenverival,a,38,18,female,2021-02-20_17h02.41.894,exp11,2020.2.6,MacIntel,60,IwAR0U0N2r7Wz3tx8_zo6WMUTajaJJNk3WVkEedKbuVWuY7x2IGd22fUIWMv0,,,,,,,,,,,
,,,,,,,,,,,,,,p,1,0.564725,space,0.53939,0,39,39,64,1,9_dist_green/trial15.png,,,1,9,greenverival,p,38,18,female,2021-02-20_17h02.41.894,exp11,2020.2.6,MacIntel,60,IwAR0U0N2r7Wz3tx8_zo6WMUTajaJJNk3WVkEedKbuVWuY7x2IGd22fUIWMv0,,,,,,,,,,,
,,,,,,,,,,,,,,a,1,0.699315,space,0.532555,0,40,40,163,1,0_targ_10_dist_green/trial14.png,,,0,10,greenverival,a,38,18,female,2021-02-20_17h02.41.894,exp11,2020.2.6,MacIntel,60,IwAR0U0N2r7Wz3tx8_zo6WMUTajaJJNk3WVkEedKbuVWuY7x2IGd22fUIWMv0,,,,,,,,,,,
,,,,,,,,,,,,,,a,1,0.768475,space,0.53122,0,41,41,180,1,0_targ_16_dist_green/trial6.png,,,0,16,greenverival,a,38,18,female,2021-02-20_17h02.41.894,exp11,2020.2.6,MacIntel,60,IwAR0U0N2r7Wz3tx8_zo6WMUTajaJJNk3WVkEedKbuVWuY7x2IGd22fUIWMv0,,,,,,,,,,,
,,,,,,,,,,,,,,a,1,0.602675,space,0.62055,0,42,42,125,1,0_targ_4_dist_green/trial1.png,,,0,4,greenverival,a,38,18,female,2021-02-20_17h02.41.894,exp11,2020.2.6,MacIntel,60,IwAR0U0N2r7Wz3tx8_zo6WMUTajaJJNk3WVkEedKbuVWuY7x2IGd22fUIWMv0,,,,,,,,,,,
,,,,,,,,,,,,,,p,1,0.58519,space,0.58349,0,43,43,74,1,9_dist_green/trial25.png,,,1,9,greenverival,p,38,18,female,2021-02-20_17h02.41.894,exp11,2020.2.6,MacIntel,60,IwAR0U0N2r7Wz3tx8_zo6WMUTajaJJNk3WVkEedKbuVWuY7x2IGd22fUIWMv0,,,,,,,,,,,
,,,,,,,,,,,,,,p,1,0.566885,space,0.548675,0,44,44,8,1,0_dist_green/trial9.png,,,1,0,greenverival,p,38,18,female,2021-02-20_17h02.41.894,exp11,2020.2.6,MacIntel,60,IwAR0U0N2r7Wz3tx8_zo6WMUTajaJJNk3WVkEedKbuVWuY7x2IGd22fUIWMv0,,,,,,,,,,,
,,,,,,,,,,,,,,a,1,0.50376,space,0.47005,0,45,45,117,1,0_targ_1_dist_green/trial18.png,,,0,1,greenverival,a,38,18,female,2021-02-20_17h02.41.894,exp11,2020.2.6,MacIntel,60,IwAR0U0N2r7Wz3tx8_zo6WMUTajaJJNk3WVkEedKbuVWuY7x2IGd22fUIWMv0,,,,,,,,,,,
,,,,,,,,,,,,,,a,1,0.70209,space,0.60009,0,46,46,128,1,0_targ_4_dist_green/trial4.png,,,0,4,greenverival,a,38,18,female,2021-02-20_17h02.41.894,exp11,2020.2.6,MacIntel,60,IwAR0U0N2r7Wz3tx8_zo6WMUTajaJJNk3WVkEedKbuVWuY7x2IGd22fUIWMv0,,,,,,,,,,,
,,,,,,,,,,,,,,p,1,0.747585,space,0.532375,0,47,47,45,1,3_dist_green/trial21.png,,,1,3,greenverival,p,38,18,female,2021-02-20_17h02.41.894,exp11,2020.2.6,MacIntel,60,IwAR0U0N2r7Wz3tx8_zo6WMUTajaJJNk3WVkEedKbuVWuY7x2IGd22fUIWMv0,,,,,,,,,,,
,,,,,,,,,,,,,,a,1,0.63343,space,0.61704,0,48,48,138,1,0_targ_4_dist_green/trial14.png,,,0,4,greenverival,a,38,18,female,2021-02-20_17h02.41.894,exp11,2020.2.6,MacIntel,60,IwAR0U0N2r7Wz3tx8_zo6WMUTajaJJNk3WVkEedKbuVWuY7x2IGd22fUIWMv0,,,,,,,,,,,
,,,,,,,,,,,,,,a,1,0.699995,space,0.56654,0,49,49,192,1,0_targ_16_dist_green/trial18.png,,,0,16,greenverival,a,38,18,female,2021-02-20_17h02.41.894,exp11,2020.2.6,MacIntel,60,IwAR0U0N2r7Wz3tx8_zo6WMUTajaJJNk3WVkEedKbuVWuY7x2IGd22fUIWMv0,,,,,,,,,,,
,,,,,,,,,,,,,,p,1,0.698465,space,0.57296,0,50,50,34,1,3_dist_green/trial10.png,,,1,3,greenverival,p,38,18,female,2021-02-20_17h02.41.894,exp11,2020.2.6,MacIntel,60,IwAR0U0N2r7Wz3tx8_zo6WMUTajaJJNk3WVkEedKbuVWuY7x2IGd22fUIWMv0,,,,,,,,,,,
,,,,,,,,,,,,,,p,1,0.65221,space,0.58595,0,51,51,54,1,9_dist_green/trial5.png,,,1,9,greenverival,p,38,18,female,2021-02-20_17h02.41.894,exp11,2020.2.6,MacIntel,60,IwAR0U0N2r7Wz3tx8_zo6WMUTajaJJNk3WVkEedKbuVWuY7x2IGd22fUIWMv0,,,,,,,,,,,
,,,,,,,,,,,,,,p,1,0.532805,space,0.57113,0,52,52,21,1,0_dist_green/trial22.png,,,1,0,greenverival,p,38,18,female,2021-02-20_17h02.41.894,exp11,2020.2.6,MacIntel,60,IwAR0U0N2r7Wz3tx8_zo6WMUTajaJJNk3WVkEedKbuVWuY7x2IGd22fUIWMv0,,,,,,,,,,,
,,,,,,,,,,,,,,a,1,0.670545,space,0.5023,0,53,53,155,1,0_targ_10_dist_green/trial6.png,,,0,10,greenverival,a,38,18,female,2021-02-20_17h02.41.894,exp11,2020.2.6,MacIntel,60,IwAR0U0N2r7Wz3tx8_zo6WMUTajaJJNk3WVkEedKbuVWuY7x2IGd22fUIWMv0,,,,,,,,,,,
,,,,,,,,,,,,,,a,1,0.93281,space,0.55471,0,54,54,187,1,0_targ_16_dist_green/trial13.png,,,0,16,greenverival,a,38,18,female,2021-02-20_17h02.41.894,exp11,2020.2.6,MacIntel,60,IwAR0U0N2r7Wz3tx8_zo6WMUTajaJJNk3WVkEedKbuVWuY7x2IGd22fUIWMv0,,,,,,,,,,,
,,,,,,,,,,,,,,p,1,0.549695,space,0.57377,0,55,55,38,1,3_dist_green/trial14.png,,,1,3,greenverival,p,38,18,female,2021-02-20_17h02.41.894,exp11,2020.2.6,MacIntel,60,IwAR0U0N2r7Wz3tx8_zo6WMUTajaJJNk3WVkEedKbuVWuY7x2IGd22fUIWMv0,,,,,,,,,,,
,,,,,,,,,,,,,,a,1,0.69722,space,0.53178,0,56,56,166,1,0_targ_10_dist_green/trial17.png,,,0,10,greenverival,a,38,18,female,2021-02-20_17h02.41.894,exp11,2020.2.6,MacIntel,60,IwAR0U0N2r7Wz3tx8_zo6WMUTajaJJNk3WVkEedKbuVWuY7x2IGd22fUIWMv0,,,,,,,,,,,
,,,,,,,,,,,,,,a,1,0.64938,space,0.605255,0,57,57,161,1,0_targ_10_dist_green/trial12.png,,,0,10,greenverival,a,38,18,female,2021-02-20_17h02.41.894,exp11,2020.2.6,MacIntel,60,IwAR0U0N2r7Wz3tx8_zo6WMUTajaJJNk3WVkEedKbuVWuY7x2IGd22fUIWMv0,,,,,,,,,,,
,,,,,,,,,,,,,,a,1,0.58415,space,0.550065,0,58,58,199,1,0_targ_16_dist_green/trial25.png,,,0,16,greenverival,a,38,18,female,2021-02-20_17h02.41.894,exp11,2020.2.6,MacIntel,60,IwAR0U0N2r7Wz3tx8_zo6WMUTajaJJNk3WVkEedKbuVWuY7x2IGd22fUIWMv0,,,,,,,,,,,
,,,,,,,,,,,,,,p,1,0.58236,space,0.53933,0,59,59,65,1,9_dist_green/trial16.png,,,1,9,greenverival,p,38,18,female,2021-02-20_17h02.41.894,exp11,2020.2.6,MacIntel,60,IwAR0U0N2r7Wz3tx8_zo6WMUTajaJJNk3WVkEedKbuVWuY7x2IGd22fUIWMv0,,,,,,,,,,,
,,,,,,,,,,,,,,a,1,0.52427,space,0.483505,0,60,60,102,1,0_targ_1_dist_green/trial3.png,,,0,1,greenverival,a,38,18,female,2021-02-20_17h02.41.894,exp11,2020.2.6,MacIntel,60,IwAR0U0N2r7Wz3tx8_zo6WMUTajaJJNk3WVkEedKbuVWuY7x2IGd22fUIWMv0,,,,,,,,,,,
,,,,,,,,,,,,,,a,1,0.5457,space,0.537215,0,61,61,140,1,0_targ_4_dist_green/trial6.png,,,0,4,greenverival,a,38,18,female,2021-02-20_17h02.41.894,exp11,2020.2.6,MacIntel,60,IwAR0U0N2r7Wz3tx8_zo6WMUTajaJJNk3WVkEedKbuVWuY7x2IGd22fUIWMv0,,,,,,,,,,,
,,,,,,,,,,,,,,a,1,0.683105,space,0.555965,0,62,62,134,1,0_targ_4_dist_green/trial10.png,,,0,4,greenverival,a,38,18,female,2021-02-20_17h02.41.894,exp11,2020.2.6,MacIntel,60,IwAR0U0N2r7Wz3tx8_zo6WMUTajaJJNk3WVkEedKbuVWuY7x2IGd22fUIWMv0,,,,,,,,,,,
,,,,,,,,,,,,,,p,1,0.551165,space,0.601275,0,63,63,46,1,3_dist_green/trial22.png,,,1,3,greenverival,p,38,18,female,2021-02-20_17h02.41.894,exp11,2020.2.6,MacIntel,60,IwAR0U0N2r7Wz3tx8_zo6WMUTajaJJNk3WVkEedKbuVWuY7x2IGd22fUIWMv0,,,,,,,,,,,
,,,,,,,,,,,,,,p,1,0.71692,space,0.689235,0,64,64,2,1,0_dist_green/trial3.png,,,1,0,greenverival,p,38,18,female,2021-02-20_17h02.41.894,exp11,2020.2.6,MacIntel,60,IwAR0U0N2r7Wz3tx8_zo6WMUTajaJJNk3WVkEedKbuVWuY7x2IGd22fUIWMv0,,,,,,,,,,,
,,,,,,,,,,,,,,a,1,0.62001,space,0.586675,0,65,65,162,1,0_targ_10_dist_green/trial13.png,,,0,10,greenverival,a,38,18,female,2021-02-20_17h02.41.894,exp11,2020.2.6,MacIntel,60,IwAR0U0N2r7Wz3tx8_zo6WMUTajaJJNk3WVkEedKbuVWuY7x2IGd22fUIWMv0,,,,,,,,,,,
,,,,,,,,,,,,,,a,1,0.53133,space,0.556485,0,66,66,143,1,0_targ_4_dist_green/trial19.png,,,0,4,greenverival,a,38,18,female,2021-02-20_17h02.41.894,exp11,2020.2.6,MacIntel,60,IwAR0U0N2r7Wz3tx8_zo6WMUTajaJJNk3WVkEedKbuVWuY7x2IGd22fUIWMv0,,,,,,,,,,,
,,,,,,,,,,,,,,p,1,0.567005,space,0.56573,0,67,67,69,1,9_dist_green/trial20.png,,,1,9,greenverival,p,38,18,female,2021-02-20_17h02.41.894,exp11,2020.2.6,MacIntel,60,IwAR0U0N2r7Wz3tx8_zo6WMUTajaJJNk3WVkEedKbuVWuY7x2IGd22fUIWMv0,,,,,,,,,,,
,,,,,,,,,,,,,,a,1,0.750535,space,0.51811,0,68,68,150,1,0_targ_10_dist_green/trial1.png,,,0,10,greenverival,a,38,18,female,2021-02-20_17h02.41.894,exp11,2020.2.6,MacIntel,60,IwAR0U0N2r7Wz3tx8_zo6WMUTajaJJNk3WVkEedKbuVWuY7x2IGd22fUIWMv0,,,,,,,,,,,
,,,,,,,,,,,,,,p,1,0.56548,space,0.55391,0,69,69,40,1,3_dist_green/trial16.png,,,1,3,greenverival,p,38,18,female,2021-02-20_17h02.41.894,exp11,2020.2.6,MacIntel,60,IwAR0U0N2r7Wz3tx8_zo6WMUTajaJJNk3WVkEedKbuVWuY7x2IGd22fUIWMv0,,,,,,,,,,,
,,,,,,,,,,,,,,p,1,0.55521,space,0.502875,0,70,70,17,1,0_dist_green/trial18.png,,,1,0,greenverival,p,38,18,female,2021-02-20_17h02.41.894,exp11,2020.2.6,MacIntel,60,IwAR0U0N2r7Wz3tx8_zo6WMUTajaJJNk3WVkEedKbuVWuY7x2IGd22fUIWMv0,,,,,,,,,,,
,,,,,,,,,,,,,,p,1,0.64751,space,0.58429,0,71,71,62,1,9_dist_green/trial13.png,,,1,9,greenverival,p,38,18,female,2021-02-20_17h02.41.894,exp11,2020.2.6,MacIntel,60,IwAR0U0N2r7Wz3tx8_zo6WMUTajaJJNk3WVkEedKbuVWuY7x2IGd22fUIWMv0,,,,,,,,,,,
,,,,,,,,,,,,,,p,1,0.764585,space,0.53861,0,72,72,78,1,15_dist_green/trial4.png,,,1,15,greenverival,p,38,18,female,2021-02-20_17h02.41.894,exp11,2020.2.6,MacIntel,60,IwAR0U0N2r7Wz3tx8_zo6WMUTajaJJNk3WVkEedKbuVWuY7x2IGd22fUIWMv0,,,,,,,,,,,
,,,,,,,,,,,,,,p,1,0.498345,space,0.554515,0,73,73,24,1,0_dist_green/trial25.png,,,1,0,greenverival,p,38,18,female,2021-02-20_17h02.41.894,exp11,2020.2.6,MacIntel,60,IwAR0U0N2r7Wz3tx8_zo6WMUTajaJJNk3WVkEedKbuVWuY7x2IGd22fUIWMv0,,,,,,,,,,,
,,,,,,,,,,,,,,a,1,0.52988,space,0.507135,0,74,74,114,1,0_targ_1_dist_green/trial15.png,,,0,1,greenverival,a,38,18,female,2021-02-20_17h02.41.894,exp11,2020.2.6,MacIntel,60,IwAR0U0N2r7Wz3tx8_zo6WMUTajaJJNk3WVkEedKbuVWuY7x2IGd22fUIWMv0,,,,,,,,,,,
,,,,,,,,,,,,,,p,1,0.962005,space,0.51617,0,75,75,27,1,3_dist_green/trial3.png,,,1,3,greenverival,p,38,18,female,2021-02-20_17h02.41.894,exp11,2020.2.6,MacIntel,60,IwAR0U0N2r7Wz3tx8_zo6WMUTajaJJNk3WVkEedKbuVWuY7x2IGd22fUIWMv0,,,,,,,,,,,
,,,,,,,,,,,,,,p,1,0.75276,space,0.74739,0,76,76,32,1,3_dist_green/trial8.png,,,1,3,greenverival,p,38,18,female,2021-02-20_17h02.41.894,exp11,2020.2.6,MacIntel,60,IwAR0U0N2r7Wz3tx8_zo6WMUTajaJJNk3WVkEedKbuVWuY7x2IGd22fUIWMv0,,,,,,,,,,,
,,,,,,,,,,,,,,p,1,0.620145,space,0.564355,0,77,77,59,1,9_dist_green/trial10.png,,,1,9,greenverival,p,38,18,female,2021-02-20_17h02.41.894,exp11,2020.2.6,MacIntel,60,IwAR0U0N2r7Wz3tx8_zo6WMUTajaJJNk3WVkEedKbuVWuY7x2IGd22fUIWMv0,,,,,,,,,,,
,,,,,,,,,,,,,,p,1,0.55999,space,0.51637,0,78,78,31,1,3_dist_green/trial7.png,,,1,3,greenverival,p,38,18,female,2021-02-20_17h02.41.894,exp11,2020.2.6,MacIntel,60,IwAR0U0N2r7Wz3tx8_zo6WMUTajaJJNk3WVkEedKbuVWuY7x2IGd22fUIWMv0,,,,,,,,,,,
,,,,,,,,,,,,,,a,1,0.554685,space,0.510435,0,79,79,122,1,0_targ_1_dist_green/trial23.png,,,0,1,greenverival,a,38,18,female,2021-02-20_17h02.41.894,exp11,2020.2.6,MacIntel,60,IwAR0U0N2r7Wz3tx8_zo6WMUTajaJJNk3WVkEedKbuVWuY7x2IGd22fUIWMv0,,,,,,,,,,,
,,,,,,,,,,,,,,a,1,0.906705,space,0.55073,0,80,80,144,1,0_targ_4_dist_green/trial20.png,,,0,4,greenverival,a,38,18,female,2021-02-20_17h02.41.894,exp11,2020.2.6,MacIntel,60,IwAR0U0N2r7Wz3tx8_zo6WMUTajaJJNk3WVkEedKbuVWuY7x2IGd22fUIWMv0,,,,,,,,,,,
,,,,,,,,,,,,,,p,1,0.60102,space,0.53105,0,81,81,19,1,0_dist_green/trial20.png,,,1,0,greenverival,p,38,18,female,2021-02-20_17h02.41.894,exp11,2020.2.6,MacIntel,60,IwAR0U0N2r7Wz3tx8_zo6WMUTajaJJNk3WVkEedKbuVWuY7x2IGd22fUIWMv0,,,,,,,,,,,
,,,,,,,,,,,,,,a,1,0.88467,space,0.53394,0,82,82,188,1,0_targ_16_dist_green/trial14.png,,,0,16,greenverival,a,38,18,female,2021-02-20_17h02.41.894,exp11,2020.2.6,MacIntel,60,IwAR0U0N2r7Wz3tx8_zo6WMUTajaJJNk3WVkEedKbuVWuY7x2IGd22fUIWMv0,,,,,,,,,,,
,,,,,,,,,,,,,,p,1,0.564235,space,0.517755,0,83,83,36,1,3_dist_green/trial12.png,,,1,3,greenverival,p,38,18,female,2021-02-20_17h02.41.894,exp11,2020.2.6,MacIntel,60,IwAR0U0N2r7Wz3tx8_zo6WMUTajaJJNk3WVkEedKbuVWuY7x2IGd22fUIWMv0,,,,,,,,,,,
,,,,,,,,,,,,,,p,1,0.548705,space,0.5049,0,84,84,5,1,0_dist_green/trial6.png,,,1,0,greenverival,p,38,18,female,2021-02-20_17h02.41.894,exp11,2020.2.6,MacIntel,60,IwAR0U0N2r7Wz3tx8_zo6WMUTajaJJNk3WVkEedKbuVWuY7x2IGd22fUIWMv0,,,,,,,,,,,
,,,,,,,,,,,,,,p,1,0.630705,space,0.50533,0,85,85,79,1,15_dist_green/trial5.png,,,1,15,greenverival,p,38,18,female,2021-02-20_17h02.41.894,exp11,2020.2.6,MacIntel,60,IwAR0U0N2r7Wz3tx8_zo6WMUTajaJJNk3WVkEedKbuVWuY7x2IGd22fUIWMv0,,,,,,,,,,,
,,,,,,,,,,,,,,a,1,0.74713,space,0.58681,0,86,86,137,1,0_targ_4_dist_green/trial13.png,,,0,4,greenverival,a,38,18,female,2021-02-20_17h02.41.894,exp11,2020.2.6,MacIntel,60,IwAR0U0N2r7Wz3tx8_zo6WMUTajaJJNk3WVkEedKbuVWuY7x2IGd22fUIWMv0,,,,,,,,,,,
,,,,,,,,,,,,,,p,1,0.719135,space,0.50336,0,87,87,70,1,9_dist_green/trial21.png,,,1,9,greenverival,p,38,18,female,2021-02-20_17h02.41.894,exp11,2020.2.6,MacIntel,60,IwAR0U0N2r7Wz3tx8_zo6WMUTajaJJNk3WVkEedKbuVWuY7x2IGd22fUIWMv0,,,,,,,,,,,
,,,,,,,,,,,,,,a,1,0.73854,space,0.520485,0,88,88,172,1,0_targ_10_dist_green/trial23.png,,,0,10,greenverival,a,38,18,female,2021-02-20_17h02.41.894,exp11,2020.2.6,MacIntel,60,IwAR0U0N2r7Wz3tx8_zo6WMUTajaJJNk3WVkEedKbuVWuY7x2IGd22fUIWMv0,,,,,,,,,,,
,,,,,,,,,,,,,,a,1,0.6527,space,0.54837,0,89,89,160,1,0_targ_10_dist_green/trial11.png,,,0,10,greenverival,a,38,18,female,2021-02-20_17h02.41.894,exp11,2020.2.6,MacIntel,60,IwAR0U0N2r7Wz3tx8_zo6WMUTajaJJNk3WVkEedKbuVWuY7x2IGd22fUIWMv0,,,,,,,,,,,
,,,,,,,,,,,,,,p,1,0.58268,space,0.48451,0,90,90,23,1,0_dist_green/trial24.png,,,1,0,greenverival,p,38,18,female,2021-02-20_17h02.41.894,exp11,2020.2.6,MacIntel,60,IwAR0U0N2r7Wz3tx8_zo6WMUTajaJJNk3WVkEedKbuVWuY7x2IGd22fUIWMv0,,,,,,,,,,,
,,,,,,,,,,,,,,p,1,0.565285,space,0.568745,0,91,91,84,1,15_dist_green/trial10.png,,,1,15,greenverival,p,38,18,female,2021-02-20_17h02.41.894,exp11,2020.2.6,MacIntel,60,IwAR0U0N2r7Wz3tx8_zo6WMUTajaJJNk3WVkEedKbuVWuY7x2IGd22fUIWMv0,,,,,,,,,,,
,,,,,,,,,,,,,,a,1,0.511735,space,0.638935,0,92,92,106,1,0_targ_1_dist_green/trial7.png,,,0,1,greenverival,a,38,18,female,2021-02-20_17h02.41.894,exp11,2020.2.6,MacIntel,60,IwAR0U0N2r7Wz3tx8_zo6WMUTajaJJNk3WVkEedKbuVWuY7x2IGd22fUIWMv0,,,,,,,,,,,
,,,,,,,,,,,,,,a,1,0.51476,space,0.539325,0,93,93,120,1,0_targ_1_dist_green/trial21.png,,,0,1,greenverival,a,38,18,female,2021-02-20_17h02.41.894,exp11,2020.2.6,MacIntel,60,IwAR0U0N2r7Wz3tx8_zo6WMUTajaJJNk3WVkEedKbuVWuY7x2IGd22fUIWMv0,,,,,,,,,,,
,,,,,,,,,,,,,,a,1,0.53385,space,0.5509,0,94,94,141,1,0_targ_4_dist_green/trial17.png,,,0,4,greenverival,a,38,18,female,2021-02-20_17h02.41.894,exp11,2020.2.6,MacIntel,60,IwAR0U0N2r7Wz3tx8_zo6WMUTajaJJNk3WVkEedKbuVWuY7x2IGd22fUIWMv0,,,,,,,,,,,
,,,,,,,,,,,,,,a,1,0.568645,space,0.581255,0,95,95,115,1,0_targ_1_dist_green/trial6.png,,,0,1,greenverival,a,38,18,female,2021-02-20_17h02.41.894,exp11,2020.2.6,MacIntel,60,IwAR0U0N2r7Wz3tx8_zo6WMUTajaJJNk3WVkEedKbuVWuY7x2IGd22fUIWMv0,,,,,,,,,,,
,,,,,,,,,,,,,,p,1,0.46654,space,0.58342,0,96,96,33,1,3_dist_green/trial9.png,,,1,3,greenverival,p,38,18,female,2021-02-20_17h02.41.894,exp11,2020.2.6,MacIntel,60,IwAR0U0N2r7Wz3tx8_zo6WMUTajaJJNk3WVkEedKbuVWuY7x2IGd22fUIWMv0,,,,,,,,,,,
,,,,,,,,,,,,,,a,1,0.73465,space,0.583095,0,97,97,191,1,0_targ_16_dist_green/trial17.png,,,0,16,greenverival,a,38,18,female,2021-02-20_17h02.41.894,exp11,2020.2.6,MacIntel,60,IwAR0U0N2r7Wz3tx8_zo6WMUTajaJJNk3WVkEedKbuVWuY7x2IGd22fUIWMv0,,,,,,,,,,,
,,,,,,,,,,,,,,p,1,0.48327,space,0.532255,0,98,98,13,1,0_dist_green/trial14.png,,,1,0,greenverival,p,38,18,female,2021-02-20_17h02.41.894,exp11,2020.2.6,MacIntel,60,IwAR0U0N2r7Wz3tx8_zo6WMUTajaJJNk3WVkEedKbuVWuY7x2IGd22fUIWMv0,,,,,,,,,,,
,,,,,,,,,,,,,,a,1,0.56632,space,0.53608,0,99,99,171,1,0_targ_10_dist_green/trial22.png,,,0,10,greenverival,a,38,18,female,2021-02-20_17h02.41.894,exp11,2020.2.6,MacIntel,60,IwAR0U0N2r7Wz3tx8_zo6WMUTajaJJNk3WVkEedKbuVWuY7x2IGd22fUIWMv0,,,,,,,,,,,
,,,,,,,,,,,,,,a,1,0.638455,space,0.5028,0,100,100,181,1,0_targ_16_dist_green/trial7.png,,,0,16,greenverival,a,38,18,female,2021-02-20_17h02.41.894,exp11,2020.2.6,MacIntel,60,IwAR0U0N2r7Wz3tx8_zo6WMUTajaJJNk3WVkEedKbuVWuY7x2IGd22fUIWMv0,,,,,,,,,,,
,,,,,,,,,,,,,,a,1,0.702485,space,0.519625,0,101,101,156,1,0_targ_10_dist_green/trial7.png,,,0,10,greenverival,a,38,18,female,2021-02-20_17h02.41.894,exp11,2020.2.6,MacIntel,60,IwAR0U0N2r7Wz3tx8_zo6WMUTajaJJNk3WVkEedKbuVWuY7x2IGd22fUIWMv0,,,,,,,,,,,
,,,,,,,,,,,,,,p,1,0.533685,space,0.603835,0,102,102,66,1,9_dist_green/trial17.png,,,1,9,greenverival,p,38,18,female,2021-02-20_17h02.41.894,exp11,2020.2.6,MacIntel,60,IwAR0U0N2r7Wz3tx8_zo6WMUTajaJJNk3WVkEedKbuVWuY7x2IGd22fUIWMv0,,,,,,,,,,,
,,,,,,,,,,,,,,p,1,0.68536,space,0.49857,0,103,103,72,1,9_dist_green/trial23.png,,,1,9,greenverival,p,38,18,female,2021-02-20_17h02.41.894,exp11,2020.2.6,MacIntel,60,IwAR0U0N2r7Wz3tx8_zo6WMUTajaJJNk3WVkEedKbuVWuY7x2IGd22fUIWMv0,,,,,,,,,,,
,,,,,,,,,,,,,,a,1,0.4658,space,0.45399,0,104,104,113,1,0_targ_1_dist_green/trial14.png,,,0,1,greenverival,a,38,18,female,2021-02-20_17h02.41.894,exp11,2020.2.6,MacIntel,60,IwAR0U0N2r7Wz3tx8_zo6WMUTajaJJNk3WVkEedKbuVWuY7x2IGd22fUIWMv0,,,,,,,,,,,
,,,,,,,,,,,,,,a,1,0.4994,space,0.41731,0,105,105,111,1,0_targ_1_dist_green/trial12.png,,,0,1,greenverival,a,38,18,female,2021-02-20_17h02.41.894,exp11,2020.2.6,MacIntel,60,IwAR0U0N2r7Wz3tx8_zo6WMUTajaJJNk3WVkEedKbuVWuY7x2IGd22fUIWMv0,,,,,,,,,,,
,,,,,,,,,,,,,,a,1,0.71893,space,0.42114,0,106,106,129,1,0_targ_4_dist_green/trial5.png,,,0,4,greenverival,a,38,18,female,2021-02-20_17h02.41.894,exp11,2020.2.6,MacIntel,60,IwAR0U0N2r7Wz3tx8_zo6WMUTajaJJNk3WVkEedKbuVWuY7x2IGd22fUIWMv0,,,,,,,,,,,
,,,,,,,,,,,,,,p,1,0.63736,space,0.431975,0,107,107,60,1,9_dist_green/trial11.png,,,1,9,greenverival,p,38,18,female,2021-02-20_17h02.41.894,exp11,2020.2.6,MacIntel,60,IwAR0U0N2r7Wz3tx8_zo6WMUTajaJJNk3WVkEedKbuVWuY7x2IGd22fUIWMv0,,,,,,,,,,,
,,,,,,,,,,,,,,a,1,0.748825,space,0.522775,0,108,108,197,1,0_targ_16_dist_green/trial23.png,,,0,16,greenverival,a,38,18,female,2021-02-20_17h02.41.894,exp11,2020.2.6,MacIntel,60,IwAR0U0N2r7Wz3tx8_zo6WMUTajaJJNk3WVkEedKbuVWuY7x2IGd22fUIWMv0,,,,,,,,,,,
,,,,,,,,,,,,,,a,1,0.618795,space,0.516755,0,109,109,151,1,0_targ_10_dist_green/trial2.png,,,0,10,greenverival,a,38,18,female,2021-02-20_17h02.41.894,exp11,2020.2.6,MacIntel,60,IwAR0U0N2r7Wz3tx8_zo6WMUTajaJJNk3WVkEedKbuVWuY7x2IGd22fUIWMv0,,,,,,,,,,,
,,,,,,,,,,,,,,a,1,0.546075,space,0.535545,0,110,110,189,1,0_targ_16_dist_green/trial15.png,,,0,16,greenverival,a,38,18,female,2021-02-20_17h02.41.894,exp11,2020.2.6,MacIntel,60,IwAR0U0N2r7Wz3tx8_zo6WMUTajaJJNk3WVkEedKbuVWuY7x2IGd22fUIWMv0,,,,,,,,,,,
,,,,,,,,,,,,,,a,1,0.55284,space,0.52126,0,111,111,157,1,0_targ_10_dist_green/trial8.png,,,0,10,greenverival,a,38,18,female,2021-02-20_17h02.41.894,exp11,2020.2.6,MacIntel,60,IwAR0U0N2r7Wz3tx8_zo6WMUTajaJJNk3WVkEedKbuVWuY7x2IGd22fUIWMv0,,,,,,,,,,,
,,,,,,,,,,,,,,p,1,0.55469,space,0.554615,0,112,112,42,1,3_dist_green/trial18.png,,,1,3,greenverival,p,38,18,female,2021-02-20_17h02.41.894,exp11,2020.2.6,MacIntel,60,IwAR0U0N2r7Wz3tx8_zo6WMUTajaJJNk3WVkEedKbuVWuY7x2IGd22fUIWMv0,,,,,,,,,,,
,,,,,,,,,,,,,,p,1,0.54697,space,0.53752,0,113,113,48,1,3_dist_green/trial24.png,,,1,3,greenverival,p,38,18,female,2021-02-20_17h02.41.894,exp11,2020.2.6,MacIntel,60,IwAR0U0N2r7Wz3tx8_zo6WMUTajaJJNk3WVkEedKbuVWuY7x2IGd22fUIWMv0,,,,,,,,,,,
,,,,,,,,,,,,,,a,1,0.56697,space,0.561995,0,114,114,139,1,0_targ_4_dist_green/trial15.png,,,0,4,greenverival,a,38,18,female,2021-02-20_17h02.41.894,exp11,2020.2.6,MacIntel,60,IwAR0U0N2r7Wz3tx8_zo6WMUTajaJJNk3WVkEedKbuVWuY7x2IGd22fUIWMv0,,,,,,,,,,,
,,,,,,,,,,,,,,a,1,0.75501,space,0.53724,0,115,115,186,1,0_targ_16_dist_green/trial12.png,,,0,16,greenverival,a,38,18,female,2021-02-20_17h02.41.894,exp11,2020.2.6,MacIntel,60,IwAR0U0N2r7Wz3tx8_zo6WMUTajaJJNk3WVkEedKbuVWuY7x2IGd22fUIWMv0,,,,,,,,,,,
,,,,,,,,,,,,,,p,1,0.58186,space,0.554745,0,116,116,47,1,3_dist_green/trial23.png,,,1,3,greenverival,p,38,18,female,2021-02-20_17h02.41.894,exp11,2020.2.6,MacIntel,60,IwAR0U0N2r7Wz3tx8_zo6WMUTajaJJNk3WVkEedKbuVWuY7x2IGd22fUIWMv0,,,,,,,,,,,
,,,,,,,,,,,,,,p,1,0.687365,space,0.502465,0,117,117,53,1,9_dist_green/trial4.png,,,1,9,greenverival,p,38,18,female,2021-02-20_17h02.41.894,exp11,2020.2.6,MacIntel,60,IwAR0U0N2r7Wz3tx8_zo6WMUTajaJJNk3WVkEedKbuVWuY7x2IGd22fUIWMv0,,,,,,,,,,,
,,,,,,,,,,,,,,a,1,0.64602,space,0.48516,0,118,118,146,1,0_targ_4_dist_green/trial22.png,,,0,4,greenverival,a,38,18,female,2021-02-20_17h02.41.894,exp11,2020.2.6,MacIntel,60,IwAR0U0N2r7Wz3tx8_zo6WMUTajaJJNk3WVkEedKbuVWuY7x2IGd22fUIWMv0,,,,,,,,,,,
,,,,,,,,,,,,,,p,1,0.580145,space,0.605695,0,119,119,29,1,3_dist_green/trial5.png,,,1,3,greenverival,p,38,18,female,2021-02-20_17h02.41.894,exp11,2020.2.6,MacIntel,60,IwAR0U0N2r7Wz3tx8_zo6WMUTajaJJNk3WVkEedKbuVWuY7x2IGd22fUIWMv0,,,,,,,,,,,
,,,,,,,,,,,,,,a,1,1.18678,space,0.585865,0,120,120,133,1,0_targ_4_dist_green/trial9.png,,,0,4,greenverival,a,38,18,female,2021-02-20_17h02.41.894,exp11,2020.2.6,MacIntel,60,IwAR0U0N2r7Wz3tx8_zo6WMUTajaJJNk3WVkEedKbuVWuY7x2IGd22fUIWMv0,,,,,,,,,,,
,,,,,,,,,,,,,,a,1,0.5804,space,0.52295,0,121,121,145,1,0_targ_4_dist_green/trial21.png,,,0,4,greenverival,a,38,18,female,2021-02-20_17h02.41.894,exp11,2020.2.6,MacIntel,60,IwAR0U0N2r7Wz3tx8_zo6WMUTajaJJNk3WVkEedKbuVWuY7x2IGd22fUIWMv0,,,,,,,,,,,
,,,,,,,,,,,,,,p,1,0.56683,space,0.60359,0,122,122,0,1,0_dist_green/trial1.png,,,1,0,greenverival,p,38,18,female,2021-02-20_17h02.41.894,exp11,2020.2.6,MacIntel,60,IwAR0U0N2r7Wz3tx8_zo6WMUTajaJJNk3WVkEedKbuVWuY7x2IGd22fUIWMv0,,,,,,,,,,,
,,,,,,,,,,,,,,a,1,0.70073,space,1.04806,0,123,123,112,1,0_targ_1_dist_green/trial13.png,,,0,1,greenverival,a,38,18,female,2021-02-20_17h02.41.894,exp11,2020.2.6,MacIntel,60,IwAR0U0N2r7Wz3tx8_zo6WMUTajaJJNk3WVkEedKbuVWuY7x2IGd22fUIWMv0,,,,,,,,,,,
,,,,,,,,,,,,,,a,1,0.76761,space,0.5464,0,124,124,196,1,0_targ_16_dist_green/trial22.png,,,0,16,greenverival,a,38,18,female,2021-02-20_17h02.41.894,exp11,2020.2.6,MacIntel,60,IwAR0U0N2r7Wz3tx8_zo6WMUTajaJJNk3WVkEedKbuVWuY7x2IGd22fUIWMv0,,,,,,,,,,,
,,,,,,,,,,,,,,p,1,0.640875,space,0.490725,0,125,125,12,1,0_dist_green/trial13.png,,,1,0,greenverival,p,38,18,female,2021-02-20_17h02.41.894,exp11,2020.2.6,MacIntel,60,IwAR0U0N2r7Wz3tx8_zo6WMUTajaJJNk3WVkEedKbuVWuY7x2IGd22fUIWMv0,,,,,,,,,,,
,,,,,,,,,,,,,,p,1,0.476865,space,0.490995,0,126,126,9,1,0_dist_green/trial10.png,,,1,0,greenverival,p,38,18,female,2021-02-20_17h02.41.894,exp11,2020.2.6,MacIntel,60,IwAR0U0N2r7Wz3tx8_zo6WMUTajaJJNk3WVkEedKbuVWuY7x2IGd22fUIWMv0,,,,,,,,,,,
,,,,,,,,,,,,,,p,1,0.57816,space,0.430125,0,127,127,57,1,9_dist_green/trial8.png,,,1,9,greenverival,p,38,18,female,2021-02-20_17h02.41.894,exp11,2020.2.6,MacIntel,60,IwAR0U0N2r7Wz3tx8_zo6WMUTajaJJNk3WVkEedKbuVWuY7x2IGd22fUIWMv0,,,,,,,,,,,
,,,,,,,,,,,,,,p,1,1.02058,space,0.451635,0,128,128,51,1,9_dist_green/trial2.png,,,1,9,greenverival,p,38,18,female,2021-02-20_17h02.41.894,exp11,2020.2.6,MacIntel,60,IwAR0U0N2r7Wz3tx8_zo6WMUTajaJJNk3WVkEedKbuVWuY7x2IGd22fUIWMv0,,,,,,,,,,,
,,,,,,,,,,,,,,p,1,0.614695,space,0.605015,0,129,129,56,1,9_dist_green/trial7.png,,,1,9,greenverival,p,38,18,female,2021-02-20_17h02.41.894,exp11,2020.2.6,MacIntel,60,IwAR0U0N2r7Wz3tx8_zo6WMUTajaJJNk3WVkEedKbuVWuY7x2IGd22fUIWMv0,,,,,,,,,,,
,,,,,,,,,,,,,,a,1,0.637955,space,0.53591,0,130,130,170,1,0_targ_10_dist_green/trial21.png,,,0,10,greenverival,a,38,18,female,2021-02-20_17h02.41.894,exp11,2020.2.6,MacIntel,60,IwAR0U0N2r7Wz3tx8_zo6WMUTajaJJNk3WVkEedKbuVWuY7x2IGd22fUIWMv0,,,,,,,,,,,
,,,,,,,,,,,,,,p,1,0.63722,space,0.554015,0,131,131,86,1,15_dist_green/trial12.png,,,1,15,greenverival,p,38,18,female,2021-02-20_17h02.41.894,exp11,2020.2.6,MacIntel,60,IwAR0U0N2r7Wz3tx8_zo6WMUTajaJJNk3WVkEedKbuVWuY7x2IGd22fUIWMv0,,,,,,,,,,,
,,,,,,,,,,,,,,a,1,1.111335,space,0.549455,0,132,132,130,1,0_targ_4_dist_green/trial6.png,,,0,4,greenverival,a,38,18,female,2021-02-20_17h02.41.894,exp11,2020.2.6,MacIntel,60,IwAR0U0N2r7Wz3tx8_zo6WMUTajaJJNk3WVkEedKbuVWuY7x2IGd22fUIWMv0,,,,,,,,,,,
,,,,,,,,,,,,,,p,1,0.91977,space,0.505065,0,133,133,26,1,3_dist_green/trial2.png,,,1,3,greenverival,p,38,18,female,2021-02-20_17h02.41.894,exp11,2020.2.6,MacIntel,60,IwAR0U0N2r7Wz3tx8_zo6WMUTajaJJNk3WVkEedKbuVWuY7x2IGd22fUIWMv0,,,,,,,,,,,
,,,,,,,,,,,,,,p,1,0.697825,space,0.635165,0,134,134,93,1,15_dist_green/trial19.png,,,1,15,greenverival,p,38,18,female,2021-02-20_17h02.41.894,exp11,2020.2.6,MacIntel,60,IwAR0U0N2r7Wz3tx8_zo6WMUTajaJJNk3WVkEedKbuVWuY7x2IGd22fUIWMv0,,,,,,,,,,,
,,,,,,,,,,,,,,p,1,0.59852,space,0.45402,0,135,135,61,1,9_dist_green/trial12.png,,,1,9,greenverival,p,38,18,female,2021-02-20_17h02.41.894,exp11,2020.2.6,MacIntel,60,IwAR0U0N2r7Wz3tx8_zo6WMUTajaJJNk3WVkEedKbuVWuY7x2IGd22fUIWMv0,,,,,,,,,,,
,,,,,,,,,,,,,,p,1,0.56641,space,0.5159,0,136,136,55,1,9_dist_green/trial6.png,,,1,9,greenverival,p,38,18,female,2021-02-20_17h02.41.894,exp11,2020.2.6,MacIntel,60,IwAR0U0N2r7Wz3tx8_zo6WMUTajaJJNk3WVkEedKbuVWuY7x2IGd22fUIWMv0,,,,,,,,,,,
,,,,,,,,,,,,,,p,1,0.544945,space,0.6348,0,137,137,6,1,0_dist_green/trial7.png,,,1,0,greenverival,p,38,18,female,2021-02-20_17h02.41.894,exp11,2020.2.6,MacIntel,60,IwAR0U0N2r7Wz3tx8_zo6WMUTajaJJNk3WVkEedKbuVWuY7x2IGd22fUIWMv0,,,,,,,,,,,
,,,,,,,,,,,,,,p,1,0.54818,space,0.555085,0,138,138,81,1,15_dist_green/trial7.png,,,1,15,greenverival,p,38,18,female,2021-02-20_17h02.41.894,exp11,2020.2.6,MacIntel,60,IwAR0U0N2r7Wz3tx8_zo6WMUTajaJJNk3WVkEedKbuVWuY7x2IGd22fUIWMv0,,,,,,,,,,,
,,,,,,,,,,,,,,p,1,0.53411,space,0.518025,0,139,139,82,1,15_dist_green/trial8.png,,,1,15,greenverival,p,38,18,female,2021-02-20_17h02.41.894,exp11,2020.2.6,MacIntel,60,IwAR0U0N2r7Wz3tx8_zo6WMUTajaJJNk3WVkEedKbuVWuY7x2IGd22fUIWMv0,,,,,,,,,,,
,,,,,,,,,,,,,,p,1,0.48765,space,0.56507,0,140,140,22,1,0_dist_green/trial23.png,,,1,0,greenverival,p,38,18,female,2021-02-20_17h02.41.894,exp11,2020.2.6,MacIntel,60,IwAR0U0N2r7Wz3tx8_zo6WMUTajaJJNk3WVkEedKbuVWuY7x2IGd22fUIWMv0,,,,,,,,,,,
,,,,,,,,,,,,,,a,1,0.53424,space,0.487925,0,141,141,110,1,0_targ_1_dist_green/trial11.png,,,0,1,greenverival,a,38,18,female,2021-02-20_17h02.41.894,exp11,2020.2.6,MacIntel,60,IwAR0U0N2r7Wz3tx8_zo6WMUTajaJJNk3WVkEedKbuVWuY7x2IGd22fUIWMv0,,,,,,,,,,,
,,,,,,,,,,,,,,a,1,0.750815,space,0.49926,0,142,142,116,1,0_targ_1_dist_green/trial17.png,,,0,1,greenverival,a,38,18,female,2021-02-20_17h02.41.894,exp11,2020.2.6,MacIntel,60,IwAR0U0N2r7Wz3tx8_zo6WMUTajaJJNk3WVkEedKbuVWuY7x2IGd22fUIWMv0,,,,,,,,,,,
,,,,,,,,,,,,,,p,0,0.731005,space,1.017875,0,143,143,132,1,0_targ_4_dist_green/trial8.png,,,0,4,greenverival,a,38,18,female,2021-02-20_17h02.41.894,exp11,2020.2.6,MacIntel,60,IwAR0U0N2r7Wz3tx8_zo6WMUTajaJJNk3WVkEedKbuVWuY7x2IGd22fUIWMv0,,,,,,,,,,,
,,,,,,,,,,,,,,p,1,0.826665,space,0.468135,0,144,144,4,1,0_dist_green/trial5.png,,,1,0,greenverival,p,38,18,female,2021-02-20_17h02.41.894,exp11,2020.2.6,MacIntel,60,IwAR0U0N2r7Wz3tx8_zo6WMUTajaJJNk3WVkEedKbuVWuY7x2IGd22fUIWMv0,,,,,,,,,,,
,,,,,,,,,,,,,,a,1,0.617405,space,0.332795,0,145,145,103,1,0_targ_1_dist_green/trial4.png,,,0,1,greenverival,a,38,18,female,2021-02-20_17h02.41.894,exp11,2020.2.6,MacIntel,60,IwAR0U0N2r7Wz3tx8_zo6WMUTajaJJNk3WVkEedKbuVWuY7x2IGd22fUIWMv0,,,,,,,,,,,
,,,,,,,,,,,,,,p,1,1.25041,space,0.54982,0,146,146,97,1,15_dist_green/trial23.png,,,1,15,greenverival,p,38,18,female,2021-02-20_17h02.41.894,exp11,2020.2.6,MacIntel,60,IwAR0U0N2r7Wz3tx8_zo6WMUTajaJJNk3WVkEedKbuVWuY7x2IGd22fUIWMv0,,,,,,,,,,,
,,,,,,,,,,,,,,a,1,0.613975,space,0.421525,0,147,147,136,1,0_targ_4_dist_green/trial12.png,,,0,4,greenverival,a,38,18,female,2021-02-20_17h02.41.894,exp11,2020.2.6,MacIntel,60,IwAR0U0N2r7Wz3tx8_zo6WMUTajaJJNk3WVkEedKbuVWuY7x2IGd22fUIWMv0,,,,,,,,,,,
,,,,,,,,,,,,,,p,1,0.57899,space,0.43586,0,148,148,28,1,3_dist_green/trial4.png,,,1,3,greenverival,p,38,18,female,2021-02-20_17h02.41.894,exp11,2020.2.6,MacIntel,60,IwAR0U0N2r7Wz3tx8_zo6WMUTajaJJNk3WVkEedKbuVWuY7x2IGd22fUIWMv0,,,,,,,,,,,
,,,,,,,,,,,,,,p,1,0.565755,space,0.449525,0,149,149,14,1,0_dist_green/trial15.png,,,1,0,greenverival,p,38,18,female,2021-02-20_17h02.41.894,exp11,2020.2.6,MacIntel,60,IwAR0U0N2r7Wz3tx8_zo6WMUTajaJJNk3WVkEedKbuVWuY7x2IGd22fUIWMv0,,,,,,,,,,,
,,,,,,,,,,,,,,p,1,0.515505,space,0.42119,0,150,150,25,1,3_dist_green/trial1.png,,,1,3,greenverival,p,38,18,female,2021-02-20_17h02.41.894,exp11,2020.2.6,MacIntel,60,IwAR0U0N2r7Wz3tx8_zo6WMUTajaJJNk3WVkEedKbuVWuY7x2IGd22fUIWMv0,,,,,,,,,,,
,,,,,,,,,,,,,,a,1,0.72994,space,0.338485,0,151,151,164,1,0_targ_10_dist_green/trial15.png,,,0,10,greenverival,a,38,18,female,2021-02-20_17h02.41.894,exp11,2020.2.6,MacIntel,60,IwAR0U0N2r7Wz3tx8_zo6WMUTajaJJNk3WVkEedKbuVWuY7x2IGd22fUIWMv0,,,,,,,,,,,
,,,,,,,,,,,,,,a,1,0.717125,space,0.31713,0,152,152,190,1,0_targ_16_dist_green/trial16.png,,,0,16,greenverival,a,38,18,female,2021-02-20_17h02.41.894,exp11,2020.2.6,MacIntel,60,IwAR0U0N2r7Wz3tx8_zo6WMUTajaJJNk3WVkEedKbuVWuY7x2IGd22fUIWMv0,,,,,,,,,,,
,,,,,,,,,,,,,,a,1,0.84991,space,0.37161,0,153,153,194,1,0_targ_16_dist_green/trial20.png,,,0,16,greenverival,a,38,18,female,2021-02-20_17h02.41.894,exp11,2020.2.6,MacIntel,60,IwAR0U0N2r7Wz3tx8_zo6WMUTajaJJNk3WVkEedKbuVWuY7x2IGd22fUIWMv0,,,,,,,,,,,
,,,,,,,,,,,,,,p,1,0.981515,space,0.488145,0,154,154,15,1,0_dist_green/trial16.png,,,1,0,greenverival,p,38,18,female,2021-02-20_17h02.41.894,exp11,2020.2.6,MacIntel,60,IwAR0U0N2r7Wz3tx8_zo6WMUTajaJJNk3WVkEedKbuVWuY7x2IGd22fUIWMv0,,,,,,,,,,,
,,,,,,,,,,,,,,a,1,0.69959,space,0.33242,0,155,155,173,1,0_targ_10_dist_green/trial24.png,,,0,10,greenverival,a,38,18,female,2021-02-20_17h02.41.894,exp11,2020.2.6,MacIntel,60,IwAR0U0N2r7Wz3tx8_zo6WMUTajaJJNk3WVkEedKbuVWuY7x2IGd22fUIWMv0,,,,,,,,,,,
,,,,,,,,,,,,,,p,1,0.65006,space,0.38453,0,156,156,37,1,3_dist_green/trial13.png,,,1,3,greenverival,p,38,18,female,2021-02-20_17h02.41.894,exp11,2020.2.6,MacIntel,60,IwAR0U0N2r7Wz3tx8_zo6WMUTajaJJNk3WVkEedKbuVWuY7x2IGd22fUIWMv0,,,,,,,,,,,
,,,,,,,,,,,,,,a,0,0.62041,space,0.03573,0,157,157,75,1,15_dist_green/trial1.png,,,1,15,greenverival,p,38,18,female,2021-02-20_17h02.41.894,exp11,2020.2.6,MacIntel,60,IwAR0U0N2r7Wz3tx8_zo6WMUTajaJJNk3WVkEedKbuVWuY7x2IGd22fUIWMv0,,,,,,,,,,,
,,,,,,,,,,,,,,p,1,0.84356,space,0.38809,0,158,158,88,1,15_dist_green/trial14.png,,,1,15,greenverival,p,38,18,female,2021-02-20_17h02.41.894,exp11,2020.2.6,MacIntel,60,IwAR0U0N2r7Wz3tx8_zo6WMUTajaJJNk3WVkEedKbuVWuY7x2IGd22fUIWMv0,,,,,,,,,,,
,,,,,,,,,,,,,,p,1,0.48435,space,0.487635,0,159,159,3,1,0_dist_green/trial4.png,,,1,0,greenverival,p,38,18,female,2021-02-20_17h02.41.894,exp11,2020.2.6,MacIntel,60,IwAR0U0N2r7Wz3tx8_zo6WMUTajaJJNk3WVkEedKbuVWuY7x2IGd22fUIWMv0,,,,,,,,,,,
,,,,,,,,,,,,,,a,1,0.55232,space,0.43221,0,160,160,152,1,0_targ_10_dist_green/trial3.png,,,0,10,greenverival,a,38,18,female,2021-02-20_17h02.41.894,exp11,2020.2.6,MacIntel,60,IwAR0U0N2r7Wz3tx8_zo6WMUTajaJJNk3WVkEedKbuVWuY7x2IGd22fUIWMv0,,,,,,,,,,,
,,,,,,,,,,,,,,p,1,0.569475,space,0.502555,0,161,161,44,1,3_dist_green/trial20.png,,,1,3,greenverival,p,38,18,female,2021-02-20_17h02.41.894,exp11,2020.2.6,MacIntel,60,IwAR0U0N2r7Wz3tx8_zo6WMUTajaJJNk3WVkEedKbuVWuY7x2IGd22fUIWMv0,,,,,,,,,,,
,,,,,,,,,,,,,,p,1,0.519205,space,0.516195,0,162,162,67,1,9_dist_green/trial18.png,,,1,9,greenverival,p,38,18,female,2021-02-20_17h02.41.894,exp11,2020.2.6,MacIntel,60,IwAR0U0N2r7Wz3tx8_zo6WMUTajaJJNk3WVkEedKbuVWuY7x2IGd22fUIWMv0,,,,,,,,,,,
,,,,,,,,,,,,,,a,1,0.553585,space,0.480865,0,163,163,195,1,0_targ_16_dist_green/trial21.png,,,0,16,greenverival,a,38,18,female,2021-02-20_17h02.41.894,exp11,2020.2.6,MacIntel,60,IwAR0U0N2r7Wz3tx8_zo6WMUTajaJJNk3WVkEedKbuVWuY7x2IGd22fUIWMv0,,,,,,,,,,,
,,,,,,,,,,,,,,p,1,0.58195,space,0.5164,0,164,164,7,1,0_dist_green/trial8.png,,,1,0,greenverival,p,38,18,female,2021-02-20_17h02.41.894,exp11,2020.2.6,MacIntel,60,IwAR0U0N2r7Wz3tx8_zo6WMUTajaJJNk3WVkEedKbuVWuY7x2IGd22fUIWMv0,,,,,,,,,,,
,,,,,,,,,,,,,,p,1,0.55051,space,0.550845,0,165,165,49,1,3_dist_green/trial25.png,,,1,3,greenverival,p,38,18,female,2021-02-20_17h02.41.894,exp11,2020.2.6,MacIntel,60,IwAR0U0N2r7Wz3tx8_zo6WMUTajaJJNk3WVkEedKbuVWuY7x2IGd22fUIWMv0,,,,,,,,,,,
,,,,,,,,,,,,,,a,1,0.59764,space,0.48672,0,166,166,174,1,0_targ_10_dist_green/trial25.png,,,0,10,greenverival,a,38,18,female,2021-02-20_17h02.41.894,exp11,2020.2.6,MacIntel,60,IwAR0U0N2r7Wz3tx8_zo6WMUTajaJJNk3WVkEedKbuVWuY7x2IGd22fUIWMv0,,,,,,,,,,,
,,,,,,,,,,,,,,p,1,0.49368,space,0.51372,0,167,167,99,1,15_dist_green/trial25.png,,,1,15,greenverival,p,38,18,female,2021-02-20_17h02.41.894,exp11,2020.2.6,MacIntel,60,IwAR0U0N2r7Wz3tx8_zo6WMUTajaJJNk3WVkEedKbuVWuY7x2IGd22fUIWMv0,,,,,,,,,,,
,,,,,,,,,,,,,,a,1,0.63208,space,0.49965,0,168,168,178,1,0_targ_16_dist_green/trial4.png,,,0,16,greenverival,a,38,18,female,2021-02-20_17h02.41.894,exp11,2020.2.6,MacIntel,60,IwAR0U0N2r7Wz3tx8_zo6WMUTajaJJNk3WVkEedKbuVWuY7x2IGd22fUIWMv0,,,,,,,,,,,
,,,,,,,,,,,,,,a,1,0.781765,space,0.462965,0,169,169,168,1,0_targ_10_dist_green/trial19.png,,,0,10,greenverival,a,38,18,female,2021-02-20_17h02.41.894,exp11,2020.2.6,MacIntel,60,IwAR0U0N2r7Wz3tx8_zo6WMUTajaJJNk3WVkEedKbuVWuY7x2IGd22fUIWMv0,,,,,,,,,,,
,,,,,,,,,,,,,,p,1,0.57433,space,0.48816,0,170,170,71,1,9_dist_green/trial22.png,,,1,9,greenverival,p,38,18,female,2021-02-20_17h02.41.894,exp11,2020.2.6,MacIntel,60,IwAR0U0N2r7Wz3tx8_zo6WMUTajaJJNk3WVkEedKbuVWuY7x2IGd22fUIWMv0,,,,,,,,,,,
,,,,,,,,,,,,,,a,1,0.545955,space,0.526725,0,171,171,101,1,0_targ_1_dist_green/trial2.png,,,0,1,greenverival,a,38,18,female,2021-02-20_17h02.41.894,exp11,2020.2.6,MacIntel,60,IwAR0U0N2r7Wz3tx8_zo6WMUTajaJJNk3WVkEedKbuVWuY7x2IGd22fUIWMv0,,,,,,,,,,,
,,,,,,,,,,,,,,p,1,0.542205,space,0.473175,0,172,172,63,1,9_dist_green/trial14.png,,,1,9,greenverival,p,38,18,female,2021-02-20_17h02.41.894,exp11,2020.2.6,MacIntel,60,IwAR0U0N2r7Wz3tx8_zo6WMUTajaJJNk3WVkEedKbuVWuY7x2IGd22fUIWMv0,,,,,,,,,,,
,,,,,,,,,,,,,,p,1,0.563995,space,0.506705,0,173,173,85,1,15_dist_green/trial11.png,,,1,15,greenverival,p,38,18,female,2021-02-20_17h02.41.894,exp11,2020.2.6,MacIntel,60,IwAR0U0N2r7Wz3tx8_zo6WMUTajaJJNk3WVkEedKbuVWuY7x2IGd22fUIWMv0,,,,,,,,,,,
,,,,,,,,,,,,,,p,1,0.506785,space,0.496365,0,174,174,87,1,15_dist_green/trial13.png,,,1,15,greenverival,p,38,18,female,2021-02-20_17h02.41.894,exp11,2020.2.6,MacIntel,60,IwAR0U0N2r7Wz3tx8_zo6WMUTajaJJNk3WVkEedKbuVWuY7x2IGd22fUIWMv0,,,,,,,,,,,
,,,,,,,,,,,,,,a,1,0.558165,space,0.53397,0,175,175,142,1,0_targ_4_dist_green/trial18.png,,,0,4,greenverival,a,38,18,female,2021-02-20_17h02.41.894,exp11,2020.2.6,MacIntel,60,IwAR0U0N2r7Wz3tx8_zo6WMUTajaJJNk3WVkEedKbuVWuY7x2IGd22fUIWMv0,,,,,,,,,,,
,,,,,,,,,,,,,,a,1,0.5446,space,0.488455,0,176,176,127,1,0_targ_4_dist_green/trial3.png,,,0,4,greenverival,a,38,18,female,2021-02-20_17h02.41.894,exp11,2020.2.6,MacIntel,60,IwAR0U0N2r7Wz3tx8_zo6WMUTajaJJNk3WVkEedKbuVWuY7x2IGd22fUIWMv0,,,,,,,,,,,
,,,,,,,,,,,,,,a,1,0.915215,space,0.7016,0,177,177,124,1,0_targ_1_dist_green/trial25.png,,,0,1,greenverival,a,38,18,female,2021-02-20_17h02.41.894,exp11,2020.2.6,MacIntel,60,IwAR0U0N2r7Wz3tx8_zo6WMUTajaJJNk3WVkEedKbuVWuY7x2IGd22fUIWMv0,,,,,,,,,,,
,,,,,,,,,,,,,,p,1,0.584285,space,0.482405,0,178,178,98,1,15_dist_green/trial24.png,,,1,15,greenverival,p,38,18,female,2021-02-20_17h02.41.894,exp11,2020.2.6,MacIntel,60,IwAR0U0N2r7Wz3tx8_zo6WMUTajaJJNk3WVkEedKbuVWuY7x2IGd22fUIWMv0,,,,,,,,,,,
,,,,,,,,,,,,,,a,1,0.62698,space,0.534355,0,179,179,159,1,0_targ_10_dist_green/trial10.png,,,0,10,greenverival,a,38,18,female,2021-02-20_17h02.41.894,exp11,2020.2.6,MacIntel,60,IwAR0U0N2r7Wz3tx8_zo6WMUTajaJJNk3WVkEedKbuVWuY7x2IGd22fUIWMv0,,,,,,,,,,,
,,,,,,,,,,,,,,p,1,0.965785,space,0.5142,0,180,180,73,1,9_dist_green/trial24.png,,,1,9,greenverival,p,38,18,female,2021-02-20_17h02.41.894,exp11,2020.2.6,MacIntel,60,IwAR0U0N2r7Wz3tx8_zo6WMUTajaJJNk3WVkEedKbuVWuY7x2IGd22fUIWMv0,,,,,,,,,,,
,,,,,,,,,,,,,,p,1,0.60136,space,0.49949,0,181,181,76,1,15_dist_green/trial2.png,,,1,15,greenverival,p,38,18,female,2021-02-20_17h02.41.894,exp11,2020.2.6,MacIntel,60,IwAR0U0N2r7Wz3tx8_zo6WMUTajaJJNk3WVkEedKbuVWuY7x2IGd22fUIWMv0,,,,,,,,,,,
,,,,,,,,,,,,,,p,1,0.54981,space,0.54968,0,182,182,92,1,15_dist_green/trial18.png,,,1,15,greenverival,p,38,18,female,2021-02-20_17h02.41.894,exp11,2020.2.6,MacIntel,60,IwAR0U0N2r7Wz3tx8_zo6WMUTajaJJNk3WVkEedKbuVWuY7x2IGd22fUIWMv0,,,,,,,,,,,
,,,,,,,,,,,,,,a,1,0.728745,space,0.58729,0,183,183,198,1,0_targ_16_dist_green/trial24.png,,,0,16,greenverival,a,38,18,female,2021-02-20_17h02.41.894,exp11,2020.2.6,MacIntel,60,IwAR0U0N2r7Wz3tx8_zo6WMUTajaJJNk3WVkEedKbuVWuY7x2IGd22fUIWMv0,,,,,,,,,,,
,,,,,,,,,,,,,,a,0,0.676015,space,2.89296,0,184,184,77,1,15_dist_green/trial3.png,,,1,15,greenverival,p,38,18,female,2021-02-20_17h02.41.894,exp11,2020.2.6,MacIntel,60,IwAR0U0N2r7Wz3tx8_zo6WMUTajaJJNk3WVkEedKbuVWuY7x2IGd22fUIWMv0,,,,,,,,,,,
,,,,,,,,,,,,,,p,1,1.322685,space,0.43426,0,185,185,30,1,3_dist_green/trial6.png,,,1,3,greenverival,p,38,18,female,2021-02-20_17h02.41.894,exp11,2020.2.6,MacIntel,60,IwAR0U0N2r7Wz3tx8_zo6WMUTajaJJNk3WVkEedKbuVWuY7x2IGd22fUIWMv0,,,,,,,,,,,
,,,,,,,,,,,,,,a,1,0.8321,space,0.485405,0,186,186,193,1,0_targ_16_dist_green/trial19.png,,,0,16,greenverival,a,38,18,female,2021-02-20_17h02.41.894,exp11,2020.2.6,MacIntel,60,IwAR0U0N2r7Wz3tx8_zo6WMUTajaJJNk3WVkEedKbuVWuY7x2IGd22fUIWMv0,,,,,,,,,,,
,,,,,,,,,,,,,,p,1,0.48135,space,0.48658,0,187,187,10,1,0_dist_green/trial11.png,,,1,0,greenverival,p,38,18,female,2021-02-20_17h02.41.894,exp11,2020.2.6,MacIntel,60,IwAR0U0N2r7Wz3tx8_zo6WMUTajaJJNk3WVkEedKbuVWuY7x2IGd22fUIWMv0,,,,,,,,,,,
,,,,,,,,,,,,,,a,1,0.56807,space,0.481525,0,188,188,109,1,0_targ_1_dist_green/trial10.png,,,0,1,greenverival,a,38,18,female,2021-02-20_17h02.41.894,exp11,2020.2.6,MacIntel,60,IwAR0U0N2r7Wz3tx8_zo6WMUTajaJJNk3WVkEedKbuVWuY7x2IGd22fUIWMv0,,,,,,,,,,,
,,,,,,,,,,,,,,a,1,0.84563,space,0.504205,0,189,189,182,1,0_targ_16_dist_green/trial8.png,,,0,16,greenverival,a,38,18,female,2021-02-20_17h02.41.894,exp11,2020.2.6,MacIntel,60,IwAR0U0N2r7Wz3tx8_zo6WMUTajaJJNk3WVkEedKbuVWuY7x2IGd22fUIWMv0,,,,,,,,,,,
,,,,,,,,,,,,,,a,1,0.53089,space,0.489675,0,190,190,165,1,0_targ_10_dist_green/trial16.png,,,0,10,greenverival,a,38,18,female,2021-02-20_17h02.41.894,exp11,2020.2.6,MacIntel,60,IwAR0U0N2r7Wz3tx8_zo6WMUTajaJJNk3WVkEedKbuVWuY7x2IGd22fUIWMv0,,,,,,,,,,,
,,,,,,,,,,,,,,p,1,0.730525,space,0.487835,0,191,191,16,1,0_dist_green/trial17.png,,,1,0,greenverival,p,38,18,female,2021-02-20_17h02.41.894,exp11,2020.2.6,MacIntel,60,IwAR0U0N2r7Wz3tx8_zo6WMUTajaJJNk3WVkEedKbuVWuY7x2IGd22fUIWMv0,,,,,,,,,,,
,,,,,,,,,,,,,,a,1,0.61751,space,0.493855,0,192,192,177,1,0_targ_16_dist_green/trial3.png,,,0,16,greenverival,a,38,18,female,2021-02-20_17h02.41.894,exp11,2020.2.6,MacIntel,60,IwAR0U0N2r7Wz3tx8_zo6WMUTajaJJNk3WVkEedKbuVWuY7x2IGd22fUIWMv0,,,,,,,,,,,
,,,,,,,,,,,,,,p,1,0.46644,space,0.51926,0,193,193,43,1,3_dist_green/trial19.png,,,1,3,greenverival,p,38,18,female,2021-02-20_17h02.41.894,exp11,2020.2.6,MacIntel,60,IwAR0U0N2r7Wz3tx8_zo6WMUTajaJJNk3WVkEedKbuVWuY7x2IGd22fUIWMv0,,,,,,,,,,,
,,,,,,,,,,,,,,p,1,0.56911,space,0.499195,0,194,194,11,1,0_dist_green/trial12.png,,,1,0,greenverival,p,38,18,female,2021-02-20_17h02.41.894,exp11,2020.2.6,MacIntel,60,IwAR0U0N2r7Wz3tx8_zo6WMUTajaJJNk3WVkEedKbuVWuY7x2IGd22fUIWMv0,,,,,,,,,,,
,,,,,,,,,,,,,,p,1,0.56384,space,0.483415,0,195,195,1,1,0_dist_green/trial2.png,,,1,0,greenverival,p,38,18,female,2021-02-20_17h02.41.894,exp11,2020.2.6,MacIntel,60,IwAR0U0N2r7Wz3tx8_zo6WMUTajaJJNk3WVkEedKbuVWuY7x2IGd22fUIWMv0,,,,,,,,,,,
,,,,,,,,,,,,,,p,1,0.53154,space,0.552595,0,196,196,89,1,15_dist_green/trial15.png,,,1,15,greenverival,p,38,18,female,2021-02-20_17h02.41.894,exp11,2020.2.6,MacIntel,60,IwAR0U0N2r7Wz3tx8_zo6WMUTajaJJNk3WVkEedKbuVWuY7x2IGd22fUIWMv0,,,,,,,,,,,
,,,,,,,,,,,,,,a,1,0.61664,space,0.518695,0,197,197,167,1,0_targ_10_dist_green/trial18.png,,,0,10,greenverival,a,38,18,female,2021-02-20_17h02.41.894,exp11,2020.2.6,MacIntel,60,IwAR0U0N2r7Wz3tx8_zo6WMUTajaJJNk3WVkEedKbuVWuY7x2IGd22fUIWMv0,,,,,,,,,,,
,,,,,,,,,,,,,,a,1,0.512595,space,0.515,0,198,198,104,1,0_targ_1_dist_green/trial5.png,,,0,1,greenverival,a,38,18,female,2021-02-20_17h02.41.894,exp11,2020.2.6,MacIntel,60,IwAR0U0N2r7Wz3tx8_zo6WMUTajaJJNk3WVkEedKbuVWuY7x2IGd22fUIWMv0,,,,,,,,,,,
,,,,,,,,,,,,,,a,1,0.51604,space,0.534265,0,199,199,118,1,0_targ_1_dist_green/trial19.png,,,0,1,greenverival,a,38,18,female,2021-02-20_17h02.41.894,exp11,2020.2.6,MacIntel,60,IwAR0U0N2r7Wz3tx8_zo6WMUTajaJJNk3WVkEedKbuVWuY7x2IGd22fUIWMv0,,,,,,,,,,,
,,,,,,,,,,,,,,,,,,,,,,,,,,,,,,,38,18,female,2021-02-20_17h02.41.894,exp11,2020.2.6,MacIntel,60,IwAR0U0N2r7Wz3tx8_zo6WMUTajaJJNk3WVkEedKbuVWuY7x2IGd22fUIWMv0,0,1,1,0,1,conGreen.xlsx,green vertical,Look for green vertical bar (target) and indicate if it is present or absent in the array. If green vertical target is present press 'p' and if absent press 'a'. Press SPACE to start.,,,
