key_resp_6.keys,key_resp_6.rt,key_resp_7.keys,key_resp_7.rt,key_resp_8.keys,key_resp_8.rt,key_resp_10.keys,key_resp_10.rt,key_resp_9.keys,key_resp_9.rt,key_resp_3.keys,key_resp_3.rt,key_resp_5.keys,key_resp_5.rt,key_resp.keys,key_resp.corr,key_resp.rt,key_resp_4.keys,key_resp_4.rt,trials.thisRepN,trials.thisTrialN,trials.thisN,trials.thisIndex,trials.ran,ImageFile,tarPos,tarSize,targPres,numDist,targetName,correctAns,participant,age,sex,date,expName,psychopyVersion,OS,frameRate,trials_2.thisRepN,trials_2.thisTrialN,trials_2.thisN,trials_2.thisIndex,trials_2.ran,condsFile,targName,instructionText,colTarget,sizeTarg,posit
space,4.430665,space,10.8257,space,18.73928,space,31.32449,space,20.50851,space,20.073215,space,7.4563,p,1,1.264215,space,4.013205,0,0,0,56,1,9_dist_green/trial7.png,,,1,9,greenverival,p,40,23,Female,2021-03-02_12h13.34.379,exp11,2020.2.6,Win32,60,,,,,,,,,,,
,,,,,,,,,,,,,,a,1,1.008415,space,1.15245,0,1,1,105,1,0_targ_1_dist_green/trial6.png,,,0,1,greenverival,a,40,23,Female,2021-03-02_12h13.34.379,exp11,2020.2.6,Win32,60,,,,,,,,,,,
,,,,,,,,,,,,,,a,1,0.656695,space,0.562755,0,2,2,147,1,0_targ_4_dist_green/trial23.png,,,0,4,greenverival,a,40,23,Female,2021-03-02_12h13.34.379,exp11,2020.2.6,Win32,60,,,,,,,,,,,
,,,,,,,,,,,,,,a,1,0.530095,space,0.288155,0,3,3,128,1,0_targ_4_dist_green/trial4.png,,,0,4,greenverival,a,40,23,Female,2021-03-02_12h13.34.379,exp11,2020.2.6,Win32,60,,,,,,,,,,,
,,,,,,,,,,,,,,a,1,0.77969,space,0.470685,0,4,4,156,1,0_targ_10_dist_green/trial7.png,,,0,10,greenverival,a,40,23,Female,2021-03-02_12h13.34.379,exp11,2020.2.6,Win32,60,,,,,,,,,,,
,,,,,,,,,,,,,,a,1,0.59616,space,0.301445,0,5,5,140,1,0_targ_4_dist_green/trial6.png,,,0,4,greenverival,a,40,23,Female,2021-03-02_12h13.34.379,exp11,2020.2.6,Win32,60,,,,,,,,,,,
,,,,,,,,,,,,,,a,1,0.60961,space,0.21807,0,6,6,164,1,0_targ_10_dist_green/trial15.png,,,0,10,greenverival,a,40,23,Female,2021-03-02_12h13.34.379,exp11,2020.2.6,Win32,60,,,,,,,,,,,
,,,,,,,,,,,,,,a,1,1.3653,space,0.196665,0,7,7,191,1,0_targ_16_dist_green/trial17.png,,,0,16,greenverival,a,40,23,Female,2021-03-02_12h13.34.379,exp11,2020.2.6,Win32,60,,,,,,,,,,,
,,,,,,,,,,,,,,p,1,0.6291,space,0.416555,0,8,8,20,1,0_dist_green/trial21.png,,,1,0,greenverival,p,40,23,Female,2021-03-02_12h13.34.379,exp11,2020.2.6,Win32,60,,,,,,,,,,,
,,,,,,,,,,,,,,p,1,0.59127,space,0.22457,0,9,9,93,1,15_dist_green/trial19.png,,,1,15,greenverival,p,40,23,Female,2021-03-02_12h13.34.379,exp11,2020.2.6,Win32,60,,,,,,,,,,,
,,,,,,,,,,,,,,a,1,0.54828,space,0.2419,0,10,10,131,1,0_targ_4_dist_green/trial7.png,,,0,4,greenverival,a,40,23,Female,2021-03-02_12h13.34.379,exp11,2020.2.6,Win32,60,,,,,,,,,,,
,,,,,,,,,,,,,,a,1,0.516095,space,0.222565,0,11,11,139,1,0_targ_4_dist_green/trial15.png,,,0,4,greenverival,a,40,23,Female,2021-03-02_12h13.34.379,exp11,2020.2.6,Win32,60,,,,,,,,,,,
,,,,,,,,,,,,,,a,1,0.53084,space,0.17225,0,12,12,108,1,0_targ_1_dist_green/trial9.png,,,0,1,greenverival,a,40,23,Female,2021-03-02_12h13.34.379,exp11,2020.2.6,Win32,60,,,,,,,,,,,
,,,,,,,,,,,,,,a,1,0.62408,space,0.138095,0,13,13,123,1,0_targ_1_dist_green/trial24.png,,,0,1,greenverival,a,40,23,Female,2021-03-02_12h13.34.379,exp11,2020.2.6,Win32,60,,,,,,,,,,,
,,,,,,,,,,,,,,p,1,0.56234,space,0.173105,0,14,14,43,1,3_dist_green/trial19.png,,,1,3,greenverival,p,40,23,Female,2021-03-02_12h13.34.379,exp11,2020.2.6,Win32,60,,,,,,,,,,,
,,,,,,,,,,,,,,p,1,0.5664,space,0.137455,0,15,15,98,1,15_dist_green/trial24.png,,,1,15,greenverival,p,40,23,Female,2021-03-02_12h13.34.379,exp11,2020.2.6,Win32,60,,,,,,,,,,,
,,,,,,,,,,,,,,p,1,0.52249,space,0.150245,0,16,16,49,1,3_dist_green/trial25.png,,,1,3,greenverival,p,40,23,Female,2021-03-02_12h13.34.379,exp11,2020.2.6,Win32,60,,,,,,,,,,,
,,,,,,,,,,,,,,a,1,0.5476,space,0.17303,0,17,17,119,1,0_targ_1_dist_green/trial20.png,,,0,1,greenverival,a,40,23,Female,2021-03-02_12h13.34.379,exp11,2020.2.6,Win32,60,,,,,,,,,,,
,,,,,,,,,,,,,,a,1,0.678045,space,0.122825,0,18,18,167,1,0_targ_10_dist_green/trial18.png,,,0,10,greenverival,a,40,23,Female,2021-03-02_12h13.34.379,exp11,2020.2.6,Win32,60,,,,,,,,,,,
,,,,,,,,,,,,,,p,1,0.606145,space,0.18502,0,19,19,48,1,3_dist_green/trial24.png,,,1,3,greenverival,p,40,23,Female,2021-03-02_12h13.34.379,exp11,2020.2.6,Win32,60,,,,,,,,,,,
,,,,,,,,,,,,,,a,1,0.99242,space,0.12384,0,20,20,176,1,0_targ_16_dist_green/trial2.png,,,0,16,greenverival,a,40,23,Female,2021-03-02_12h13.34.379,exp11,2020.2.6,Win32,60,,,,,,,,,,,
,,,,,,,,,,,,,,p,1,0.520665,space,0.152065,0,21,21,99,1,15_dist_green/trial25.png,,,1,15,greenverival,p,40,23,Female,2021-03-02_12h13.34.379,exp11,2020.2.6,Win32,60,,,,,,,,,,,
,,,,,,,,,,,,,,p,1,0.51985,space,0.23749,0,22,22,39,1,3_dist_green/trial15.png,,,1,3,greenverival,p,40,23,Female,2021-03-02_12h13.34.379,exp11,2020.2.6,Win32,60,,,,,,,,,,,
,,,,,,,,,,,,,,a,1,0.64777,space,0.186835,0,23,23,148,1,0_targ_4_dist_green/trial24.png,,,0,4,greenverival,a,40,23,Female,2021-03-02_12h13.34.379,exp11,2020.2.6,Win32,60,,,,,,,,,,,
,,,,,,,,,,,,,,a,1,1.02277,space,0.11944,0,24,24,198,1,0_targ_16_dist_green/trial24.png,,,0,16,greenverival,a,40,23,Female,2021-03-02_12h13.34.379,exp11,2020.2.6,Win32,60,,,,,,,,,,,
,,,,,,,,,,,,,,a,0,0.61265,space,0.51228,0,25,25,57,1,9_dist_green/trial8.png,,,1,9,greenverival,p,40,23,Female,2021-03-02_12h13.34.379,exp11,2020.2.6,Win32,60,,,,,,,,,,,
,,,,,,,,,,,,,,a,1,1.896565,space,0.494395,0,26,26,168,1,0_targ_10_dist_green/trial19.png,,,0,10,greenverival,a,40,23,Female,2021-03-02_12h13.34.379,exp11,2020.2.6,Win32,60,,,,,,,,,,,
,,,,,,,,,,,,,,p,1,0.506505,space,0.22457,0,27,27,47,1,3_dist_green/trial23.png,,,1,3,greenverival,p,40,23,Female,2021-03-02_12h13.34.379,exp11,2020.2.6,Win32,60,,,,,,,,,,,
,,,,,,,,,,,,,,p,1,0.851795,space,0.18429,0,28,28,59,1,9_dist_green/trial10.png,,,1,9,greenverival,p,40,23,Female,2021-03-02_12h13.34.379,exp11,2020.2.6,Win32,60,,,,,,,,,,,
,,,,,,,,,,,,,,a,1,0.84299,space,0.166205,0,29,29,185,1,0_targ_16_dist_green/trial11.png,,,0,16,greenverival,a,40,23,Female,2021-03-02_12h13.34.379,exp11,2020.2.6,Win32,60,,,,,,,,,,,
,,,,,,,,,,,,,,p,1,0.62997,space,0.16629,0,30,30,87,1,15_dist_green/trial13.png,,,1,15,greenverival,p,40,23,Female,2021-03-02_12h13.34.379,exp11,2020.2.6,Win32,60,,,,,,,,,,,
,,,,,,,,,,,,,,a,1,0.698365,space,0.20044,0,31,31,170,1,0_targ_10_dist_green/trial21.png,,,0,10,greenverival,a,40,23,Female,2021-03-02_12h13.34.379,exp11,2020.2.6,Win32,60,,,,,,,,,,,
,,,,,,,,,,,,,,a,1,0.622735,space,0.2167,0,32,32,100,1,0_targ_1_dist_green/trial1.png,,,0,1,greenverival,a,40,23,Female,2021-03-02_12h13.34.379,exp11,2020.2.6,Win32,60,,,,,,,,,,,
,,,,,,,,,,,,,,p,1,0.613315,space,0.172825,0,33,33,26,1,3_dist_green/trial2.png,,,1,3,greenverival,p,40,23,Female,2021-03-02_12h13.34.379,exp11,2020.2.6,Win32,60,,,,,,,,,,,
,,,,,,,,,,,,,,a,1,0.90427,space,0.405175,0,34,34,177,1,0_targ_16_dist_green/trial3.png,,,0,16,greenverival,a,40,23,Female,2021-03-02_12h13.34.379,exp11,2020.2.6,Win32,60,,,,,,,,,,,
,,,,,,,,,,,,,,a,1,0.609865,space,0.22353,0,35,35,179,1,0_targ_16_dist_green/trial5.png,,,0,16,greenverival,a,40,23,Female,2021-03-02_12h13.34.379,exp11,2020.2.6,Win32,60,,,,,,,,,,,
,,,,,,,,,,,,,,a,1,0.688145,space,0.223575,0,36,36,149,1,0_targ_4_dist_green/trial25.png,,,0,4,greenverival,a,40,23,Female,2021-03-02_12h13.34.379,exp11,2020.2.6,Win32,60,,,,,,,,,,,
,,,,,,,,,,,,,,p,1,0.566725,space,0.140615,0,37,37,68,1,9_dist_green/trial19.png,,,1,9,greenverival,p,40,23,Female,2021-03-02_12h13.34.379,exp11,2020.2.6,Win32,60,,,,,,,,,,,
,,,,,,,,,,,,,,p,1,0.70575,space,0.151775,0,38,38,86,1,15_dist_green/trial12.png,,,1,15,greenverival,p,40,23,Female,2021-03-02_12h13.34.379,exp11,2020.2.6,Win32,60,,,,,,,,,,,
,,,,,,,,,,,,,,a,1,0.579225,space,0.20328,0,39,39,174,1,0_targ_10_dist_green/trial25.png,,,0,10,greenverival,a,40,23,Female,2021-03-02_12h13.34.379,exp11,2020.2.6,Win32,60,,,,,,,,,,,
,,,,,,,,,,,,,,p,1,0.6118,space,0.18501,0,40,40,4,1,0_dist_green/trial5.png,,,1,0,greenverival,p,40,23,Female,2021-03-02_12h13.34.379,exp11,2020.2.6,Win32,60,,,,,,,,,,,
,,,,,,,,,,,,,,p,1,0.601545,space,0.2239,0,41,41,63,1,9_dist_green/trial14.png,,,1,9,greenverival,p,40,23,Female,2021-03-02_12h13.34.379,exp11,2020.2.6,Win32,60,,,,,,,,,,,
,,,,,,,,,,,,,,a,1,0.657285,space,0.183375,0,42,42,183,1,0_targ_16_dist_green/trial9.png,,,0,16,greenverival,a,40,23,Female,2021-03-02_12h13.34.379,exp11,2020.2.6,Win32,60,,,,,,,,,,,
,,,,,,,,,,,,,,a,1,0.735055,space,0.129035,0,43,43,134,1,0_targ_4_dist_green/trial10.png,,,0,4,greenverival,a,40,23,Female,2021-03-02_12h13.34.379,exp11,2020.2.6,Win32,60,,,,,,,,,,,
,,,,,,,,,,,,,,a,1,0.60024,space,0.10655,0,44,44,160,1,0_targ_10_dist_green/trial11.png,,,0,10,greenverival,a,40,23,Female,2021-03-02_12h13.34.379,exp11,2020.2.6,Win32,60,,,,,,,,,,,
,,,,,,,,,,,,,,a,1,0.569095,space,0.13725,0,45,45,101,1,0_targ_1_dist_green/trial2.png,,,0,1,greenverival,a,40,23,Female,2021-03-02_12h13.34.379,exp11,2020.2.6,Win32,60,,,,,,,,,,,
,,,,,,,,,,,,,,a,1,0.975335,space,0.122315,0,46,46,113,1,0_targ_1_dist_green/trial14.png,,,0,1,greenverival,a,40,23,Female,2021-03-02_12h13.34.379,exp11,2020.2.6,Win32,60,,,,,,,,,,,
,,,,,,,,,,,,,,p,1,0.482965,space,0.149265,0,47,47,9,1,0_dist_green/trial10.png,,,1,0,greenverival,p,40,23,Female,2021-03-02_12h13.34.379,exp11,2020.2.6,Win32,60,,,,,,,,,,,
,,,,,,,,,,,,,,p,1,0.66779,space,0.10936,0,48,48,67,1,9_dist_green/trial18.png,,,1,9,greenverival,p,40,23,Female,2021-03-02_12h13.34.379,exp11,2020.2.6,Win32,60,,,,,,,,,,,
,,,,,,,,,,,,,,p,1,0.58323,space,0.13206,0,49,49,28,1,3_dist_green/trial4.png,,,1,3,greenverival,p,40,23,Female,2021-03-02_12h13.34.379,exp11,2020.2.6,Win32,60,,,,,,,,,,,
,,,,,,,,,,,,,,a,1,0.76016,space,0.1505,0,50,50,169,1,0_targ_10_dist_green/trial20.png,,,0,10,greenverival,a,40,23,Female,2021-03-02_12h13.34.379,exp11,2020.2.6,Win32,60,,,,,,,,,,,
,,,,,,,,,,,,,,a,1,0.761355,space,0.11741,0,51,51,150,1,0_targ_10_dist_green/trial1.png,,,0,10,greenverival,a,40,23,Female,2021-03-02_12h13.34.379,exp11,2020.2.6,Win32,60,,,,,,,,,,,
,,,,,,,,,,,,,,a,1,0.615875,space,0.12567,0,52,52,130,1,0_targ_4_dist_green/trial6.png,,,0,4,greenverival,a,40,23,Female,2021-03-02_12h13.34.379,exp11,2020.2.6,Win32,60,,,,,,,,,,,
,,,,,,,,,,,,,,p,1,0.82275,space,0.15489,0,53,53,70,1,9_dist_green/trial21.png,,,1,9,greenverival,p,40,23,Female,2021-03-02_12h13.34.379,exp11,2020.2.6,Win32,60,,,,,,,,,,,
,,,,,,,,,,,,,,p,1,0.50558,space,0.132095,0,54,54,92,1,15_dist_green/trial18.png,,,1,15,greenverival,p,40,23,Female,2021-03-02_12h13.34.379,exp11,2020.2.6,Win32,60,,,,,,,,,,,
,,,,,,,,,,,,,,a,1,0.65744,space,0.126465,0,55,55,155,1,0_targ_10_dist_green/trial6.png,,,0,10,greenverival,a,40,23,Female,2021-03-02_12h13.34.379,exp11,2020.2.6,Win32,60,,,,,,,,,,,
,,,,,,,,,,,,,,p,1,0.56297,space,0.12292,0,56,56,14,1,0_dist_green/trial15.png,,,1,0,greenverival,p,40,23,Female,2021-03-02_12h13.34.379,exp11,2020.2.6,Win32,60,,,,,,,,,,,
,,,,,,,,,,,,,,p,1,0.602255,space,0.148085,0,57,57,3,1,0_dist_green/trial4.png,,,1,0,greenverival,p,40,23,Female,2021-03-02_12h13.34.379,exp11,2020.2.6,Win32,60,,,,,,,,,,,
,,,,,,,,,,,,,,a,1,0.64302,space,0.135285,0,58,58,126,1,0_targ_4_dist_green/trial2.png,,,0,4,greenverival,a,40,23,Female,2021-03-02_12h13.34.379,exp11,2020.2.6,Win32,60,,,,,,,,,,,
,,,,,,,,,,,,,,p,1,0.862915,space,0.157015,0,59,59,65,1,9_dist_green/trial16.png,,,1,9,greenverival,p,40,23,Female,2021-03-02_12h13.34.379,exp11,2020.2.6,Win32,60,,,,,,,,,,,
,,,,,,,,,,,,,,p,1,0.921785,space,0.101655,0,60,60,82,1,15_dist_green/trial8.png,,,1,15,greenverival,p,40,23,Female,2021-03-02_12h13.34.379,exp11,2020.2.6,Win32,60,,,,,,,,,,,
,,,,,,,,,,,,,,p,1,0.621215,space,0.121615,0,61,61,72,1,9_dist_green/trial23.png,,,1,9,greenverival,p,40,23,Female,2021-03-02_12h13.34.379,exp11,2020.2.6,Win32,60,,,,,,,,,,,
,,,,,,,,,,,,,,a,1,0.452335,space,0.14658,0,62,62,124,1,0_targ_1_dist_green/trial25.png,,,0,1,greenverival,a,40,23,Female,2021-03-02_12h13.34.379,exp11,2020.2.6,Win32,60,,,,,,,,,,,
,,,,,,,,,,,,,,a,1,1.06507,space,0.151585,0,63,63,192,1,0_targ_16_dist_green/trial18.png,,,0,16,greenverival,a,40,23,Female,2021-03-02_12h13.34.379,exp11,2020.2.6,Win32,60,,,,,,,,,,,
,,,,,,,,,,,,,,a,1,0.766405,space,0.15453,0,64,64,103,1,0_targ_1_dist_green/trial4.png,,,0,1,greenverival,a,40,23,Female,2021-03-02_12h13.34.379,exp11,2020.2.6,Win32,60,,,,,,,,,,,
,,,,,,,,,,,,,,a,1,0.37599,space,0.159765,0,65,65,107,1,0_targ_1_dist_green/trial8.png,,,0,1,greenverival,a,40,23,Female,2021-03-02_12h13.34.379,exp11,2020.2.6,Win32,60,,,,,,,,,,,
,,,,,,,,,,,,,,p,1,0.536095,space,0.15163,0,66,66,8,1,0_dist_green/trial9.png,,,1,0,greenverival,p,40,23,Female,2021-03-02_12h13.34.379,exp11,2020.2.6,Win32,60,,,,,,,,,,,
,,,,,,,,,,,,,,p,1,0.65967,space,0.134805,0,67,67,41,1,3_dist_green/trial17.png,,,1,3,greenverival,p,40,23,Female,2021-03-02_12h13.34.379,exp11,2020.2.6,Win32,60,,,,,,,,,,,
,,,,,,,,,,,,,,p,1,0.430895,space,0.18648,0,68,68,2,1,0_dist_green/trial3.png,,,1,0,greenverival,p,40,23,Female,2021-03-02_12h13.34.379,exp11,2020.2.6,Win32,60,,,,,,,,,,,
,,,,,,,,,,,,,,p,1,0.547435,space,0.192915,0,69,69,13,1,0_dist_green/trial14.png,,,1,0,greenverival,p,40,23,Female,2021-03-02_12h13.34.379,exp11,2020.2.6,Win32,60,,,,,,,,,,,
,,,,,,,,,,,,,,a,1,0.579355,space,0.184655,0,70,70,181,1,0_targ_16_dist_green/trial7.png,,,0,16,greenverival,a,40,23,Female,2021-03-02_12h13.34.379,exp11,2020.2.6,Win32,60,,,,,,,,,,,
,,,,,,,,,,,,,,p,1,0.76135,space,0.18394,0,71,71,46,1,3_dist_green/trial22.png,,,1,3,greenverival,p,40,23,Female,2021-03-02_12h13.34.379,exp11,2020.2.6,Win32,60,,,,,,,,,,,
,,,,,,,,,,,,,,a,1,0.70744,space,0.169365,0,72,72,104,1,0_targ_1_dist_green/trial5.png,,,0,1,greenverival,a,40,23,Female,2021-03-02_12h13.34.379,exp11,2020.2.6,Win32,60,,,,,,,,,,,
,,,,,,,,,,,,,,a,1,0.82904,space,0.162955,0,73,73,117,1,0_targ_1_dist_green/trial18.png,,,0,1,greenverival,a,40,23,Female,2021-03-02_12h13.34.379,exp11,2020.2.6,Win32,60,,,,,,,,,,,
,,,,,,,,,,,,,,a,1,0.445365,space,0.28849,0,74,74,109,1,0_targ_1_dist_green/trial10.png,,,0,1,greenverival,a,40,23,Female,2021-03-02_12h13.34.379,exp11,2020.2.6,Win32,60,,,,,,,,,,,
,,,,,,,,,,,,,,p,1,0.744465,space,0.238245,0,75,75,32,1,3_dist_green/trial8.png,,,1,3,greenverival,p,40,23,Female,2021-03-02_12h13.34.379,exp11,2020.2.6,Win32,60,,,,,,,,,,,
,,,,,,,,,,,,,,p,1,0.53924,space,0.21135,0,76,76,31,1,3_dist_green/trial7.png,,,1,3,greenverival,p,40,23,Female,2021-03-02_12h13.34.379,exp11,2020.2.6,Win32,60,,,,,,,,,,,
,,,,,,,,,,,,,,p,1,0.512645,space,0.205,0,77,77,10,1,0_dist_green/trial11.png,,,1,0,greenverival,p,40,23,Female,2021-03-02_12h13.34.379,exp11,2020.2.6,Win32,60,,,,,,,,,,,
,,,,,,,,,,,,,,a,1,0.602305,space,0.19055,0,78,78,137,1,0_targ_4_dist_green/trial13.png,,,0,4,greenverival,a,40,23,Female,2021-03-02_12h13.34.379,exp11,2020.2.6,Win32,60,,,,,,,,,,,
,,,,,,,,,,,,,,p,1,0.813445,space,0.188135,0,79,79,75,1,15_dist_green/trial1.png,,,1,15,greenverival,p,40,23,Female,2021-03-02_12h13.34.379,exp11,2020.2.6,Win32,60,,,,,,,,,,,
,,,,,,,,,,,,,,a,1,0.66792,space,0.13903,0,80,80,163,1,0_targ_10_dist_green/trial14.png,,,0,10,greenverival,a,40,23,Female,2021-03-02_12h13.34.379,exp11,2020.2.6,Win32,60,,,,,,,,,,,
,,,,,,,,,,,,,,p,1,0.79784,space,0.1513,0,81,81,29,1,3_dist_green/trial5.png,,,1,3,greenverival,p,40,23,Female,2021-03-02_12h13.34.379,exp11,2020.2.6,Win32,60,,,,,,,,,,,
,,,,,,,,,,,,,,p,1,0.58919,space,0.13732,0,82,82,53,1,9_dist_green/trial4.png,,,1,9,greenverival,p,40,23,Female,2021-03-02_12h13.34.379,exp11,2020.2.6,Win32,60,,,,,,,,,,,
,,,,,,,,,,,,,,a,1,0.530985,space,0.18712,0,83,83,122,1,0_targ_1_dist_green/trial23.png,,,0,1,greenverival,a,40,23,Female,2021-03-02_12h13.34.379,exp11,2020.2.6,Win32,60,,,,,,,,,,,
,,,,,,,,,,,,,,a,1,0.778805,space,0.152385,0,84,84,178,1,0_targ_16_dist_green/trial4.png,,,0,16,greenverival,a,40,23,Female,2021-03-02_12h13.34.379,exp11,2020.2.6,Win32,60,,,,,,,,,,,
,,,,,,,,,,,,,,p,1,0.529415,space,0.154465,0,85,85,17,1,0_dist_green/trial18.png,,,1,0,greenverival,p,40,23,Female,2021-03-02_12h13.34.379,exp11,2020.2.6,Win32,60,,,,,,,,,,,
,,,,,,,,,,,,,,a,1,0.720015,space,0.18662,0,86,86,112,1,0_targ_1_dist_green/trial13.png,,,0,1,greenverival,a,40,23,Female,2021-03-02_12h13.34.379,exp11,2020.2.6,Win32,60,,,,,,,,,,,
,,,,,,,,,,,,,,p,1,0.49007,space,0.157565,0,87,87,23,1,0_dist_green/trial24.png,,,1,0,greenverival,p,40,23,Female,2021-03-02_12h13.34.379,exp11,2020.2.6,Win32,60,,,,,,,,,,,
,,,,,,,,,,,,,,a,1,0.51112,space,0.201435,0,88,88,116,1,0_targ_1_dist_green/trial17.png,,,0,1,greenverival,a,40,23,Female,2021-03-02_12h13.34.379,exp11,2020.2.6,Win32,60,,,,,,,,,,,
,,,,,,,,,,,,,,a,1,0.61443,space,0.20441,0,89,89,172,1,0_targ_10_dist_green/trial23.png,,,0,10,greenverival,a,40,23,Female,2021-03-02_12h13.34.379,exp11,2020.2.6,Win32,60,,,,,,,,,,,
,,,,,,,,,,,,,,a,1,0.620735,space,0.15559,0,90,90,142,1,0_targ_4_dist_green/trial18.png,,,0,4,greenverival,a,40,23,Female,2021-03-02_12h13.34.379,exp11,2020.2.6,Win32,60,,,,,,,,,,,
,,,,,,,,,,,,,,p,1,0.48818,space,0.148755,0,91,91,15,1,0_dist_green/trial16.png,,,1,0,greenverival,p,40,23,Female,2021-03-02_12h13.34.379,exp11,2020.2.6,Win32,60,,,,,,,,,,,
,,,,,,,,,,,,,,a,1,0.666455,space,0.166225,0,92,92,180,1,0_targ_16_dist_green/trial6.png,,,0,16,greenverival,a,40,23,Female,2021-03-02_12h13.34.379,exp11,2020.2.6,Win32,60,,,,,,,,,,,
,,,,,,,,,,,,,,p,1,0.53049,space,0.14975,0,93,93,37,1,3_dist_green/trial13.png,,,1,3,greenverival,p,40,23,Female,2021-03-02_12h13.34.379,exp11,2020.2.6,Win32,60,,,,,,,,,,,
,,,,,,,,,,,,,,a,1,0.94258,space,0.36656,0,94,94,114,1,0_targ_1_dist_green/trial15.png,,,0,1,greenverival,a,40,23,Female,2021-03-02_12h13.34.379,exp11,2020.2.6,Win32,60,,,,,,,,,,,
,,,,,,,,,,,,,,p,1,0.53875,space,0.17015,0,95,95,18,1,0_dist_green/trial19.png,,,1,0,greenverival,p,40,23,Female,2021-03-02_12h13.34.379,exp11,2020.2.6,Win32,60,,,,,,,,,,,
,,,,,,,,,,,,,,a,1,0.606015,space,0.55787,0,96,96,133,1,0_targ_4_dist_green/trial9.png,,,0,4,greenverival,a,40,23,Female,2021-03-02_12h13.34.379,exp11,2020.2.6,Win32,60,,,,,,,,,,,
,,,,,,,,,,,,,,p,1,0.58758,space,0.170315,0,97,97,36,1,3_dist_green/trial12.png,,,1,3,greenverival,p,40,23,Female,2021-03-02_12h13.34.379,exp11,2020.2.6,Win32,60,,,,,,,,,,,
,,,,,,,,,,,,,,p,1,0.78348,space,0.10728,0,98,98,73,1,9_dist_green/trial24.png,,,1,9,greenverival,p,40,23,Female,2021-03-02_12h13.34.379,exp11,2020.2.6,Win32,60,,,,,,,,,,,
,,,,,,,,,,,,,,a,1,0.603275,space,0.152225,0,99,99,199,1,0_targ_16_dist_green/trial25.png,,,0,16,greenverival,a,40,23,Female,2021-03-02_12h13.34.379,exp11,2020.2.6,Win32,60,,,,,,,,,,,
,,,,,,,,,,,,,,a,1,0.567135,space,0.155315,0,100,100,125,1,0_targ_4_dist_green/trial1.png,,,0,4,greenverival,a,40,23,Female,2021-03-02_12h13.34.379,exp11,2020.2.6,Win32,60,,,,,,,,,,,
,,,,,,,,,,,,,,a,1,0.761715,space,0.31738,0,101,101,196,1,0_targ_16_dist_green/trial22.png,,,0,16,greenverival,a,40,23,Female,2021-03-02_12h13.34.379,exp11,2020.2.6,Win32,60,,,,,,,,,,,
,,,,,,,,,,,,,,a,1,0.775875,space,0.265865,0,102,102,127,1,0_targ_4_dist_green/trial3.png,,,0,4,greenverival,a,40,23,Female,2021-03-02_12h13.34.379,exp11,2020.2.6,Win32,60,,,,,,,,,,,
,,,,,,,,,,,,,,a,1,0.756575,space,0.184375,0,103,103,184,1,0_targ_16_dist_green/trial10.png,,,0,16,greenverival,a,40,23,Female,2021-03-02_12h13.34.379,exp11,2020.2.6,Win32,60,,,,,,,,,,,
,,,,,,,,,,,,,,a,1,0.77045,space,0.138615,0,104,104,173,1,0_targ_10_dist_green/trial24.png,,,0,10,greenverival,a,40,23,Female,2021-03-02_12h13.34.379,exp11,2020.2.6,Win32,60,,,,,,,,,,,
,,,,,,,,,,,,,,p,1,0.78739,space,0.12685,0,105,105,51,1,9_dist_green/trial2.png,,,1,9,greenverival,p,40,23,Female,2021-03-02_12h13.34.379,exp11,2020.2.6,Win32,60,,,,,,,,,,,
,,,,,,,,,,,,,,a,1,0.575655,space,0.175335,0,106,106,115,1,0_targ_1_dist_green/trial6.png,,,0,1,greenverival,a,40,23,Female,2021-03-02_12h13.34.379,exp11,2020.2.6,Win32,60,,,,,,,,,,,
,,,,,,,,,,,,,,p,1,0.59965,space,0.14153,0,107,107,60,1,9_dist_green/trial11.png,,,1,9,greenverival,p,40,23,Female,2021-03-02_12h13.34.379,exp11,2020.2.6,Win32,60,,,,,,,,,,,
,,,,,,,,,,,,,,a,1,0.568865,space,0.221945,0,108,108,110,1,0_targ_1_dist_green/trial11.png,,,0,1,greenverival,a,40,23,Female,2021-03-02_12h13.34.379,exp11,2020.2.6,Win32,60,,,,,,,,,,,
,,,,,,,,,,,,,,p,1,0.56946,space,0.15605,0,109,109,71,1,9_dist_green/trial22.png,,,1,9,greenverival,p,40,23,Female,2021-03-02_12h13.34.379,exp11,2020.2.6,Win32,60,,,,,,,,,,,
,,,,,,,,,,,,,,p,1,0.548865,space,0.15234,0,110,110,1,1,0_dist_green/trial2.png,,,1,0,greenverival,p,40,23,Female,2021-03-02_12h13.34.379,exp11,2020.2.6,Win32,60,,,,,,,,,,,
,,,,,,,,,,,,,,p,1,0.54608,space,0.14914,0,111,111,40,1,3_dist_green/trial16.png,,,1,3,greenverival,p,40,23,Female,2021-03-02_12h13.34.379,exp11,2020.2.6,Win32,60,,,,,,,,,,,
,,,,,,,,,,,,,,p,1,0.452445,space,0.168835,0,112,112,16,1,0_dist_green/trial17.png,,,1,0,greenverival,p,40,23,Female,2021-03-02_12h13.34.379,exp11,2020.2.6,Win32,60,,,,,,,,,,,
,,,,,,,,,,,,,,a,1,0.69347,space,0.196025,0,113,113,188,1,0_targ_16_dist_green/trial14.png,,,0,16,greenverival,a,40,23,Female,2021-03-02_12h13.34.379,exp11,2020.2.6,Win32,60,,,,,,,,,,,
,,,,,,,,,,,,,,p,1,0.57088,space,0.10576,0,114,114,84,1,15_dist_green/trial10.png,,,1,15,greenverival,p,40,23,Female,2021-03-02_12h13.34.379,exp11,2020.2.6,Win32,60,,,,,,,,,,,
,,,,,,,,,,,,,,a,1,0.96708,space,0.201975,0,115,115,189,1,0_targ_16_dist_green/trial15.png,,,0,16,greenverival,a,40,23,Female,2021-03-02_12h13.34.379,exp11,2020.2.6,Win32,60,,,,,,,,,,,
,,,,,,,,,,,,,,p,1,0.576555,space,0.15731,0,116,116,7,1,0_dist_green/trial8.png,,,1,0,greenverival,p,40,23,Female,2021-03-02_12h13.34.379,exp11,2020.2.6,Win32,60,,,,,,,,,,,
,,,,,,,,,,,,,,a,1,0.60492,space,0.14605,0,117,117,144,1,0_targ_4_dist_green/trial20.png,,,0,4,greenverival,a,40,23,Female,2021-03-02_12h13.34.379,exp11,2020.2.6,Win32,60,,,,,,,,,,,
,,,,,,,,,,,,,,p,1,0.640905,space,0.1281,0,118,118,55,1,9_dist_green/trial6.png,,,1,9,greenverival,p,40,23,Female,2021-03-02_12h13.34.379,exp11,2020.2.6,Win32,60,,,,,,,,,,,
,,,,,,,,,,,,,,p,1,0.63184,space,0.13437,0,119,119,58,1,9_dist_green/trial9.png,,,1,9,greenverival,p,40,23,Female,2021-03-02_12h13.34.379,exp11,2020.2.6,Win32,60,,,,,,,,,,,
,,,,,,,,,,,,,,a,1,0.479285,space,0.13643,0,120,120,145,1,0_targ_4_dist_green/trial21.png,,,0,4,greenverival,a,40,23,Female,2021-03-02_12h13.34.379,exp11,2020.2.6,Win32,60,,,,,,,,,,,
,,,,,,,,,,,,,,p,1,0.56275,space,0.11811,0,121,121,61,1,9_dist_green/trial12.png,,,1,9,greenverival,p,40,23,Female,2021-03-02_12h13.34.379,exp11,2020.2.6,Win32,60,,,,,,,,,,,
,,,,,,,,,,,,,,p,1,0.62031,space,0.22234,0,122,122,89,1,15_dist_green/trial15.png,,,1,15,greenverival,p,40,23,Female,2021-03-02_12h13.34.379,exp11,2020.2.6,Win32,60,,,,,,,,,,,
,,,,,,,,,,,,,,p,1,0.539565,space,0.11789,0,123,123,91,1,15_dist_green/trial17.png,,,1,15,greenverival,p,40,23,Female,2021-03-02_12h13.34.379,exp11,2020.2.6,Win32,60,,,,,,,,,,,
,,,,,,,,,,,,,,a,1,0.656365,space,0.102935,0,124,124,186,1,0_targ_16_dist_green/trial12.png,,,0,16,greenverival,a,40,23,Female,2021-03-02_12h13.34.379,exp11,2020.2.6,Win32,60,,,,,,,,,,,
,,,,,,,,,,,,,,p,1,1.02826,space,0.17123,0,125,125,78,1,15_dist_green/trial4.png,,,1,15,greenverival,p,40,23,Female,2021-03-02_12h13.34.379,exp11,2020.2.6,Win32,60,,,,,,,,,,,
,,,,,,,,,,,,,,p,1,0.62522,space,0.123055,0,126,126,50,1,9_dist_green/trial1.png,,,1,9,greenverival,p,40,23,Female,2021-03-02_12h13.34.379,exp11,2020.2.6,Win32,60,,,,,,,,,,,
,,,,,,,,,,,,,,a,1,0.534335,space,0.154405,0,127,127,146,1,0_targ_4_dist_green/trial22.png,,,0,4,greenverival,a,40,23,Female,2021-03-02_12h13.34.379,exp11,2020.2.6,Win32,60,,,,,,,,,,,
,,,,,,,,,,,,,,p,1,0.56143,space,0.158435,0,128,128,6,1,0_dist_green/trial7.png,,,1,0,greenverival,p,40,23,Female,2021-03-02_12h13.34.379,exp11,2020.2.6,Win32,60,,,,,,,,,,,
,,,,,,,,,,,,,,a,1,0.59706,space,0.11834,0,129,129,102,1,0_targ_1_dist_green/trial3.png,,,0,1,greenverival,a,40,23,Female,2021-03-02_12h13.34.379,exp11,2020.2.6,Win32,60,,,,,,,,,,,
,,,,,,,,,,,,,,p,1,0.57108,space,0.09653,0,130,130,66,1,9_dist_green/trial17.png,,,1,9,greenverival,p,40,23,Female,2021-03-02_12h13.34.379,exp11,2020.2.6,Win32,60,,,,,,,,,,,
,,,,,,,,,,,,,,a,1,0.63528,space,0.09422,0,131,131,171,1,0_targ_10_dist_green/trial22.png,,,0,10,greenverival,a,40,23,Female,2021-03-02_12h13.34.379,exp11,2020.2.6,Win32,60,,,,,,,,,,,
,,,,,,,,,,,,,,p,1,0.609895,space,0.10136,0,132,132,24,1,0_dist_green/trial25.png,,,1,0,greenverival,p,40,23,Female,2021-03-02_12h13.34.379,exp11,2020.2.6,Win32,60,,,,,,,,,,,
,,,,,,,,,,,,,,a,0,0.75115,space,1.369825,0,133,133,95,1,15_dist_green/trial21.png,,,1,15,greenverival,p,40,23,Female,2021-03-02_12h13.34.379,exp11,2020.2.6,Win32,60,,,,,,,,,,,
,,,,,,,,,,,,,,p,1,0.602145,space,0.13577,0,134,134,30,1,3_dist_green/trial6.png,,,1,3,greenverival,p,40,23,Female,2021-03-02_12h13.34.379,exp11,2020.2.6,Win32,60,,,,,,,,,,,
,,,,,,,,,,,,,,a,1,0.5361,space,0.158485,0,135,135,120,1,0_targ_1_dist_green/trial21.png,,,0,1,greenverival,a,40,23,Female,2021-03-02_12h13.34.379,exp11,2020.2.6,Win32,60,,,,,,,,,,,
,,,,,,,,,,,,,,a,1,0.800115,space,0.140165,0,136,136,141,1,0_targ_4_dist_green/trial17.png,,,0,4,greenverival,a,40,23,Female,2021-03-02_12h13.34.379,exp11,2020.2.6,Win32,60,,,,,,,,,,,
,,,,,,,,,,,,,,p,1,0.52698,space,0.143045,0,137,137,22,1,0_dist_green/trial23.png,,,1,0,greenverival,p,40,23,Female,2021-03-02_12h13.34.379,exp11,2020.2.6,Win32,60,,,,,,,,,,,
,,,,,,,,,,,,,,a,1,0.7169,space,0.2867,0,138,138,195,1,0_targ_16_dist_green/trial21.png,,,0,16,greenverival,a,40,23,Female,2021-03-02_12h13.34.379,exp11,2020.2.6,Win32,60,,,,,,,,,,,
,,,,,,,,,,,,,,a,1,0.56455,space,0.156385,0,139,139,157,1,0_targ_10_dist_green/trial8.png,,,0,10,greenverival,a,40,23,Female,2021-03-02_12h13.34.379,exp11,2020.2.6,Win32,60,,,,,,,,,,,
,,,,,,,,,,,,,,p,1,0.52948,space,0.166985,0,140,140,27,1,3_dist_green/trial3.png,,,1,3,greenverival,p,40,23,Female,2021-03-02_12h13.34.379,exp11,2020.2.6,Win32,60,,,,,,,,,,,
,,,,,,,,,,,,,,a,1,0.49417,space,0.168545,0,141,141,153,1,0_targ_10_dist_green/trial4.png,,,0,10,greenverival,a,40,23,Female,2021-03-02_12h13.34.379,exp11,2020.2.6,Win32,60,,,,,,,,,,,
,,,,,,,,,,,,,,p,1,0.4539,space,0.184665,0,142,142,19,1,0_dist_green/trial20.png,,,1,0,greenverival,p,40,23,Female,2021-03-02_12h13.34.379,exp11,2020.2.6,Win32,60,,,,,,,,,,,
,,,,,,,,,,,,,,a,1,0.52852,space,0.19228,0,143,143,135,1,0_targ_4_dist_green/trial11.png,,,0,4,greenverival,a,40,23,Female,2021-03-02_12h13.34.379,exp11,2020.2.6,Win32,60,,,,,,,,,,,
,,,,,,,,,,,,,,a,1,0.62512,space,0.17142,0,144,144,193,1,0_targ_16_dist_green/trial19.png,,,0,16,greenverival,a,40,23,Female,2021-03-02_12h13.34.379,exp11,2020.2.6,Win32,60,,,,,,,,,,,
,,,,,,,,,,,,,,a,1,0.557545,space,0.16585,0,145,145,152,1,0_targ_10_dist_green/trial3.png,,,0,10,greenverival,a,40,23,Female,2021-03-02_12h13.34.379,exp11,2020.2.6,Win32,60,,,,,,,,,,,
,,,,,,,,,,,,,,p,1,0.42774,space,0.170055,0,146,146,33,1,3_dist_green/trial9.png,,,1,3,greenverival,p,40,23,Female,2021-03-02_12h13.34.379,exp11,2020.2.6,Win32,60,,,,,,,,,,,
,,,,,,,,,,,,,,p,1,0.504975,space,0.165175,0,147,147,45,1,3_dist_green/trial21.png,,,1,3,greenverival,p,40,23,Female,2021-03-02_12h13.34.379,exp11,2020.2.6,Win32,60,,,,,,,,,,,
,,,,,,,,,,,,,,a,1,0.527835,space,0.127775,0,148,148,132,1,0_targ_4_dist_green/trial8.png,,,0,4,greenverival,a,40,23,Female,2021-03-02_12h13.34.379,exp11,2020.2.6,Win32,60,,,,,,,,,,,
,,,,,,,,,,,,,,a,1,0.63309,space,0.118025,0,149,149,151,1,0_targ_10_dist_green/trial2.png,,,0,10,greenverival,a,40,23,Female,2021-03-02_12h13.34.379,exp11,2020.2.6,Win32,60,,,,,,,,,,,
,,,,,,,,,,,,,,p,1,0.59571,space,0.135985,0,150,150,96,1,15_dist_green/trial22.png,,,1,15,greenverival,p,40,23,Female,2021-03-02_12h13.34.379,exp11,2020.2.6,Win32,60,,,,,,,,,,,
,,,,,,,,,,,,,,a,1,0.609785,space,0.17132,0,151,151,159,1,0_targ_10_dist_green/trial10.png,,,0,10,greenverival,a,40,23,Female,2021-03-02_12h13.34.379,exp11,2020.2.6,Win32,60,,,,,,,,,,,
,,,,,,,,,,,,,,p,1,0.88456,space,0.114655,0,152,152,90,1,15_dist_green/trial16.png,,,1,15,greenverival,p,40,23,Female,2021-03-02_12h13.34.379,exp11,2020.2.6,Win32,60,,,,,,,,,,,
,,,,,,,,,,,,,,p,1,0.70591,space,0.128435,0,153,153,69,1,9_dist_green/trial20.png,,,1,9,greenverival,p,40,23,Female,2021-03-02_12h13.34.379,exp11,2020.2.6,Win32,60,,,,,,,,,,,
,,,,,,,,,,,,,,p,1,0.56709,space,0.14862,0,154,154,38,1,3_dist_green/trial14.png,,,1,3,greenverival,p,40,23,Female,2021-03-02_12h13.34.379,exp11,2020.2.6,Win32,60,,,,,,,,,,,
,,,,,,,,,,,,,,p,1,0.584855,space,0.15185,0,155,155,85,1,15_dist_green/trial11.png,,,1,15,greenverival,p,40,23,Female,2021-03-02_12h13.34.379,exp11,2020.2.6,Win32,60,,,,,,,,,,,
,,,,,,,,,,,,,,a,1,0.76622,space,0.12294,0,156,156,197,1,0_targ_16_dist_green/trial23.png,,,0,16,greenverival,a,40,23,Female,2021-03-02_12h13.34.379,exp11,2020.2.6,Win32,60,,,,,,,,,,,
,,,,,,,,,,,,,,p,1,1.207715,space,0.144085,0,157,157,21,1,0_dist_green/trial22.png,,,1,0,greenverival,p,40,23,Female,2021-03-02_12h13.34.379,exp11,2020.2.6,Win32,60,,,,,,,,,,,
,,,,,,,,,,,,,,p,1,0.772315,space,0.11002,0,158,158,25,1,3_dist_green/trial1.png,,,1,3,greenverival,p,40,23,Female,2021-03-02_12h13.34.379,exp11,2020.2.6,Win32,60,,,,,,,,,,,
,,,,,,,,,,,,,,p,1,0.70412,space,0.150095,0,159,159,77,1,15_dist_green/trial3.png,,,1,15,greenverival,p,40,23,Female,2021-03-02_12h13.34.379,exp11,2020.2.6,Win32,60,,,,,,,,,,,
,,,,,,,,,,,,,,a,1,0.55406,space,0.134115,0,160,160,162,1,0_targ_10_dist_green/trial13.png,,,0,10,greenverival,a,40,23,Female,2021-03-02_12h13.34.379,exp11,2020.2.6,Win32,60,,,,,,,,,,,
,,,,,,,,,,,,,,a,1,0.596085,space,0.16986,0,161,161,166,1,0_targ_10_dist_green/trial17.png,,,0,10,greenverival,a,40,23,Female,2021-03-02_12h13.34.379,exp11,2020.2.6,Win32,60,,,,,,,,,,,
,,,,,,,,,,,,,,a,1,0.492945,space,0.402885,0,162,162,143,1,0_targ_4_dist_green/trial19.png,,,0,4,greenverival,a,40,23,Female,2021-03-02_12h13.34.379,exp11,2020.2.6,Win32,60,,,,,,,,,,,
,,,,,,,,,,,,,,p,1,0.594895,space,0.135355,0,163,163,5,1,0_dist_green/trial6.png,,,1,0,greenverival,p,40,23,Female,2021-03-02_12h13.34.379,exp11,2020.2.6,Win32,60,,,,,,,,,,,
,,,,,,,,,,,,,,a,1,0.782635,space,0.1069,0,164,164,182,1,0_targ_16_dist_green/trial8.png,,,0,16,greenverival,a,40,23,Female,2021-03-02_12h13.34.379,exp11,2020.2.6,Win32,60,,,,,,,,,,,
,,,,,,,,,,,,,,p,1,0.534725,space,0.136275,0,165,165,44,1,3_dist_green/trial20.png,,,1,3,greenverival,p,40,23,Female,2021-03-02_12h13.34.379,exp11,2020.2.6,Win32,60,,,,,,,,,,,
,,,,,,,,,,,,,,a,1,0.5536,space,0.215265,0,166,166,118,1,0_targ_1_dist_green/trial19.png,,,0,1,greenverival,a,40,23,Female,2021-03-02_12h13.34.379,exp11,2020.2.6,Win32,60,,,,,,,,,,,
,,,,,,,,,,,,,,p,1,0.60629,space,0.141565,0,167,167,94,1,15_dist_green/trial20.png,,,1,15,greenverival,p,40,23,Female,2021-03-02_12h13.34.379,exp11,2020.2.6,Win32,60,,,,,,,,,,,
,,,,,,,,,,,,,,a,1,0.629925,space,0.155685,0,168,168,190,1,0_targ_16_dist_green/trial16.png,,,0,16,greenverival,a,40,23,Female,2021-03-02_12h13.34.379,exp11,2020.2.6,Win32,60,,,,,,,,,,,
,,,,,,,,,,,,,,p,1,0.538115,space,0.15083,0,169,169,11,1,0_dist_green/trial12.png,,,1,0,greenverival,p,40,23,Female,2021-03-02_12h13.34.379,exp11,2020.2.6,Win32,60,,,,,,,,,,,
,,,,,,,,,,,,,,a,1,0.481865,space,0.109195,0,170,170,161,1,0_targ_10_dist_green/trial12.png,,,0,10,greenverival,a,40,23,Female,2021-03-02_12h13.34.379,exp11,2020.2.6,Win32,60,,,,,,,,,,,
,,,,,,,,,,,,,,a,1,0.65123,space,0.120485,0,171,171,106,1,0_targ_1_dist_green/trial7.png,,,0,1,greenverival,a,40,23,Female,2021-03-02_12h13.34.379,exp11,2020.2.6,Win32,60,,,,,,,,,,,
,,,,,,,,,,,,,,a,1,0.665995,space,0.10768,0,172,172,165,1,0_targ_10_dist_green/trial16.png,,,0,10,greenverival,a,40,23,Female,2021-03-02_12h13.34.379,exp11,2020.2.6,Win32,60,,,,,,,,,,,
,,,,,,,,,,,,,,a,1,0.49075,space,0.10245,0,173,173,129,1,0_targ_4_dist_green/trial5.png,,,0,4,greenverival,a,40,23,Female,2021-03-02_12h13.34.379,exp11,2020.2.6,Win32,60,,,,,,,,,,,
,,,,,,,,,,,,,,p,1,0.646165,space,0.143805,0,174,174,97,1,15_dist_green/trial23.png,,,1,15,greenverival,p,40,23,Female,2021-03-02_12h13.34.379,exp11,2020.2.6,Win32,60,,,,,,,,,,,
,,,,,,,,,,,,,,a,1,0.534275,space,0.121015,0,175,175,136,1,0_targ_4_dist_green/trial12.png,,,0,4,greenverival,a,40,23,Female,2021-03-02_12h13.34.379,exp11,2020.2.6,Win32,60,,,,,,,,,,,
,,,,,,,,,,,,,,p,1,0.66026,space,0.112155,0,176,176,76,1,15_dist_green/trial2.png,,,1,15,greenverival,p,40,23,Female,2021-03-02_12h13.34.379,exp11,2020.2.6,Win32,60,,,,,,,,,,,
,,,,,,,,,,,,,,p,1,0.613275,space,0.13321,0,177,177,83,1,15_dist_green/trial9.png,,,1,15,greenverival,p,40,23,Female,2021-03-02_12h13.34.379,exp11,2020.2.6,Win32,60,,,,,,,,,,,
,,,,,,,,,,,,,,p,1,0.4831,space,0.16908,0,178,178,64,1,9_dist_green/trial15.png,,,1,9,greenverival,p,40,23,Female,2021-03-02_12h13.34.379,exp11,2020.2.6,Win32,60,,,,,,,,,,,
,,,,,,,,,,,,,,p,1,0.504135,space,0.19316,0,179,179,0,1,0_dist_green/trial1.png,,,1,0,greenverival,p,40,23,Female,2021-03-02_12h13.34.379,exp11,2020.2.6,Win32,60,,,,,,,,,,,
,,,,,,,,,,,,,,p,1,0.496985,space,0.20198,0,180,180,81,1,15_dist_green/trial7.png,,,1,15,greenverival,p,40,23,Female,2021-03-02_12h13.34.379,exp11,2020.2.6,Win32,60,,,,,,,,,,,
,,,,,,,,,,,,,,p,1,0.456605,space,0.21549,0,181,181,52,1,9_dist_green/trial3.png,,,1,9,greenverival,p,40,23,Female,2021-03-02_12h13.34.379,exp11,2020.2.6,Win32,60,,,,,,,,,,,
,,,,,,,,,,,,,,a,1,0.64384,space,0.11908,0,182,182,187,1,0_targ_16_dist_green/trial13.png,,,0,16,greenverival,a,40,23,Female,2021-03-02_12h13.34.379,exp11,2020.2.6,Win32,60,,,,,,,,,,,
,,,,,,,,,,,,,,p,1,0.67899,space,0.12763,0,183,183,54,1,9_dist_green/trial5.png,,,1,9,greenverival,p,40,23,Female,2021-03-02_12h13.34.379,exp11,2020.2.6,Win32,60,,,,,,,,,,,
,,,,,,,,,,,,,,a,1,0.64753,space,0.12349,0,184,184,121,1,0_targ_1_dist_green/trial22.png,,,0,1,greenverival,a,40,23,Female,2021-03-02_12h13.34.379,exp11,2020.2.6,Win32,60,,,,,,,,,,,
,,,,,,,,,,,,,,a,1,0.55885,space,0.105465,0,185,185,158,1,0_targ_10_dist_green/trial9.png,,,0,10,greenverival,a,40,23,Female,2021-03-02_12h13.34.379,exp11,2020.2.6,Win32,60,,,,,,,,,,,
,,,,,,,,,,,,,,p,1,0.54869,space,0.120445,0,186,186,42,1,3_dist_green/trial18.png,,,1,3,greenverival,p,40,23,Female,2021-03-02_12h13.34.379,exp11,2020.2.6,Win32,60,,,,,,,,,,,
,,,,,,,,,,,,,,a,1,0.61418,space,0.090435,0,187,187,154,1,0_targ_10_dist_green/trial5.png,,,0,10,greenverival,a,40,23,Female,2021-03-02_12h13.34.379,exp11,2020.2.6,Win32,60,,,,,,,,,,,
,,,,,,,,,,,,,,p,1,0.71624,space,0.133955,0,188,188,79,1,15_dist_green/trial5.png,,,1,15,greenverival,p,40,23,Female,2021-03-02_12h13.34.379,exp11,2020.2.6,Win32,60,,,,,,,,,,,
,,,,,,,,,,,,,,a,1,0.53697,space,0.28262,0,189,189,138,1,0_targ_4_dist_green/trial14.png,,,0,4,greenverival,a,40,23,Female,2021-03-02_12h13.34.379,exp11,2020.2.6,Win32,60,,,,,,,,,,,
,,,,,,,,,,,,,,p,1,0.55837,space,0.13384,0,190,190,34,1,3_dist_green/trial10.png,,,1,3,greenverival,p,40,23,Female,2021-03-02_12h13.34.379,exp11,2020.2.6,Win32,60,,,,,,,,,,,
,,,,,,,,,,,,,,a,1,0.72087,space,0.171475,0,191,191,111,1,0_targ_1_dist_green/trial12.png,,,0,1,greenverival,a,40,23,Female,2021-03-02_12h13.34.379,exp11,2020.2.6,Win32,60,,,,,,,,,,,
,,,,,,,,,,,,,,p,1,0.462345,space,0.15004,0,192,192,62,1,9_dist_green/trial13.png,,,1,9,greenverival,p,40,23,Female,2021-03-02_12h13.34.379,exp11,2020.2.6,Win32,60,,,,,,,,,,,
,,,,,,,,,,,,,,p,1,0.502585,space,0.15721,0,193,193,35,1,3_dist_green/trial11.png,,,1,3,greenverival,p,40,23,Female,2021-03-02_12h13.34.379,exp11,2020.2.6,Win32,60,,,,,,,,,,,
,,,,,,,,,,,,,,a,1,0.575395,space,0.090475,0,194,194,194,1,0_targ_16_dist_green/trial20.png,,,0,16,greenverival,a,40,23,Female,2021-03-02_12h13.34.379,exp11,2020.2.6,Win32,60,,,,,,,,,,,
,,,,,,,,,,,,,,p,1,0.63428,space,0.104325,0,195,195,80,1,15_dist_green/trial6.png,,,1,15,greenverival,p,40,23,Female,2021-03-02_12h13.34.379,exp11,2020.2.6,Win32,60,,,,,,,,,,,
,,,,,,,,,,,,,,a,1,0.582065,space,0.083935,0,196,196,175,1,0_targ_16_dist_green/trial1.png,,,0,16,greenverival,a,40,23,Female,2021-03-02_12h13.34.379,exp11,2020.2.6,Win32,60,,,,,,,,,,,
,,,,,,,,,,,,,,p,1,0.526925,space,0.13287,0,197,197,74,1,9_dist_green/trial25.png,,,1,9,greenverival,p,40,23,Female,2021-03-02_12h13.34.379,exp11,2020.2.6,Win32,60,,,,,,,,,,,
,,,,,,,,,,,,,,p,1,0.562905,space,0.153405,0,198,198,88,1,15_dist_green/trial14.png,,,1,15,greenverival,p,40,23,Female,2021-03-02_12h13.34.379,exp11,2020.2.6,Win32,60,,,,,,,,,,,
,,,,,,,,,,,,,,p,1,0.581225,space,0.121105,0,199,199,12,1,0_dist_green/trial13.png,,,1,0,greenverival,p,40,23,Female,2021-03-02_12h13.34.379,exp11,2020.2.6,Win32,60,,,,,,,,,,,
,,,,,,,,,,,,,,,,,,,,,,,,,,,,,,,40,23,Female,2021-03-02_12h13.34.379,exp11,2020.2.6,Win32,60,0,0,0,0,1,conGreen.xlsx,green vertical,Look for green vertical bar (target) and indicate if it is present or absent in the array. If green vertical target is present press 'p' and if absent press 'a'. Press SPACE to start.,,,
,,,,,,,,,,space,22.358285,space,5.804125,p,1,1.23077,space,0.23987,0,0,0,44,1,3_dist_red/trial20.png,,,1,3,redHorizontal,p,40,23,Female,2021-03-02_12h13.34.379,exp11,2020.2.6,Win32,60,,,,,,,,,,,
,,,,,,,,,,,,,,a,1,0.87072,space,0.155155,0,1,1,159,1,0_targ_10_dist_red/trial10.png,,,0,10,redHorizontal,a,40,23,Female,2021-03-02_12h13.34.379,exp11,2020.2.6,Win32,60,,,,,,,,,,,
,,,,,,,,,,,,,,p,1,0.790655,space,0.191245,0,2,2,89,1,15_dist_red/trial15.png,,,1,15,redHorizontal,p,40,23,Female,2021-03-02_12h13.34.379,exp11,2020.2.6,Win32,60,,,,,,,,,,,
,,,,,,,,,,,,,,a,1,0.73881,space,0.49479,0,3,3,186,1,0_targ_16_dist_red/trial12.png,,,0,16,redHorizontal,a,40,23,Female,2021-03-02_12h13.34.379,exp11,2020.2.6,Win32,60,,,,,,,,,,,
,,,,,,,,,,,,,,a,1,0.731445,space,0.164915,0,4,4,196,1,0_targ_16_dist_red/trial22.png,,,0,16,redHorizontal,a,40,23,Female,2021-03-02_12h13.34.379,exp11,2020.2.6,Win32,60,,,,,,,,,,,
,,,,,,,,,,,,,,p,1,0.732205,space,0.174325,0,5,5,88,1,15_dist_red/trial14.png,,,1,15,redHorizontal,p,40,23,Female,2021-03-02_12h13.34.379,exp11,2020.2.6,Win32,60,,,,,,,,,,,
,,,,,,,,,,,,,,a,1,0.654615,space,0.172325,0,6,6,166,1,0_targ_10_dist_red/trial17.png,,,0,10,redHorizontal,a,40,23,Female,2021-03-02_12h13.34.379,exp11,2020.2.6,Win32,60,,,,,,,,,,,
,,,,,,,,,,,,,,a,0,0.548085,space,0.16473,0,7,7,72,1,9_dist_red/trial23.png,,,1,9,redHorizontal,p,40,23,Female,2021-03-02_12h13.34.379,exp11,2020.2.6,Win32,60,,,,,,,,,,,
,,,,,,,,,,,,,,p,1,0.867225,space,0.166135,0,8,8,31,1,3_dist_red/trial7.png,,,1,3,redHorizontal,p,40,23,Female,2021-03-02_12h13.34.379,exp11,2020.2.6,Win32,60,,,,,,,,,,,
,,,,,,,,,,,,,,a,1,0.70956,space,0.166085,0,9,9,168,1,0_targ_10_dist_red/trial19.png,,,0,10,redHorizontal,a,40,23,Female,2021-03-02_12h13.34.379,exp11,2020.2.6,Win32,60,,,,,,,,,,,
,,,,,,,,,,,,,,a,1,0.547435,space,0.165745,0,10,10,131,1,0_targ_4_dist_red/trial7.png,,,0,4,redHorizontal,a,40,23,Female,2021-03-02_12h13.34.379,exp11,2020.2.6,Win32,60,,,,,,,,,,,
,,,,,,,,,,,,,,a,1,0.63333,space,0.15024,0,11,11,180,1,0_targ_16_dist_red/trial6.png,,,0,16,redHorizontal,a,40,23,Female,2021-03-02_12h13.34.379,exp11,2020.2.6,Win32,60,,,,,,,,,,,
,,,,,,,,,,,,,,a,1,0.54128,space,0.136995,0,12,12,162,1,0_targ_10_dist_red/trial13.png,,,0,10,redHorizontal,a,40,23,Female,2021-03-02_12h13.34.379,exp11,2020.2.6,Win32,60,,,,,,,,,,,
,,,,,,,,,,,,,,p,1,0.54519,space,0.14993,0,13,13,41,1,3_dist_red/trial17.png,,,1,3,redHorizontal,p,40,23,Female,2021-03-02_12h13.34.379,exp11,2020.2.6,Win32,60,,,,,,,,,,,
,,,,,,,,,,,,,,p,1,0.50748,space,0.18797,0,14,14,4,1,0_dist_red/trial5.png,,,1,0,redHorizontal,p,40,23,Female,2021-03-02_12h13.34.379,exp11,2020.2.6,Win32,60,,,,,,,,,,,
,,,,,,,,,,,,,,a,1,0.511085,space,0.155145,0,15,15,128,1,0_targ_4_dist_red/trial4.png,,,0,4,redHorizontal,a,40,23,Female,2021-03-02_12h13.34.379,exp11,2020.2.6,Win32,60,,,,,,,,,,,
,,,,,,,,,,,,,,a,1,0.46053,space,0.15434,0,16,16,109,1,0_targ_1_dist_red/trial10.png,,,0,1,redHorizontal,a,40,23,Female,2021-03-02_12h13.34.379,exp11,2020.2.6,Win32,60,,,,,,,,,,,
,,,,,,,,,,,,,,a,1,0.555875,space,0.134855,0,17,17,173,1,0_targ_10_dist_red/trial24.png,,,0,10,redHorizontal,a,40,23,Female,2021-03-02_12h13.34.379,exp11,2020.2.6,Win32,60,,,,,,,,,,,
,,,,,,,,,,,,,,a,1,1.498515,space,0.221705,0,18,18,188,1,0_targ_16_dist_red/trial14.png,,,0,16,redHorizontal,a,40,23,Female,2021-03-02_12h13.34.379,exp11,2020.2.6,Win32,60,,,,,,,,,,,
,,,,,,,,,,,,,,a,1,0.57247,space,0.13346,0,19,19,150,1,0_targ_10_dist_red/trial1.png,,,0,10,redHorizontal,a,40,23,Female,2021-03-02_12h13.34.379,exp11,2020.2.6,Win32,60,,,,,,,,,,,
,,,,,,,,,,,,,,p,1,0.746885,space,0.15697,0,20,20,87,1,15_dist_red/trial13.png,,,1,15,redHorizontal,p,40,23,Female,2021-03-02_12h13.34.379,exp11,2020.2.6,Win32,60,,,,,,,,,,,
,,,,,,,,,,,,,,a,1,0.57861,space,0.153475,0,21,21,156,1,0_targ_10_dist_red/trial7.png,,,0,10,redHorizontal,a,40,23,Female,2021-03-02_12h13.34.379,exp11,2020.2.6,Win32,60,,,,,,,,,,,
,,,,,,,,,,,,,,p,1,0.608835,space,0.16111,0,22,22,15,1,0_dist_red/trial16.png,,,1,0,redHorizontal,p,40,23,Female,2021-03-02_12h13.34.379,exp11,2020.2.6,Win32,60,,,,,,,,,,,
,,,,,,,,,,,,,,a,0,0.530875,space,1.057855,0,23,23,79,1,15_dist_red/trial5.png,,,1,15,redHorizontal,p,40,23,Female,2021-03-02_12h13.34.379,exp11,2020.2.6,Win32,60,,,,,,,,,,,
,,,,,,,,,,,,,,p,1,0.811715,space,0.149305,0,24,24,81,1,15_dist_red/trial7.png,,,1,15,redHorizontal,p,40,23,Female,2021-03-02_12h13.34.379,exp11,2020.2.6,Win32,60,,,,,,,,,,,
,,,,,,,,,,,,,,a,1,0.62008,space,0.205545,0,25,25,102,1,0_targ_1_dist_red/trial3.png,,,0,1,redHorizontal,a,40,23,Female,2021-03-02_12h13.34.379,exp11,2020.2.6,Win32,60,,,,,,,,,,,
,,,,,,,,,,,,,,a,1,0.476205,space,0.179405,0,26,26,111,1,0_targ_1_dist_red/trial12.png,,,0,1,redHorizontal,a,40,23,Female,2021-03-02_12h13.34.379,exp11,2020.2.6,Win32,60,,,,,,,,,,,
,,,,,,,,,,,,,,a,0,0.776925,space,3.52574,0,27,27,95,1,15_dist_red/trial21.png,,,1,15,redHorizontal,p,40,23,Female,2021-03-02_12h13.34.379,exp11,2020.2.6,Win32,60,,,,,,,,,,,
,,,,,,,,,,,,,,p,1,1.183925,space,0.211555,0,28,28,21,1,0_dist_red/trial22.png,,,1,0,redHorizontal,p,40,23,Female,2021-03-02_12h13.34.379,exp11,2020.2.6,Win32,60,,,,,,,,,,,
,,,,,,,,,,,,,,a,1,0.81672,space,0.1171,0,29,29,137,1,0_targ_4_dist_red/trial13.png,,,0,4,redHorizontal,a,40,23,Female,2021-03-02_12h13.34.379,exp11,2020.2.6,Win32,60,,,,,,,,,,,
,,,,,,,,,,,,,,a,1,0.727165,space,0.117935,0,30,30,157,1,0_targ_10_dist_red/trial8.png,,,0,10,redHorizontal,a,40,23,Female,2021-03-02_12h13.34.379,exp11,2020.2.6,Win32,60,,,,,,,,,,,
,,,,,,,,,,,,,,p,1,1.062655,space,0.149035,0,31,31,73,1,9_dist_red/trial24.png,,,1,9,redHorizontal,p,40,23,Female,2021-03-02_12h13.34.379,exp11,2020.2.6,Win32,60,,,,,,,,,,,
,,,,,,,,,,,,,,p,1,1.65972,space,0.13061,0,32,32,14,1,0_dist_red/trial15.png,,,1,0,redHorizontal,p,40,23,Female,2021-03-02_12h13.34.379,exp11,2020.2.6,Win32,60,,,,,,,,,,,
,,,,,,,,,,,,,,a,1,0.68977,space,0.302,0,33,33,177,1,0_targ_16_dist_red/trial3.png,,,0,16,redHorizontal,a,40,23,Female,2021-03-02_12h13.34.379,exp11,2020.2.6,Win32,60,,,,,,,,,,,
,,,,,,,,,,,,,,a,1,1.72907,space,0.254015,0,34,34,110,1,0_targ_1_dist_red/trial11.png,,,0,1,redHorizontal,a,40,23,Female,2021-03-02_12h13.34.379,exp11,2020.2.6,Win32,60,,,,,,,,,,,
,,,,,,,,,,,,,,a,1,0.79108,space,0.156885,0,35,35,119,1,0_targ_1_dist_red/trial20.png,,,0,1,redHorizontal,a,40,23,Female,2021-03-02_12h13.34.379,exp11,2020.2.6,Win32,60,,,,,,,,,,,
,,,,,,,,,,,,,,a,1,0.90979,space,0.05638,0,36,36,133,1,0_targ_4_dist_red/trial9.png,,,0,4,redHorizontal,a,40,23,Female,2021-03-02_12h13.34.379,exp11,2020.2.6,Win32,60,,,,,,,,,,,
,,,,,,,,,,,,,,p,1,0.673885,space,0.134725,0,37,37,49,1,3_dist_red/trial25.png,,,1,3,redHorizontal,p,40,23,Female,2021-03-02_12h13.34.379,exp11,2020.2.6,Win32,60,,,,,,,,,,,
,,,,,,,,,,,,,,p,1,0.474585,space,0.138725,0,38,38,36,1,3_dist_red/trial12.png,,,1,3,redHorizontal,p,40,23,Female,2021-03-02_12h13.34.379,exp11,2020.2.6,Win32,60,,,,,,,,,,,
,,,,,,,,,,,,,,a,1,0.61892,space,0.149795,0,39,39,190,1,0_targ_16_dist_red/trial16.png,,,0,16,redHorizontal,a,40,23,Female,2021-03-02_12h13.34.379,exp11,2020.2.6,Win32,60,,,,,,,,,,,
,,,,,,,,,,,,,,a,1,0.647755,space,0.105925,0,40,40,120,1,0_targ_1_dist_red/trial21.png,,,0,1,redHorizontal,a,40,23,Female,2021-03-02_12h13.34.379,exp11,2020.2.6,Win32,60,,,,,,,,,,,
,,,,,,,,,,,,,,p,1,1.153835,space,0.17106,0,41,41,80,1,15_dist_red/trial6.png,,,1,15,redHorizontal,p,40,23,Female,2021-03-02_12h13.34.379,exp11,2020.2.6,Win32,60,,,,,,,,,,,
,,,,,,,,,,,,,,p,1,0.42184,space,0.134025,0,42,42,86,1,15_dist_red/trial12.png,,,1,15,redHorizontal,p,40,23,Female,2021-03-02_12h13.34.379,exp11,2020.2.6,Win32,60,,,,,,,,,,,
,,,,,,,,,,,,,,a,1,0.57695,space,0.12439,0,43,43,178,1,0_targ_16_dist_red/trial4.png,,,0,16,redHorizontal,a,40,23,Female,2021-03-02_12h13.34.379,exp11,2020.2.6,Win32,60,,,,,,,,,,,
,,,,,,,,,,,,,,p,1,0.6105,space,0.123045,0,44,44,40,1,3_dist_red/trial16.png,,,1,3,redHorizontal,p,40,23,Female,2021-03-02_12h13.34.379,exp11,2020.2.6,Win32,60,,,,,,,,,,,
,,,,,,,,,,,,,,p,1,0.56021,space,0.15103,0,45,45,13,1,0_dist_red/trial14.png,,,1,0,redHorizontal,p,40,23,Female,2021-03-02_12h13.34.379,exp11,2020.2.6,Win32,60,,,,,,,,,,,
,,,,,,,,,,,,,,a,1,0.57601,space,0.18526,0,46,46,142,1,0_targ_4_dist_red/trial18.png,,,0,4,redHorizontal,a,40,23,Female,2021-03-02_12h13.34.379,exp11,2020.2.6,Win32,60,,,,,,,,,,,
,,,,,,,,,,,,,,a,1,0.785115,space,0.100835,0,47,47,151,1,0_targ_10_dist_red/trial2.png,,,0,10,redHorizontal,a,40,23,Female,2021-03-02_12h13.34.379,exp11,2020.2.6,Win32,60,,,,,,,,,,,
,,,,,,,,,,,,,,p,1,0.874625,space,0.103765,0,48,48,69,1,9_dist_red/trial20.png,,,1,9,redHorizontal,p,40,23,Female,2021-03-02_12h13.34.379,exp11,2020.2.6,Win32,60,,,,,,,,,,,
,,,,,,,,,,,,,,a,1,0.658915,space,0.08628,0,49,49,172,1,0_targ_10_dist_red/trial23.png,,,0,10,redHorizontal,a,40,23,Female,2021-03-02_12h13.34.379,exp11,2020.2.6,Win32,60,,,,,,,,,,,
,,,,,,,,,,,,,,a,1,0.61354,space,0.09329,0,50,50,165,1,0_targ_10_dist_red/trial16.png,,,0,10,redHorizontal,a,40,23,Female,2021-03-02_12h13.34.379,exp11,2020.2.6,Win32,60,,,,,,,,,,,
,,,,,,,,,,,,,,p,1,0.77303,space,0.11448,0,51,51,98,1,15_dist_red/trial24.png,,,1,15,redHorizontal,p,40,23,Female,2021-03-02_12h13.34.379,exp11,2020.2.6,Win32,60,,,,,,,,,,,
,,,,,,,,,,,,,,a,1,0.605115,space,0.052045,0,52,52,155,1,0_targ_10_dist_red/trial6.png,,,0,10,redHorizontal,a,40,23,Female,2021-03-02_12h13.34.379,exp11,2020.2.6,Win32,60,,,,,,,,,,,
,,,,,,,,,,,,,,a,1,0.73038,space,0.00082,0,53,53,164,1,0_targ_10_dist_red/trial15.png,,,0,10,redHorizontal,a,40,23,Female,2021-03-02_12h13.34.379,exp11,2020.2.6,Win32,60,,,,,,,,,,,
,,,,,,,,,,,,,,p,1,0.612185,space,0.087595,0,54,54,91,1,15_dist_red/trial17.png,,,1,15,redHorizontal,p,40,23,Female,2021-03-02_12h13.34.379,exp11,2020.2.6,Win32,60,,,,,,,,,,,
,,,,,,,,,,,,,,a,1,0.98559,space,1.67221,0,55,55,145,1,0_targ_4_dist_red/trial21.png,,,0,4,redHorizontal,a,40,23,Female,2021-03-02_12h13.34.379,exp11,2020.2.6,Win32,60,,,,,,,,,,,
,,,,,,,,,,,,,,p,1,0.78995,space,0.00731,0,56,56,60,1,9_dist_red/trial11.png,,,1,9,redHorizontal,p,40,23,Female,2021-03-02_12h13.34.379,exp11,2020.2.6,Win32,60,,,,,,,,,,,
,,,,,,,,,,,,,,p,1,0.74002,space,0.12238,0,57,57,61,1,9_dist_red/trial12.png,,,1,9,redHorizontal,p,40,23,Female,2021-03-02_12h13.34.379,exp11,2020.2.6,Win32,60,,,,,,,,,,,
,,,,,,,,,,,,,,p,1,0.48451,space,0.235715,0,58,58,42,1,3_dist_red/trial18.png,,,1,3,redHorizontal,p,40,23,Female,2021-03-02_12h13.34.379,exp11,2020.2.6,Win32,60,,,,,,,,,,,
,,,,,,,,,,,,,,a,1,0.465255,space,0.136715,0,59,59,117,1,0_targ_1_dist_red/trial18.png,,,0,1,redHorizontal,a,40,23,Female,2021-03-02_12h13.34.379,exp11,2020.2.6,Win32,60,,,,,,,,,,,
,,,,,,,,,,,,,,a,1,1.054415,space,0.1329,0,60,60,193,1,0_targ_16_dist_red/trial19.png,,,0,16,redHorizontal,a,40,23,Female,2021-03-02_12h13.34.379,exp11,2020.2.6,Win32,60,,,,,,,,,,,
,,,,,,,,,,,,,,p,1,0.558005,space,0.155245,0,61,61,18,1,0_dist_red/trial19.png,,,1,0,redHorizontal,p,40,23,Female,2021-03-02_12h13.34.379,exp11,2020.2.6,Win32,60,,,,,,,,,,,
,,,,,,,,,,,,,,p,1,0.583355,space,0.355165,0,62,62,27,1,3_dist_red/trial3.png,,,1,3,redHorizontal,p,40,23,Female,2021-03-02_12h13.34.379,exp11,2020.2.6,Win32,60,,,,,,,,,,,
,,,,,,,,,,,,,,p,1,0.47451,space,0.16588,0,63,63,25,1,3_dist_red/trial1.png,,,1,3,redHorizontal,p,40,23,Female,2021-03-02_12h13.34.379,exp11,2020.2.6,Win32,60,,,,,,,,,,,
,,,,,,,,,,,,,,p,1,0.48429,space,0.114905,0,64,64,56,1,9_dist_red/trial7.png,,,1,9,redHorizontal,p,40,23,Female,2021-03-02_12h13.34.379,exp11,2020.2.6,Win32,60,,,,,,,,,,,
,,,,,,,,,,,,,,a,1,0.40909,space,0.14952,0,65,65,112,1,0_targ_1_dist_red/trial13.png,,,0,1,redHorizontal,a,40,23,Female,2021-03-02_12h13.34.379,exp11,2020.2.6,Win32,60,,,,,,,,,,,
,,,,,,,,,,,,,,a,0,0.448975,space,0.00656,0,66,66,2,1,0_dist_red/trial3.png,,,1,0,redHorizontal,p,40,23,Female,2021-03-02_12h13.34.379,exp11,2020.2.6,Win32,60,,,,,,,,,,,
,,,,,,,,,,,,,,p,1,0.802805,space,0.11652,0,67,67,74,1,9_dist_red/trial25.png,,,1,9,redHorizontal,p,40,23,Female,2021-03-02_12h13.34.379,exp11,2020.2.6,Win32,60,,,,,,,,,,,
,,,,,,,,,,,,,,p,1,1.407795,space,0.151145,0,68,68,84,1,15_dist_red/trial10.png,,,1,15,redHorizontal,p,40,23,Female,2021-03-02_12h13.34.379,exp11,2020.2.6,Win32,60,,,,,,,,,,,
,,,,,,,,,,,,,,a,1,0.912835,space,0.089855,0,69,69,161,1,0_targ_10_dist_red/trial12.png,,,0,10,redHorizontal,a,40,23,Female,2021-03-02_12h13.34.379,exp11,2020.2.6,Win32,60,,,,,,,,,,,
,,,,,,,,,,,,,,p,1,0.67282,space,0.137565,0,70,70,52,1,9_dist_red/trial3.png,,,1,9,redHorizontal,p,40,23,Female,2021-03-02_12h13.34.379,exp11,2020.2.6,Win32,60,,,,,,,,,,,
,,,,,,,,,,,,,,a,1,0.9329,space,0.08643,0,71,71,179,1,0_targ_16_dist_red/trial5.png,,,0,16,redHorizontal,a,40,23,Female,2021-03-02_12h13.34.379,exp11,2020.2.6,Win32,60,,,,,,,,,,,
,,,,,,,,,,,,,,p,1,0.64541,space,0.08556,0,72,72,37,1,3_dist_red/trial13.png,,,1,3,redHorizontal,p,40,23,Female,2021-03-02_12h13.34.379,exp11,2020.2.6,Win32,60,,,,,,,,,,,
,,,,,,,,,,,,,,a,1,0.60201,space,0.056695,0,73,73,160,1,0_targ_10_dist_red/trial11.png,,,0,10,redHorizontal,a,40,23,Female,2021-03-02_12h13.34.379,exp11,2020.2.6,Win32,60,,,,,,,,,,,
,,,,,,,,,,,,,,a,1,0.82161,space,1.4506,0,74,74,138,1,0_targ_4_dist_red/trial14.png,,,0,4,redHorizontal,a,40,23,Female,2021-03-02_12h13.34.379,exp11,2020.2.6,Win32,60,,,,,,,,,,,
,,,,,,,,,,,,,,a,1,1.035815,space,0.03153,0,75,75,167,1,0_targ_10_dist_red/trial18.png,,,0,10,redHorizontal,a,40,23,Female,2021-03-02_12h13.34.379,exp11,2020.2.6,Win32,60,,,,,,,,,,,
,,,,,,,,,,,,,,a,1,0.84018,space,0.57076,0,76,76,197,1,0_targ_16_dist_red/trial23.png,,,0,16,redHorizontal,a,40,23,Female,2021-03-02_12h13.34.379,exp11,2020.2.6,Win32,60,,,,,,,,,,,
,,,,,,,,,,,,,,p,1,0.56406,space,0.09766,0,77,77,62,1,9_dist_red/trial13.png,,,1,9,redHorizontal,p,40,23,Female,2021-03-02_12h13.34.379,exp11,2020.2.6,Win32,60,,,,,,,,,,,
,,,,,,,,,,,,,,p,1,0.505655,space,0.120335,0,78,78,11,1,0_dist_red/trial12.png,,,1,0,redHorizontal,p,40,23,Female,2021-03-02_12h13.34.379,exp11,2020.2.6,Win32,60,,,,,,,,,,,
,,,,,,,,,,,,,,a,1,0.70044,space,0.15,0,79,79,199,1,0_targ_16_dist_red/trial25.png,,,0,16,redHorizontal,a,40,23,Female,2021-03-02_12h13.34.379,exp11,2020.2.6,Win32,60,,,,,,,,,,,
,,,,,,,,,,,,,,p,1,0.79921,space,0.118455,0,80,80,94,1,15_dist_red/trial20.png,,,1,15,redHorizontal,p,40,23,Female,2021-03-02_12h13.34.379,exp11,2020.2.6,Win32,60,,,,,,,,,,,
,,,,,,,,,,,,,,p,1,0.61249,space,0.155885,0,81,81,71,1,9_dist_red/trial22.png,,,1,9,redHorizontal,p,40,23,Female,2021-03-02_12h13.34.379,exp11,2020.2.6,Win32,60,,,,,,,,,,,
,,,,,,,,,,,,,,a,1,0.625195,space,0.122,0,82,82,195,1,0_targ_16_dist_red/trial21.png,,,0,16,redHorizontal,a,40,23,Female,2021-03-02_12h13.34.379,exp11,2020.2.6,Win32,60,,,,,,,,,,,
,,,,,,,,,,,,,,a,1,0.619195,space,0.118865,0,83,83,130,1,0_targ_4_dist_red/trial6.png,,,0,4,redHorizontal,a,40,23,Female,2021-03-02_12h13.34.379,exp11,2020.2.6,Win32,60,,,,,,,,,,,
,,,,,,,,,,,,,,p,1,0.46608,space,0.13271,0,84,84,46,1,3_dist_red/trial22.png,,,1,3,redHorizontal,p,40,23,Female,2021-03-02_12h13.34.379,exp11,2020.2.6,Win32,60,,,,,,,,,,,
,,,,,,,,,,,,,,a,1,0.59675,space,0.11771,0,85,85,149,1,0_targ_4_dist_red/trial25.png,,,0,4,redHorizontal,a,40,23,Female,2021-03-02_12h13.34.379,exp11,2020.2.6,Win32,60,,,,,,,,,,,
,,,,,,,,,,,,,,a,1,0.579435,space,0.13601,0,86,86,104,1,0_targ_1_dist_red/trial5.png,,,0,1,redHorizontal,a,40,23,Female,2021-03-02_12h13.34.379,exp11,2020.2.6,Win32,60,,,,,,,,,,,
,,,,,,,,,,,,,,a,1,0.43523,space,0.127705,0,87,87,108,1,0_targ_1_dist_red/trial9.png,,,0,1,redHorizontal,a,40,23,Female,2021-03-02_12h13.34.379,exp11,2020.2.6,Win32,60,,,,,,,,,,,
,,,,,,,,,,,,,,a,1,0.57456,space,0.152715,0,88,88,189,1,0_targ_16_dist_red/trial15.png,,,0,16,redHorizontal,a,40,23,Female,2021-03-02_12h13.34.379,exp11,2020.2.6,Win32,60,,,,,,,,,,,
,,,,,,,,,,,,,,a,1,0.579105,space,0.11978,0,89,89,184,1,0_targ_16_dist_red/trial10.png,,,0,16,redHorizontal,a,40,23,Female,2021-03-02_12h13.34.379,exp11,2020.2.6,Win32,60,,,,,,,,,,,
,,,,,,,,,,,,,,p,1,0.44416,space,0.14662,0,90,90,51,1,9_dist_red/trial2.png,,,1,9,redHorizontal,p,40,23,Female,2021-03-02_12h13.34.379,exp11,2020.2.6,Win32,60,,,,,,,,,,,
,,,,,,,,,,,,,,a,1,0.58556,space,0.13447,0,91,91,198,1,0_targ_16_dist_red/trial24.png,,,0,16,redHorizontal,a,40,23,Female,2021-03-02_12h13.34.379,exp11,2020.2.6,Win32,60,,,,,,,,,,,
,,,,,,,,,,,,,,p,1,0.564175,space,0.115355,0,92,92,76,1,15_dist_red/trial2.png,,,1,15,redHorizontal,p,40,23,Female,2021-03-02_12h13.34.379,exp11,2020.2.6,Win32,60,,,,,,,,,,,
,,,,,,,,,,,,,,p,1,0.65223,space,0.120075,0,93,93,77,1,15_dist_red/trial3.png,,,1,15,redHorizontal,p,40,23,Female,2021-03-02_12h13.34.379,exp11,2020.2.6,Win32,60,,,,,,,,,,,
,,,,,,,,,,,,,,p,1,0.65634,space,0.11392,0,94,94,22,1,0_dist_red/trial23.png,,,1,0,redHorizontal,p,40,23,Female,2021-03-02_12h13.34.379,exp11,2020.2.6,Win32,60,,,,,,,,,,,
,,,,,,,,,,,,,,p,1,0.679965,space,0.04293,0,95,95,70,1,9_dist_red/trial21.png,,,1,9,redHorizontal,p,40,23,Female,2021-03-02_12h13.34.379,exp11,2020.2.6,Win32,60,,,,,,,,,,,
,,,,,,,,,,,,,,p,1,0.62764,space,0.054145,0,96,96,97,1,15_dist_red/trial23.png,,,1,15,redHorizontal,p,40,23,Female,2021-03-02_12h13.34.379,exp11,2020.2.6,Win32,60,,,,,,,,,,,
,,,,,,,,,,,,,,p,1,0.81378,space,0.10306,0,97,97,92,1,15_dist_red/trial18.png,,,1,15,redHorizontal,p,40,23,Female,2021-03-02_12h13.34.379,exp11,2020.2.6,Win32,60,,,,,,,,,,,
,,,,,,,,,,,,,,p,1,0.49868,space,0.123675,0,98,98,35,1,3_dist_red/trial11.png,,,1,3,redHorizontal,p,40,23,Female,2021-03-02_12h13.34.379,exp11,2020.2.6,Win32,60,,,,,,,,,,,
,,,,,,,,,,,,,,p,1,0.900465,space,0.15193,0,99,99,54,1,9_dist_red/trial5.png,,,1,9,redHorizontal,p,40,23,Female,2021-03-02_12h13.34.379,exp11,2020.2.6,Win32,60,,,,,,,,,,,
,,,,,,,,,,,,,,a,1,1.045555,space,0.154555,0,100,100,101,1,0_targ_1_dist_red/trial2.png,,,0,1,redHorizontal,a,40,23,Female,2021-03-02_12h13.34.379,exp11,2020.2.6,Win32,60,,,,,,,,,,,
,,,,,,,,,,,,,,p,1,0.628755,space,0.13503,0,101,101,6,1,0_dist_red/trial7.png,,,1,0,redHorizontal,p,40,23,Female,2021-03-02_12h13.34.379,exp11,2020.2.6,Win32,60,,,,,,,,,,,
,,,,,,,,,,,,,,p,1,0.61462,space,0.20788,0,102,102,99,1,15_dist_red/trial25.png,,,1,15,redHorizontal,p,40,23,Female,2021-03-02_12h13.34.379,exp11,2020.2.6,Win32,60,,,,,,,,,,,
,,,,,,,,,,,,,,p,1,0.66477,space,0.142555,0,103,103,55,1,9_dist_red/trial6.png,,,1,9,redHorizontal,p,40,23,Female,2021-03-02_12h13.34.379,exp11,2020.2.6,Win32,60,,,,,,,,,,,
,,,,,,,,,,,,,,p,1,0.63587,space,0.13755,0,104,104,29,1,3_dist_red/trial5.png,,,1,3,redHorizontal,p,40,23,Female,2021-03-02_12h13.34.379,exp11,2020.2.6,Win32,60,,,,,,,,,,,
,,,,,,,,,,,,,,p,1,0.468675,space,0.137835,0,105,105,93,1,15_dist_red/trial19.png,,,1,15,redHorizontal,p,40,23,Female,2021-03-02_12h13.34.379,exp11,2020.2.6,Win32,60,,,,,,,,,,,
,,,,,,,,,,,,,,p,1,0.53318,space,0.1599,0,106,106,57,1,9_dist_red/trial8.png,,,1,9,redHorizontal,p,40,23,Female,2021-03-02_12h13.34.379,exp11,2020.2.6,Win32,60,,,,,,,,,,,
,,,,,,,,,,,,,,a,1,0.59467,space,0.137405,0,107,107,181,1,0_targ_16_dist_red/trial7.png,,,0,16,redHorizontal,a,40,23,Female,2021-03-02_12h13.34.379,exp11,2020.2.6,Win32,60,,,,,,,,,,,
,,,,,,,,,,,,,,a,1,0.81499,space,0.087905,0,108,108,106,1,0_targ_1_dist_red/trial7.png,,,0,1,redHorizontal,a,40,23,Female,2021-03-02_12h13.34.379,exp11,2020.2.6,Win32,60,,,,,,,,,,,
,,,,,,,,,,,,,,a,1,0.526655,space,0.122375,0,109,109,170,1,0_targ_10_dist_red/trial21.png,,,0,10,redHorizontal,a,40,23,Female,2021-03-02_12h13.34.379,exp11,2020.2.6,Win32,60,,,,,,,,,,,
,,,,,,,,,,,,,,a,1,0.652255,space,0.117565,0,110,110,175,1,0_targ_16_dist_red/trial1.png,,,0,16,redHorizontal,a,40,23,Female,2021-03-02_12h13.34.379,exp11,2020.2.6,Win32,60,,,,,,,,,,,
,,,,,,,,,,,,,,p,1,0.51425,space,0.106315,0,111,111,20,1,0_dist_red/trial21.png,,,1,0,redHorizontal,p,40,23,Female,2021-03-02_12h13.34.379,exp11,2020.2.6,Win32,60,,,,,,,,,,,
,,,,,,,,,,,,,,a,1,0.69823,space,0.10217,0,112,112,121,1,0_targ_1_dist_red/trial22.png,,,0,1,redHorizontal,a,40,23,Female,2021-03-02_12h13.34.379,exp11,2020.2.6,Win32,60,,,,,,,,,,,
,,,,,,,,,,,,,,p,1,0.611785,space,0.132005,0,113,113,65,1,9_dist_red/trial16.png,,,1,9,redHorizontal,p,40,23,Female,2021-03-02_12h13.34.379,exp11,2020.2.6,Win32,60,,,,,,,,,,,
,,,,,,,,,,,,,,p,1,0.98349,space,0.1224,0,114,114,59,1,9_dist_red/trial10.png,,,1,9,redHorizontal,p,40,23,Female,2021-03-02_12h13.34.379,exp11,2020.2.6,Win32,60,,,,,,,,,,,
,,,,,,,,,,,,,,a,1,0.52024,space,0.134125,0,115,115,105,1,0_targ_1_dist_red/trial6.png,,,0,1,redHorizontal,a,40,23,Female,2021-03-02_12h13.34.379,exp11,2020.2.6,Win32,60,,,,,,,,,,,
,,,,,,,,,,,,,,p,1,0.6126,space,0.121435,0,116,116,17,1,0_dist_red/trial18.png,,,1,0,redHorizontal,p,40,23,Female,2021-03-02_12h13.34.379,exp11,2020.2.6,Win32,60,,,,,,,,,,,
,,,,,,,,,,,,,,a,1,0.6633,space,0.13754,0,117,117,183,1,0_targ_16_dist_red/trial9.png,,,0,16,redHorizontal,a,40,23,Female,2021-03-02_12h13.34.379,exp11,2020.2.6,Win32,60,,,,,,,,,,,
,,,,,,,,,,,,,,p,1,0.90608,space,0.77938,0,118,118,90,1,15_dist_red/trial16.png,,,1,15,redHorizontal,p,40,23,Female,2021-03-02_12h13.34.379,exp11,2020.2.6,Win32,60,,,,,,,,,,,
,,,,,,,,,,,,,,a,1,0.84713,space,0.13808,0,119,119,191,1,0_targ_16_dist_red/trial17.png,,,0,16,redHorizontal,a,40,23,Female,2021-03-02_12h13.34.379,exp11,2020.2.6,Win32,60,,,,,,,,,,,
,,,,,,,,,,,,,,a,1,0.831395,space,0.122575,0,120,120,123,1,0_targ_1_dist_red/trial24.png,,,0,1,redHorizontal,a,40,23,Female,2021-03-02_12h13.34.379,exp11,2020.2.6,Win32,60,,,,,,,,,,,
,,,,,,,,,,,,,,a,1,0.633195,space,0.139385,0,121,121,194,1,0_targ_16_dist_red/trial20.png,,,0,16,redHorizontal,a,40,23,Female,2021-03-02_12h13.34.379,exp11,2020.2.6,Win32,60,,,,,,,,,,,
,,,,,,,,,,,,,,a,1,0.60815,space,0.106855,0,122,122,187,1,0_targ_16_dist_red/trial13.png,,,0,16,redHorizontal,a,40,23,Female,2021-03-02_12h13.34.379,exp11,2020.2.6,Win32,60,,,,,,,,,,,
,,,,,,,,,,,,,,a,1,0.642125,space,0.12009,0,123,123,134,1,0_targ_4_dist_red/trial10.png,,,0,4,redHorizontal,a,40,23,Female,2021-03-02_12h13.34.379,exp11,2020.2.6,Win32,60,,,,,,,,,,,
,,,,,,,,,,,,,,p,1,0.62761,space,0.168965,0,124,124,83,1,15_dist_red/trial9.png,,,1,15,redHorizontal,p,40,23,Female,2021-03-02_12h13.34.379,exp11,2020.2.6,Win32,60,,,,,,,,,,,
,,,,,,,,,,,,,,p,1,0.737185,space,0.15298,0,125,125,23,1,0_dist_red/trial24.png,,,1,0,redHorizontal,p,40,23,Female,2021-03-02_12h13.34.379,exp11,2020.2.6,Win32,60,,,,,,,,,,,
,,,,,,,,,,,,,,a,1,0.601,space,0.09646,0,126,126,169,1,0_targ_10_dist_red/trial20.png,,,0,10,redHorizontal,a,40,23,Female,2021-03-02_12h13.34.379,exp11,2020.2.6,Win32,60,,,,,,,,,,,
,,,,,,,,,,,,,,a,1,0.510215,space,0.086795,0,127,127,147,1,0_targ_4_dist_red/trial23.png,,,0,4,redHorizontal,a,40,23,Female,2021-03-02_12h13.34.379,exp11,2020.2.6,Win32,60,,,,,,,,,,,
,,,,,,,,,,,,,,a,1,0.46542,space,0.121235,0,128,128,103,1,0_targ_1_dist_red/trial4.png,,,0,1,redHorizontal,a,40,23,Female,2021-03-02_12h13.34.379,exp11,2020.2.6,Win32,60,,,,,,,,,,,
,,,,,,,,,,,,,,a,1,0.59297,space,0.12199,0,129,129,114,1,0_targ_1_dist_red/trial15.png,,,0,1,redHorizontal,a,40,23,Female,2021-03-02_12h13.34.379,exp11,2020.2.6,Win32,60,,,,,,,,,,,
,,,,,,,,,,,,,,p,1,0.59378,space,0.117515,0,130,130,48,1,3_dist_red/trial24.png,,,1,3,redHorizontal,p,40,23,Female,2021-03-02_12h13.34.379,exp11,2020.2.6,Win32,60,,,,,,,,,,,
,,,,,,,,,,,,,,a,1,0.52894,space,0.07456,0,131,131,171,1,0_targ_10_dist_red/trial22.png,,,0,10,redHorizontal,a,40,23,Female,2021-03-02_12h13.34.379,exp11,2020.2.6,Win32,60,,,,,,,,,,,
,,,,,,,,,,,,,,p,1,0.58059,space,0.119845,0,132,132,30,1,3_dist_red/trial6.png,,,1,3,redHorizontal,p,40,23,Female,2021-03-02_12h13.34.379,exp11,2020.2.6,Win32,60,,,,,,,,,,,
,,,,,,,,,,,,,,p,1,0.615475,space,0.13485,0,133,133,63,1,9_dist_red/trial14.png,,,1,9,redHorizontal,p,40,23,Female,2021-03-02_12h13.34.379,exp11,2020.2.6,Win32,60,,,,,,,,,,,
,,,,,,,,,,,,,,a,1,0.78687,space,0.119975,0,134,134,185,1,0_targ_16_dist_red/trial11.png,,,0,16,redHorizontal,a,40,23,Female,2021-03-02_12h13.34.379,exp11,2020.2.6,Win32,60,,,,,,,,,,,
,,,,,,,,,,,,,,p,1,0.551685,space,0.13707,0,135,135,45,1,3_dist_red/trial21.png,,,1,3,redHorizontal,p,40,23,Female,2021-03-02_12h13.34.379,exp11,2020.2.6,Win32,60,,,,,,,,,,,
,,,,,,,,,,,,,,p,1,0.939775,space,0.151715,0,136,136,19,1,0_dist_red/trial20.png,,,1,0,redHorizontal,p,40,23,Female,2021-03-02_12h13.34.379,exp11,2020.2.6,Win32,60,,,,,,,,,,,
,,,,,,,,,,,,,,p,1,0.68947,space,0.17047,0,137,137,66,1,9_dist_red/trial17.png,,,1,9,redHorizontal,p,40,23,Female,2021-03-02_12h13.34.379,exp11,2020.2.6,Win32,60,,,,,,,,,,,
,,,,,,,,,,,,,,a,1,0.57617,space,0.087325,0,138,138,116,1,0_targ_1_dist_red/trial17.png,,,0,1,redHorizontal,a,40,23,Female,2021-03-02_12h13.34.379,exp11,2020.2.6,Win32,60,,,,,,,,,,,
,,,,,,,,,,,,,,p,1,0.563775,space,0.122925,0,139,139,78,1,15_dist_red/trial4.png,,,1,15,redHorizontal,p,40,23,Female,2021-03-02_12h13.34.379,exp11,2020.2.6,Win32,60,,,,,,,,,,,
,,,,,,,,,,,,,,a,1,0.614175,space,0.117025,0,140,140,140,1,0_targ_4_dist_red/trial6.png,,,0,4,redHorizontal,a,40,23,Female,2021-03-02_12h13.34.379,exp11,2020.2.6,Win32,60,,,,,,,,,,,
,,,,,,,,,,,,,,a,1,0.67252,space,0.10456,0,141,141,163,1,0_targ_10_dist_red/trial14.png,,,0,10,redHorizontal,a,40,23,Female,2021-03-02_12h13.34.379,exp11,2020.2.6,Win32,60,,,,,,,,,,,
,,,,,,,,,,,,,,p,1,0.76216,space,0.148575,0,142,142,64,1,9_dist_red/trial15.png,,,1,9,redHorizontal,p,40,23,Female,2021-03-02_12h13.34.379,exp11,2020.2.6,Win32,60,,,,,,,,,,,
,,,,,,,,,,,,,,a,1,0.509995,space,0.154465,0,143,143,122,1,0_targ_1_dist_red/trial23.png,,,0,1,redHorizontal,a,40,23,Female,2021-03-02_12h13.34.379,exp11,2020.2.6,Win32,60,,,,,,,,,,,
,,,,,,,,,,,,,,p,1,0.519225,space,0.154465,0,144,144,47,1,3_dist_red/trial23.png,,,1,3,redHorizontal,p,40,23,Female,2021-03-02_12h13.34.379,exp11,2020.2.6,Win32,60,,,,,,,,,,,
,,,,,,,,,,,,,,a,1,0.60125,space,0.07983,0,145,145,141,1,0_targ_4_dist_red/trial17.png,,,0,4,redHorizontal,a,40,23,Female,2021-03-02_12h13.34.379,exp11,2020.2.6,Win32,60,,,,,,,,,,,
,,,,,,,,,,,,,,p,1,0.58455,space,0.170795,0,146,146,82,1,15_dist_red/trial8.png,,,1,15,redHorizontal,p,40,23,Female,2021-03-02_12h13.34.379,exp11,2020.2.6,Win32,60,,,,,,,,,,,
,,,,,,,,,,,,,,a,1,0.47804,space,0.11888,0,147,147,124,1,0_targ_1_dist_red/trial25.png,,,0,1,redHorizontal,a,40,23,Female,2021-03-02_12h13.34.379,exp11,2020.2.6,Win32,60,,,,,,,,,,,
,,,,,,,,,,,,,,a,1,0.599505,space,0.068625,0,148,148,126,1,0_targ_4_dist_red/trial2.png,,,0,4,redHorizontal,a,40,23,Female,2021-03-02_12h13.34.379,exp11,2020.2.6,Win32,60,,,,,,,,,,,
,,,,,,,,,,,,,,p,1,0.563785,space,0.15257,0,149,149,39,1,3_dist_red/trial15.png,,,1,3,redHorizontal,p,40,23,Female,2021-03-02_12h13.34.379,exp11,2020.2.6,Win32,60,,,,,,,,,,,
,,,,,,,,,,,,,,p,1,0.49667,space,0.172175,0,150,150,38,1,3_dist_red/trial14.png,,,1,3,redHorizontal,p,40,23,Female,2021-03-02_12h13.34.379,exp11,2020.2.6,Win32,60,,,,,,,,,,,
,,,,,,,,,,,,,,a,1,0.584325,space,0.086975,0,151,151,182,1,0_targ_16_dist_red/trial8.png,,,0,16,redHorizontal,a,40,23,Female,2021-03-02_12h13.34.379,exp11,2020.2.6,Win32,60,,,,,,,,,,,
,,,,,,,,,,,,,,a,1,0.70445,space,0.112645,0,152,152,118,1,0_targ_1_dist_red/trial19.png,,,0,1,redHorizontal,a,40,23,Female,2021-03-02_12h13.34.379,exp11,2020.2.6,Win32,60,,,,,,,,,,,
,,,,,,,,,,,,,,p,1,0.743065,space,0.16868,0,153,153,75,1,15_dist_red/trial1.png,,,1,15,redHorizontal,p,40,23,Female,2021-03-02_12h13.34.379,exp11,2020.2.6,Win32,60,,,,,,,,,,,
,,,,,,,,,,,,,,p,1,0.44657,space,0.23527,0,154,154,33,1,3_dist_red/trial9.png,,,1,3,redHorizontal,p,40,23,Female,2021-03-02_12h13.34.379,exp11,2020.2.6,Win32,60,,,,,,,,,,,
,,,,,,,,,,,,,,a,1,0.518275,space,0.139055,0,155,155,115,1,0_targ_1_dist_red/trial6.png,,,0,1,redHorizontal,a,40,23,Female,2021-03-02_12h13.34.379,exp11,2020.2.6,Win32,60,,,,,,,,,,,
,,,,,,,,,,,,,,p,1,0.546275,space,0.14969,0,156,156,28,1,3_dist_red/trial4.png,,,1,3,redHorizontal,p,40,23,Female,2021-03-02_12h13.34.379,exp11,2020.2.6,Win32,60,,,,,,,,,,,
,,,,,,,,,,,,,,p,1,0.49014,space,0.171015,0,157,157,1,1,0_dist_red/trial2.png,,,1,0,redHorizontal,p,40,23,Female,2021-03-02_12h13.34.379,exp11,2020.2.6,Win32,60,,,,,,,,,,,
,,,,,,,,,,,,,,a,0,0.527095,space,0.111355,0,158,158,34,1,3_dist_red/trial10.png,,,1,3,redHorizontal,p,40,23,Female,2021-03-02_12h13.34.379,exp11,2020.2.6,Win32,60,,,,,,,,,,,
,,,,,,,,,,,,,,p,1,0.829655,space,0.113175,0,159,159,0,1,0_dist_red/trial1.png,,,1,0,redHorizontal,p,40,23,Female,2021-03-02_12h13.34.379,exp11,2020.2.6,Win32,60,,,,,,,,,,,
,,,,,,,,,,,,,,a,1,0.64919,space,0.114605,0,160,160,158,1,0_targ_10_dist_red/trial9.png,,,0,10,redHorizontal,a,40,23,Female,2021-03-02_12h13.34.379,exp11,2020.2.6,Win32,60,,,,,,,,,,,
,,,,,,,,,,,,,,a,1,0.57665,space,0.121565,0,161,161,153,1,0_targ_10_dist_red/trial4.png,,,0,10,redHorizontal,a,40,23,Female,2021-03-02_12h13.34.379,exp11,2020.2.6,Win32,60,,,,,,,,,,,
,,,,,,,,,,,,,,p,1,0.497565,space,0.12603,0,162,162,16,1,0_dist_red/trial17.png,,,1,0,redHorizontal,p,40,23,Female,2021-03-02_12h13.34.379,exp11,2020.2.6,Win32,60,,,,,,,,,,,
,,,,,,,,,,,,,,a,1,0.708485,space,0.135755,0,163,163,107,1,0_targ_1_dist_red/trial8.png,,,0,1,redHorizontal,a,40,23,Female,2021-03-02_12h13.34.379,exp11,2020.2.6,Win32,60,,,,,,,,,,,
,,,,,,,,,,,,,,p,1,0.5504,space,0.13748,0,164,164,7,1,0_dist_red/trial8.png,,,1,0,redHorizontal,p,40,23,Female,2021-03-02_12h13.34.379,exp11,2020.2.6,Win32,60,,,,,,,,,,,
,,,,,,,,,,,,,,p,1,0.563765,space,0.18331,0,165,165,43,1,3_dist_red/trial19.png,,,1,3,redHorizontal,p,40,23,Female,2021-03-02_12h13.34.379,exp11,2020.2.6,Win32,60,,,,,,,,,,,
,,,,,,,,,,,,,,a,1,0.721405,space,0.116975,0,166,166,143,1,0_targ_4_dist_red/trial19.png,,,0,4,redHorizontal,a,40,23,Female,2021-03-02_12h13.34.379,exp11,2020.2.6,Win32,60,,,,,,,,,,,
,,,,,,,,,,,,,,p,1,0.56424,space,0.201965,0,167,167,24,1,0_dist_red/trial25.png,,,1,0,redHorizontal,p,40,23,Female,2021-03-02_12h13.34.379,exp11,2020.2.6,Win32,60,,,,,,,,,,,
,,,,,,,,,,,,,,p,1,0.510865,space,0.2178,0,168,168,9,1,0_dist_red/trial10.png,,,1,0,redHorizontal,p,40,23,Female,2021-03-02_12h13.34.379,exp11,2020.2.6,Win32,60,,,,,,,,,,,
,,,,,,,,,,,,,,p,1,0.506075,space,0.168105,0,169,169,58,1,9_dist_red/trial9.png,,,1,9,redHorizontal,p,40,23,Female,2021-03-02_12h13.34.379,exp11,2020.2.6,Win32,60,,,,,,,,,,,
,,,,,,,,,,,,,,a,1,0.53353,space,0.121675,0,170,170,144,1,0_targ_4_dist_red/trial20.png,,,0,4,redHorizontal,a,40,23,Female,2021-03-02_12h13.34.379,exp11,2020.2.6,Win32,60,,,,,,,,,,,
,,,,,,,,,,,,,,p,1,0.55911,space,0.13865,0,171,171,5,1,0_dist_red/trial6.png,,,1,0,redHorizontal,p,40,23,Female,2021-03-02_12h13.34.379,exp11,2020.2.6,Win32,60,,,,,,,,,,,
,,,,,,,,,,,,,,p,1,0.440885,space,0.241485,0,172,172,10,1,0_dist_red/trial11.png,,,1,0,redHorizontal,p,40,23,Female,2021-03-02_12h13.34.379,exp11,2020.2.6,Win32,60,,,,,,,,,,,
,,,,,,,,,,,,,,p,1,0.38729,space,0.172415,0,173,173,3,1,0_dist_red/trial4.png,,,1,0,redHorizontal,p,40,23,Female,2021-03-02_12h13.34.379,exp11,2020.2.6,Win32,60,,,,,,,,,,,
,,,,,,,,,,,,,,a,1,0.4353,space,0.119735,0,174,174,152,1,0_targ_10_dist_red/trial3.png,,,0,10,redHorizontal,a,40,23,Female,2021-03-02_12h13.34.379,exp11,2020.2.6,Win32,60,,,,,,,,,,,
,,,,,,,,,,,,,,p,1,0.66973,space,0.10787,0,175,175,67,1,9_dist_red/trial18.png,,,1,9,redHorizontal,p,40,23,Female,2021-03-02_12h13.34.379,exp11,2020.2.6,Win32,60,,,,,,,,,,,
,,,,,,,,,,,,,,a,1,0.71181,space,0.14009,0,176,176,136,1,0_targ_4_dist_red/trial12.png,,,0,4,redHorizontal,a,40,23,Female,2021-03-02_12h13.34.379,exp11,2020.2.6,Win32,60,,,,,,,,,,,
,,,,,,,,,,,,,,p,1,0.5822,space,0.178075,0,177,177,96,1,15_dist_red/trial22.png,,,1,15,redHorizontal,p,40,23,Female,2021-03-02_12h13.34.379,exp11,2020.2.6,Win32,60,,,,,,,,,,,
,,,,,,,,,,,,,,p,1,0.680295,space,0.22453,0,178,178,68,1,9_dist_red/trial19.png,,,1,9,redHorizontal,p,40,23,Female,2021-03-02_12h13.34.379,exp11,2020.2.6,Win32,60,,,,,,,,,,,
,,,,,,,,,,,,,,a,1,0.515975,space,0.102435,0,179,179,113,1,0_targ_1_dist_red/trial14.png,,,0,1,redHorizontal,a,40,23,Female,2021-03-02_12h13.34.379,exp11,2020.2.6,Win32,60,,,,,,,,,,,
,,,,,,,,,,,,,,p,1,0.405935,space,0.16874,0,180,180,26,1,3_dist_red/trial2.png,,,1,3,redHorizontal,p,40,23,Female,2021-03-02_12h13.34.379,exp11,2020.2.6,Win32,60,,,,,,,,,,,
,,,,,,,,,,,,,,p,1,0.480955,space,0.173695,0,181,181,32,1,3_dist_red/trial8.png,,,1,3,redHorizontal,p,40,23,Female,2021-03-02_12h13.34.379,exp11,2020.2.6,Win32,60,,,,,,,,,,,
,,,,,,,,,,,,,,p,1,0.465745,space,0.16842,0,182,182,8,1,0_dist_red/trial9.png,,,1,0,redHorizontal,p,40,23,Female,2021-03-02_12h13.34.379,exp11,2020.2.6,Win32,60,,,,,,,,,,,
,,,,,,,,,,,,,,a,1,0.580205,space,0.117045,0,183,183,154,1,0_targ_10_dist_red/trial5.png,,,0,10,redHorizontal,a,40,23,Female,2021-03-02_12h13.34.379,exp11,2020.2.6,Win32,60,,,,,,,,,,,
,,,,,,,,,,,,,,a,1,0.58597,space,0.123745,0,184,184,125,1,0_targ_4_dist_red/trial1.png,,,0,4,redHorizontal,a,40,23,Female,2021-03-02_12h13.34.379,exp11,2020.2.6,Win32,60,,,,,,,,,,,
,,,,,,,,,,,,,,p,1,0.67674,space,0.11609,0,185,185,53,1,9_dist_red/trial4.png,,,1,9,redHorizontal,p,40,23,Female,2021-03-02_12h13.34.379,exp11,2020.2.6,Win32,60,,,,,,,,,,,
,,,,,,,,,,,,,,p,1,0.760015,space,0.120855,0,186,186,85,1,15_dist_red/trial11.png,,,1,15,redHorizontal,p,40,23,Female,2021-03-02_12h13.34.379,exp11,2020.2.6,Win32,60,,,,,,,,,,,
,,,,,,,,,,,,,,a,1,0.555395,space,0.12185,0,187,187,132,1,0_targ_4_dist_red/trial8.png,,,0,4,redHorizontal,a,40,23,Female,2021-03-02_12h13.34.379,exp11,2020.2.6,Win32,60,,,,,,,,,,,
,,,,,,,,,,,,,,a,1,0.629005,space,0.14329,0,188,188,129,1,0_targ_4_dist_red/trial5.png,,,0,4,redHorizontal,a,40,23,Female,2021-03-02_12h13.34.379,exp11,2020.2.6,Win32,60,,,,,,,,,,,
,,,,,,,,,,,,,,p,1,0.492645,space,0.120155,0,189,189,12,1,0_dist_red/trial13.png,,,1,0,redHorizontal,p,40,23,Female,2021-03-02_12h13.34.379,exp11,2020.2.6,Win32,60,,,,,,,,,,,
,,,,,,,,,,,,,,a,1,0.63761,space,0.10159,0,190,190,135,1,0_targ_4_dist_red/trial11.png,,,0,4,redHorizontal,a,40,23,Female,2021-03-02_12h13.34.379,exp11,2020.2.6,Win32,60,,,,,,,,,,,
,,,,,,,,,,,,,,a,1,0.556945,space,0.09041,0,191,191,146,1,0_targ_4_dist_red/trial22.png,,,0,4,redHorizontal,a,40,23,Female,2021-03-02_12h13.34.379,exp11,2020.2.6,Win32,60,,,,,,,,,,,
,,,,,,,,,,,,,,a,1,0.59597,space,0.10314,0,192,192,148,1,0_targ_4_dist_red/trial24.png,,,0,4,redHorizontal,a,40,23,Female,2021-03-02_12h13.34.379,exp11,2020.2.6,Win32,60,,,,,,,,,,,
,,,,,,,,,,,,,,a,1,0.67502,space,0.10115,0,193,193,139,1,0_targ_4_dist_red/trial15.png,,,0,4,redHorizontal,a,40,23,Female,2021-03-02_12h13.34.379,exp11,2020.2.6,Win32,60,,,,,,,,,,,
,,,,,,,,,,,,,,a,1,0.529685,space,0.06942,0,194,194,174,1,0_targ_10_dist_red/trial25.png,,,0,10,redHorizontal,a,40,23,Female,2021-03-02_12h13.34.379,exp11,2020.2.6,Win32,60,,,,,,,,,,,
,,,,,,,,,,,,,,a,1,0.561125,space,0.110435,0,195,195,127,1,0_targ_4_dist_red/trial3.png,,,0,4,redHorizontal,a,40,23,Female,2021-03-02_12h13.34.379,exp11,2020.2.6,Win32,60,,,,,,,,,,,
,,,,,,,,,,,,,,a,1,0.60591,space,0.10783,0,196,196,192,1,0_targ_16_dist_red/trial18.png,,,0,16,redHorizontal,a,40,23,Female,2021-03-02_12h13.34.379,exp11,2020.2.6,Win32,60,,,,,,,,,,,
,,,,,,,,,,,,,,a,1,0.892695,space,0.087705,0,197,197,100,1,0_targ_1_dist_red/trial1.png,,,0,1,redHorizontal,a,40,23,Female,2021-03-02_12h13.34.379,exp11,2020.2.6,Win32,60,,,,,,,,,,,
,,,,,,,,,,,,,,a,0,0.60807,space,0.673105,0,198,198,50,1,9_dist_red/trial1.png,,,1,9,redHorizontal,p,40,23,Female,2021-03-02_12h13.34.379,exp11,2020.2.6,Win32,60,,,,,,,,,,,
,,,,,,,,,,,,,,a,1,1.17777,space,0.20008,0,199,199,176,1,0_targ_16_dist_red/trial2.png,,,0,16,redHorizontal,a,40,23,Female,2021-03-02_12h13.34.379,exp11,2020.2.6,Win32,60,,,,,,,,,,,
,,,,,,,,,,,,,,,,,,,,,,,,,,,,,,,40,23,Female,2021-03-02_12h13.34.379,exp11,2020.2.6,Win32,60,0,1,1,1,1,conRed.xlsx,red horizontal,Look for red horizontal bar (target) and indicate if it is present or absent in the array. If red horizontal target is present press 'p' and if absent press 'a'. Press SPACE to start.,,,
