key_resp_6.keys,key_resp_6.rt,key_resp_7.keys,key_resp_7.rt,key_resp_8.keys,key_resp_8.rt,key_resp_10.keys,key_resp_10.rt,key_resp_9.keys,key_resp_9.rt,key_resp_3.keys,key_resp_3.rt,key_resp_5.keys,key_resp_5.rt,key_resp.keys,key_resp.corr,key_resp.rt,key_resp_4.keys,key_resp_4.rt,trials.thisRepN,trials.thisTrialN,trials.thisN,trials.thisIndex,trials.ran,ImageFile,tarPos,tarSize,targPres,numDist,targetName,correctAns,participant,age,sex,date,expName,psychopyVersion,OS,frameRate,trials_2.thisRepN,trials_2.thisTrialN,trials_2.thisN,trials_2.thisIndex,trials_2.ran,condsFile,targName,instructionText,colTarget,sizeTarg,posit
space,5.9777,space,4.91941,space,4.24188,space,21.48852,space,5.347735,space,33.590165,space,24.05822,p,1,1.78592,space,2.4405,0,0,0,67,1,9_dist_red/trial18.png,,,1,9,redHorizontal,p,43,27,Male,2021-03-02_17h34.18.739,exp11,2020.2.6,Win32,60,,,,,,,,,,,
,,,,,,,,,,,,,,a,1,1.88232,space,0.93675,0,1,1,199,1,0_targ_16_dist_red/trial25.png,,,0,16,redHorizontal,a,43,27,Male,2021-03-02_17h34.18.739,exp11,2020.2.6,Win32,60,,,,,,,,,,,
,,,,,,,,,,,,,,p,1,0.780595,space,0.82112,0,2,2,9,1,0_dist_red/trial10.png,,,1,0,redHorizontal,p,43,27,Male,2021-03-02_17h34.18.739,exp11,2020.2.6,Win32,60,,,,,,,,,,,
,,,,,,,,,,,,,,p,1,1.135725,space,0.8273,0,3,3,21,1,0_dist_red/trial22.png,,,1,0,redHorizontal,p,43,27,Male,2021-03-02_17h34.18.739,exp11,2020.2.6,Win32,60,,,,,,,,,,,
,,,,,,,,,,,,,,a,1,1.12115,space,0.76919,0,4,4,137,1,0_targ_4_dist_red/trial13.png,,,0,4,redHorizontal,a,43,27,Male,2021-03-02_17h34.18.739,exp11,2020.2.6,Win32,60,,,,,,,,,,,
,,,,,,,,,,,,,,p,1,1.40859,space,0.55979,0,5,5,42,1,3_dist_red/trial18.png,,,1,3,redHorizontal,p,43,27,Male,2021-03-02_17h34.18.739,exp11,2020.2.6,Win32,60,,,,,,,,,,,
,,,,,,,,,,,,,,p,1,1.16272,space,0.45234,0,6,6,52,1,9_dist_red/trial3.png,,,1,9,redHorizontal,p,43,27,Male,2021-03-02_17h34.18.739,exp11,2020.2.6,Win32,60,,,,,,,,,,,
,,,,,,,,,,,,,,p,1,0.85021,space,0.420915,0,7,7,5,1,0_dist_red/trial6.png,,,1,0,redHorizontal,p,43,27,Male,2021-03-02_17h34.18.739,exp11,2020.2.6,Win32,60,,,,,,,,,,,
,,,,,,,,,,,,,,p,1,1.319855,space,0.475095,0,8,8,74,1,9_dist_red/trial25.png,,,1,9,redHorizontal,p,43,27,Male,2021-03-02_17h34.18.739,exp11,2020.2.6,Win32,60,,,,,,,,,,,
,,,,,,,,,,,,,,p,1,1.14784,space,0.406295,0,9,9,70,1,9_dist_red/trial21.png,,,1,9,redHorizontal,p,43,27,Male,2021-03-02_17h34.18.739,exp11,2020.2.6,Win32,60,,,,,,,,,,,
,,,,,,,,,,,,,,a,1,1.278215,space,0.452135,0,10,10,141,1,0_targ_4_dist_red/trial17.png,,,0,4,redHorizontal,a,43,27,Male,2021-03-02_17h34.18.739,exp11,2020.2.6,Win32,60,,,,,,,,,,,
,,,,,,,,,,,,,,a,1,0.662095,space,0.35345,0,11,11,105,1,0_targ_1_dist_red/trial6.png,,,0,1,redHorizontal,a,43,27,Male,2021-03-02_17h34.18.739,exp11,2020.2.6,Win32,60,,,,,,,,,,,
,,,,,,,,,,,,,,p,1,0.89508,space,0.38911,0,12,12,17,1,0_dist_red/trial18.png,,,1,0,redHorizontal,p,43,27,Male,2021-03-02_17h34.18.739,exp11,2020.2.6,Win32,60,,,,,,,,,,,
,,,,,,,,,,,,,,a,1,2.35202,space,0.42081,0,13,13,190,1,0_targ_16_dist_red/trial16.png,,,0,16,redHorizontal,a,43,27,Male,2021-03-02_17h34.18.739,exp11,2020.2.6,Win32,60,,,,,,,,,,,
,,,,,,,,,,,,,,p,1,0.885715,space,0.322585,0,14,14,43,1,3_dist_red/trial19.png,,,1,3,redHorizontal,p,43,27,Male,2021-03-02_17h34.18.739,exp11,2020.2.6,Win32,60,,,,,,,,,,,
,,,,,,,,,,,,,,p,1,1.213595,space,0.32403,0,15,15,90,1,15_dist_red/trial16.png,,,1,15,redHorizontal,p,43,27,Male,2021-03-02_17h34.18.739,exp11,2020.2.6,Win32,60,,,,,,,,,,,
,,,,,,,,,,,,,,a,1,1.03427,space,0.336835,0,16,16,129,1,0_targ_4_dist_red/trial5.png,,,0,4,redHorizontal,a,43,27,Male,2021-03-02_17h34.18.739,exp11,2020.2.6,Win32,60,,,,,,,,,,,
,,,,,,,,,,,,,,p,1,0.676815,space,0.37011,0,17,17,16,1,0_dist_red/trial17.png,,,1,0,redHorizontal,p,43,27,Male,2021-03-02_17h34.18.739,exp11,2020.2.6,Win32,60,,,,,,,,,,,
,,,,,,,,,,,,,,a,1,1.34055,space,0.41088,0,18,18,157,1,0_targ_10_dist_red/trial8.png,,,0,10,redHorizontal,a,43,27,Male,2021-03-02_17h34.18.739,exp11,2020.2.6,Win32,60,,,,,,,,,,,
,,,,,,,,,,,,,,a,1,0.92949,space,0.442645,0,19,19,117,1,0_targ_1_dist_red/trial18.png,,,0,1,redHorizontal,a,43,27,Male,2021-03-02_17h34.18.739,exp11,2020.2.6,Win32,60,,,,,,,,,,,
,,,,,,,,,,,,,,p,1,1.179215,space,0.40422,0,20,20,97,1,15_dist_red/trial23.png,,,1,15,redHorizontal,p,43,27,Male,2021-03-02_17h34.18.739,exp11,2020.2.6,Win32,60,,,,,,,,,,,
,,,,,,,,,,,,,,p,1,1.350805,space,0.371195,0,21,21,56,1,9_dist_red/trial7.png,,,1,9,redHorizontal,p,43,27,Male,2021-03-02_17h34.18.739,exp11,2020.2.6,Win32,60,,,,,,,,,,,
,,,,,,,,,,,,,,a,1,1.159605,space,0.386865,0,22,22,110,1,0_targ_1_dist_red/trial11.png,,,0,1,redHorizontal,a,43,27,Male,2021-03-02_17h34.18.739,exp11,2020.2.6,Win32,60,,,,,,,,,,,
,,,,,,,,,,,,,,a,1,0.92573,space,0.291095,0,23,23,114,1,0_targ_1_dist_red/trial15.png,,,0,1,redHorizontal,a,43,27,Male,2021-03-02_17h34.18.739,exp11,2020.2.6,Win32,60,,,,,,,,,,,
,,,,,,,,,,,,,,p,1,0.696625,space,0.29358,0,24,24,19,1,0_dist_red/trial20.png,,,1,0,redHorizontal,p,43,27,Male,2021-03-02_17h34.18.739,exp11,2020.2.6,Win32,60,,,,,,,,,,,
,,,,,,,,,,,,,,a,1,1.039335,space,0.27346,0,25,25,188,1,0_targ_16_dist_red/trial14.png,,,0,16,redHorizontal,a,43,27,Male,2021-03-02_17h34.18.739,exp11,2020.2.6,Win32,60,,,,,,,,,,,
,,,,,,,,,,,,,,p,1,1.069635,space,0.484415,0,26,26,77,1,15_dist_red/trial3.png,,,1,15,redHorizontal,p,43,27,Male,2021-03-02_17h34.18.739,exp11,2020.2.6,Win32,60,,,,,,,,,,,
,,,,,,,,,,,,,,p,1,1.05935,space,0.390735,0,27,27,65,1,9_dist_red/trial16.png,,,1,9,redHorizontal,p,43,27,Male,2021-03-02_17h34.18.739,exp11,2020.2.6,Win32,60,,,,,,,,,,,
,,,,,,,,,,,,,,p,1,0.970695,space,0.389255,0,28,28,71,1,9_dist_red/trial22.png,,,1,9,redHorizontal,p,43,27,Male,2021-03-02_17h34.18.739,exp11,2020.2.6,Win32,60,,,,,,,,,,,
,,,,,,,,,,,,,,a,1,0.822205,space,0.95763,0,29,29,135,1,0_targ_4_dist_red/trial11.png,,,0,4,redHorizontal,a,43,27,Male,2021-03-02_17h34.18.739,exp11,2020.2.6,Win32,60,,,,,,,,,,,
,,,,,,,,,,,,,,p,1,1.04921,space,0.318055,0,30,30,46,1,3_dist_red/trial22.png,,,1,3,redHorizontal,p,43,27,Male,2021-03-02_17h34.18.739,exp11,2020.2.6,Win32,60,,,,,,,,,,,
,,,,,,,,,,,,,,a,1,0.805475,space,0.15898,0,31,31,115,1,0_targ_1_dist_red/trial6.png,,,0,1,redHorizontal,a,43,27,Male,2021-03-02_17h34.18.739,exp11,2020.2.6,Win32,60,,,,,,,,,,,
,,,,,,,,,,,,,,a,1,1.36385,space,0.31887,0,32,32,161,1,0_targ_10_dist_red/trial12.png,,,0,10,redHorizontal,a,43,27,Male,2021-03-02_17h34.18.739,exp11,2020.2.6,Win32,60,,,,,,,,,,,
,,,,,,,,,,,,,,p,1,0.881095,space,0.317735,0,33,33,33,1,3_dist_red/trial9.png,,,1,3,redHorizontal,p,43,27,Male,2021-03-02_17h34.18.739,exp11,2020.2.6,Win32,60,,,,,,,,,,,
,,,,,,,,,,,,,,a,1,1.01649,space,0.301905,0,34,34,158,1,0_targ_10_dist_red/trial9.png,,,0,10,redHorizontal,a,43,27,Male,2021-03-02_17h34.18.739,exp11,2020.2.6,Win32,60,,,,,,,,,,,
,,,,,,,,,,,,,,a,1,1.08642,space,0.276455,0,35,35,112,1,0_targ_1_dist_red/trial13.png,,,0,1,redHorizontal,a,43,27,Male,2021-03-02_17h34.18.739,exp11,2020.2.6,Win32,60,,,,,,,,,,,
,,,,,,,,,,,,,,p,1,0.826675,space,0.322835,0,36,36,31,1,3_dist_red/trial7.png,,,1,3,redHorizontal,p,43,27,Male,2021-03-02_17h34.18.739,exp11,2020.2.6,Win32,60,,,,,,,,,,,
,,,,,,,,,,,,,,p,1,0.80302,space,0.27029,0,37,37,32,1,3_dist_red/trial8.png,,,1,3,redHorizontal,p,43,27,Male,2021-03-02_17h34.18.739,exp11,2020.2.6,Win32,60,,,,,,,,,,,
,,,,,,,,,,,,,,p,1,0.891055,space,0.308075,0,38,38,34,1,3_dist_red/trial10.png,,,1,3,redHorizontal,p,43,27,Male,2021-03-02_17h34.18.739,exp11,2020.2.6,Win32,60,,,,,,,,,,,
,,,,,,,,,,,,,,p,1,1.12702,space,0.289035,0,39,39,86,1,15_dist_red/trial12.png,,,1,15,redHorizontal,p,43,27,Male,2021-03-02_17h34.18.739,exp11,2020.2.6,Win32,60,,,,,,,,,,,
,,,,,,,,,,,,,,p,1,1.664135,space,0.322375,0,40,40,85,1,15_dist_red/trial11.png,,,1,15,redHorizontal,p,43,27,Male,2021-03-02_17h34.18.739,exp11,2020.2.6,Win32,60,,,,,,,,,,,
,,,,,,,,,,,,,,a,1,1.067935,space,0.435095,0,41,41,128,1,0_targ_4_dist_red/trial4.png,,,0,4,redHorizontal,a,43,27,Male,2021-03-02_17h34.18.739,exp11,2020.2.6,Win32,60,,,,,,,,,,,
,,,,,,,,,,,,,,p,1,1.210875,space,0.338595,0,42,42,38,1,3_dist_red/trial14.png,,,1,3,redHorizontal,p,43,27,Male,2021-03-02_17h34.18.739,exp11,2020.2.6,Win32,60,,,,,,,,,,,
,,,,,,,,,,,,,,p,1,1.215275,space,0.352635,0,43,43,51,1,9_dist_red/trial2.png,,,1,9,redHorizontal,p,43,27,Male,2021-03-02_17h34.18.739,exp11,2020.2.6,Win32,60,,,,,,,,,,,
,,,,,,,,,,,,,,a,1,1.32689,space,0.32521,0,44,44,184,1,0_targ_16_dist_red/trial10.png,,,0,16,redHorizontal,a,43,27,Male,2021-03-02_17h34.18.739,exp11,2020.2.6,Win32,60,,,,,,,,,,,
,,,,,,,,,,,,,,p,1,1.39383,space,0.322435,0,45,45,54,1,9_dist_red/trial5.png,,,1,9,redHorizontal,p,43,27,Male,2021-03-02_17h34.18.739,exp11,2020.2.6,Win32,60,,,,,,,,,,,
,,,,,,,,,,,,,,p,1,0.945865,space,0.2736,0,46,46,6,1,0_dist_red/trial7.png,,,1,0,redHorizontal,p,43,27,Male,2021-03-02_17h34.18.739,exp11,2020.2.6,Win32,60,,,,,,,,,,,
,,,,,,,,,,,,,,a,1,1.08352,space,0.26556,0,47,47,121,1,0_targ_1_dist_red/trial22.png,,,0,1,redHorizontal,a,43,27,Male,2021-03-02_17h34.18.739,exp11,2020.2.6,Win32,60,,,,,,,,,,,
,,,,,,,,,,,,,,p,1,0.809695,space,0.27588,0,48,48,14,1,0_dist_red/trial15.png,,,1,0,redHorizontal,p,43,27,Male,2021-03-02_17h34.18.739,exp11,2020.2.6,Win32,60,,,,,,,,,,,
,,,,,,,,,,,,,,a,1,1.031125,space,0.34995,0,49,49,168,1,0_targ_10_dist_red/trial19.png,,,0,10,redHorizontal,a,43,27,Male,2021-03-02_17h34.18.739,exp11,2020.2.6,Win32,60,,,,,,,,,,,
,,,,,,,,,,,,,,p,1,0.884375,space,0.35212,0,50,50,2,1,0_dist_red/trial3.png,,,1,0,redHorizontal,p,43,27,Male,2021-03-02_17h34.18.739,exp11,2020.2.6,Win32,60,,,,,,,,,,,
,,,,,,,,,,,,,,a,1,1.330495,space,0.30124,0,51,51,144,1,0_targ_4_dist_red/trial20.png,,,0,4,redHorizontal,a,43,27,Male,2021-03-02_17h34.18.739,exp11,2020.2.6,Win32,60,,,,,,,,,,,
,,,,,,,,,,,,,,a,1,1.326145,space,0.290075,0,52,52,192,1,0_targ_16_dist_red/trial18.png,,,0,16,redHorizontal,a,43,27,Male,2021-03-02_17h34.18.739,exp11,2020.2.6,Win32,60,,,,,,,,,,,
,,,,,,,,,,,,,,p,1,1.179205,space,0.301105,0,53,53,93,1,15_dist_red/trial19.png,,,1,15,redHorizontal,p,43,27,Male,2021-03-02_17h34.18.739,exp11,2020.2.6,Win32,60,,,,,,,,,,,
,,,,,,,,,,,,,,p,1,0.711735,space,0.25406,0,54,54,23,1,0_dist_red/trial24.png,,,1,0,redHorizontal,p,43,27,Male,2021-03-02_17h34.18.739,exp11,2020.2.6,Win32,60,,,,,,,,,,,
,,,,,,,,,,,,,,p,1,0.777125,space,0.257035,0,55,55,26,1,3_dist_red/trial2.png,,,1,3,redHorizontal,p,43,27,Male,2021-03-02_17h34.18.739,exp11,2020.2.6,Win32,60,,,,,,,,,,,
,,,,,,,,,,,,,,p,1,0.85884,space,0.29154,0,56,56,88,1,15_dist_red/trial14.png,,,1,15,redHorizontal,p,43,27,Male,2021-03-02_17h34.18.739,exp11,2020.2.6,Win32,60,,,,,,,,,,,
,,,,,,,,,,,,,,a,1,0.8827,space,0.23523,0,57,57,107,1,0_targ_1_dist_red/trial8.png,,,0,1,redHorizontal,a,43,27,Male,2021-03-02_17h34.18.739,exp11,2020.2.6,Win32,60,,,,,,,,,,,
,,,,,,,,,,,,,,a,1,0.96292,space,0.28644,0,58,58,133,1,0_targ_4_dist_red/trial9.png,,,0,4,redHorizontal,a,43,27,Male,2021-03-02_17h34.18.739,exp11,2020.2.6,Win32,60,,,,,,,,,,,
,,,,,,,,,,,,,,p,1,1.28174,space,0.30873,0,59,59,35,1,3_dist_red/trial11.png,,,1,3,redHorizontal,p,43,27,Male,2021-03-02_17h34.18.739,exp11,2020.2.6,Win32,60,,,,,,,,,,,
,,,,,,,,,,,,,,p,1,1.407905,space,0.272105,0,60,60,78,1,15_dist_red/trial4.png,,,1,15,redHorizontal,p,43,27,Male,2021-03-02_17h34.18.739,exp11,2020.2.6,Win32,60,,,,,,,,,,,
,,,,,,,,,,,,,,p,1,0.82389,space,0.3067,0,61,61,7,1,0_dist_red/trial8.png,,,1,0,redHorizontal,p,43,27,Male,2021-03-02_17h34.18.739,exp11,2020.2.6,Win32,60,,,,,,,,,,,
,,,,,,,,,,,,,,a,1,1.139565,space,0.238085,0,62,62,145,1,0_targ_4_dist_red/trial21.png,,,0,4,redHorizontal,a,43,27,Male,2021-03-02_17h34.18.739,exp11,2020.2.6,Win32,60,,,,,,,,,,,
,,,,,,,,,,,,,,a,1,0.947445,space,0.294,0,63,63,139,1,0_targ_4_dist_red/trial15.png,,,0,4,redHorizontal,a,43,27,Male,2021-03-02_17h34.18.739,exp11,2020.2.6,Win32,60,,,,,,,,,,,
,,,,,,,,,,,,,,a,1,1.63165,space,0.185795,0,64,64,198,1,0_targ_16_dist_red/trial24.png,,,0,16,redHorizontal,a,43,27,Male,2021-03-02_17h34.18.739,exp11,2020.2.6,Win32,60,,,,,,,,,,,
,,,,,,,,,,,,,,a,1,0.89126,space,0.1743,0,65,65,165,1,0_targ_10_dist_red/trial16.png,,,0,10,redHorizontal,a,43,27,Male,2021-03-02_17h34.18.739,exp11,2020.2.6,Win32,60,,,,,,,,,,,
,,,,,,,,,,,,,,a,1,0.676945,space,0.15558,0,66,66,111,1,0_targ_1_dist_red/trial12.png,,,0,1,redHorizontal,a,43,27,Male,2021-03-02_17h34.18.739,exp11,2020.2.6,Win32,60,,,,,,,,,,,
,,,,,,,,,,,,,,p,1,1.109145,space,0.226925,0,67,67,62,1,9_dist_red/trial13.png,,,1,9,redHorizontal,p,43,27,Male,2021-03-02_17h34.18.739,exp11,2020.2.6,Win32,60,,,,,,,,,,,
,,,,,,,,,,,,,,a,1,1.02843,space,0.139395,0,68,68,113,1,0_targ_1_dist_red/trial14.png,,,0,1,redHorizontal,a,43,27,Male,2021-03-02_17h34.18.739,exp11,2020.2.6,Win32,60,,,,,,,,,,,
,,,,,,,,,,,,,,p,1,0.992565,space,0.2839,0,69,69,64,1,9_dist_red/trial15.png,,,1,9,redHorizontal,p,43,27,Male,2021-03-02_17h34.18.739,exp11,2020.2.6,Win32,60,,,,,,,,,,,
,,,,,,,,,,,,,,a,1,1.554785,space,0.23494,0,70,70,187,1,0_targ_16_dist_red/trial13.png,,,0,16,redHorizontal,a,43,27,Male,2021-03-02_17h34.18.739,exp11,2020.2.6,Win32,60,,,,,,,,,,,
,,,,,,,,,,,,,,p,1,1.12617,space,0.30168,0,71,71,83,1,15_dist_red/trial9.png,,,1,15,redHorizontal,p,43,27,Male,2021-03-02_17h34.18.739,exp11,2020.2.6,Win32,60,,,,,,,,,,,
,,,,,,,,,,,,,,p,1,1.54213,space,0.284635,0,72,72,55,1,9_dist_red/trial6.png,,,1,9,redHorizontal,p,43,27,Male,2021-03-02_17h34.18.739,exp11,2020.2.6,Win32,60,,,,,,,,,,,
,,,,,,,,,,,,,,a,1,0.974075,space,0.305485,0,73,73,140,1,0_targ_4_dist_red/trial6.png,,,0,4,redHorizontal,a,43,27,Male,2021-03-02_17h34.18.739,exp11,2020.2.6,Win32,60,,,,,,,,,,,
,,,,,,,,,,,,,,p,1,0.95865,space,0.321465,0,74,74,18,1,0_dist_red/trial19.png,,,1,0,redHorizontal,p,43,27,Male,2021-03-02_17h34.18.739,exp11,2020.2.6,Win32,60,,,,,,,,,,,
,,,,,,,,,,,,,,p,1,2.14402,space,0.46997,0,75,75,72,1,9_dist_red/trial23.png,,,1,9,redHorizontal,p,43,27,Male,2021-03-02_17h34.18.739,exp11,2020.2.6,Win32,60,,,,,,,,,,,
,,,,,,,,,,,,,,a,1,1.938805,space,0.33773,0,76,76,160,1,0_targ_10_dist_red/trial11.png,,,0,10,redHorizontal,a,43,27,Male,2021-03-02_17h34.18.739,exp11,2020.2.6,Win32,60,,,,,,,,,,,
,,,,,,,,,,,,,,a,1,0.993835,space,0.26976,0,77,77,164,1,0_targ_10_dist_red/trial15.png,,,0,10,redHorizontal,a,43,27,Male,2021-03-02_17h34.18.739,exp11,2020.2.6,Win32,60,,,,,,,,,,,
,,,,,,,,,,,,,,a,1,0.87461,space,0.269,0,78,78,143,1,0_targ_4_dist_red/trial19.png,,,0,4,redHorizontal,a,43,27,Male,2021-03-02_17h34.18.739,exp11,2020.2.6,Win32,60,,,,,,,,,,,
,,,,,,,,,,,,,,p,1,1.789305,space,0.217695,0,79,79,73,1,9_dist_red/trial24.png,,,1,9,redHorizontal,p,43,27,Male,2021-03-02_17h34.18.739,exp11,2020.2.6,Win32,60,,,,,,,,,,,
,,,,,,,,,,,,,,p,1,1.427325,space,0.169515,0,80,80,40,1,3_dist_red/trial16.png,,,1,3,redHorizontal,p,43,27,Male,2021-03-02_17h34.18.739,exp11,2020.2.6,Win32,60,,,,,,,,,,,
,,,,,,,,,,,,,,a,1,1.02618,space,0.10926,0,81,81,104,1,0_targ_1_dist_red/trial5.png,,,0,1,redHorizontal,a,43,27,Male,2021-03-02_17h34.18.739,exp11,2020.2.6,Win32,60,,,,,,,,,,,
,,,,,,,,,,,,,,p,1,0.662115,space,0.219445,0,82,82,11,1,0_dist_red/trial12.png,,,1,0,redHorizontal,p,43,27,Male,2021-03-02_17h34.18.739,exp11,2020.2.6,Win32,60,,,,,,,,,,,
,,,,,,,,,,,,,,p,1,0.809335,space,0.18573,0,83,83,69,1,9_dist_red/trial20.png,,,1,9,redHorizontal,p,43,27,Male,2021-03-02_17h34.18.739,exp11,2020.2.6,Win32,60,,,,,,,,,,,
,,,,,,,,,,,,,,a,1,1.17239,space,0.10148,0,84,84,167,1,0_targ_10_dist_red/trial18.png,,,0,10,redHorizontal,a,43,27,Male,2021-03-02_17h34.18.739,exp11,2020.2.6,Win32,60,,,,,,,,,,,
,,,,,,,,,,,,,,p,1,0.77677,space,0.18417,0,85,85,36,1,3_dist_red/trial12.png,,,1,3,redHorizontal,p,43,27,Male,2021-03-02_17h34.18.739,exp11,2020.2.6,Win32,60,,,,,,,,,,,
,,,,,,,,,,,,,,a,1,1.069515,space,0.033725,0,86,86,123,1,0_targ_1_dist_red/trial24.png,,,0,1,redHorizontal,a,43,27,Male,2021-03-02_17h34.18.739,exp11,2020.2.6,Win32,60,,,,,,,,,,,
,,,,,,,,,,,,,,a,1,0.668375,space,0.000755,0,87,87,119,1,0_targ_1_dist_red/trial20.png,,,0,1,redHorizontal,a,43,27,Male,2021-03-02_17h34.18.739,exp11,2020.2.6,Win32,60,,,,,,,,,,,
,,,,,,,,,,,,,,p,1,1.50741,space,0.20255,0,88,88,75,1,15_dist_red/trial1.png,,,1,15,redHorizontal,p,43,27,Male,2021-03-02_17h34.18.739,exp11,2020.2.6,Win32,60,,,,,,,,,,,
,,,,,,,,,,,,,,a,1,1.744855,space,0.1186,0,89,89,151,1,0_targ_10_dist_red/trial2.png,,,0,10,redHorizontal,a,43,27,Male,2021-03-02_17h34.18.739,exp11,2020.2.6,Win32,60,,,,,,,,,,,
,,,,,,,,,,,,,,p,1,0.765085,space,0.2382,0,90,90,68,1,9_dist_red/trial19.png,,,1,9,redHorizontal,p,43,27,Male,2021-03-02_17h34.18.739,exp11,2020.2.6,Win32,60,,,,,,,,,,,
,,,,,,,,,,,,,,a,1,2.19078,space,0.084185,0,91,91,154,1,0_targ_10_dist_red/trial5.png,,,0,10,redHorizontal,a,43,27,Male,2021-03-02_17h34.18.739,exp11,2020.2.6,Win32,60,,,,,,,,,,,
,,,,,,,,,,,,,,a,1,0.897245,space,0.071255,0,92,92,147,1,0_targ_4_dist_red/trial23.png,,,0,4,redHorizontal,a,43,27,Male,2021-03-02_17h34.18.739,exp11,2020.2.6,Win32,60,,,,,,,,,,,
,,,,,,,,,,,,,,a,1,0.70408,space,0.06807,0,93,93,102,1,0_targ_1_dist_red/trial3.png,,,0,1,redHorizontal,a,43,27,Male,2021-03-02_17h34.18.739,exp11,2020.2.6,Win32,60,,,,,,,,,,,
,,,,,,,,,,,,,,p,1,1.046665,space,0.22398,0,94,94,45,1,3_dist_red/trial21.png,,,1,3,redHorizontal,p,43,27,Male,2021-03-02_17h34.18.739,exp11,2020.2.6,Win32,60,,,,,,,,,,,
,,,,,,,,,,,,,,a,1,0.97788,space,0.06953,0,95,95,101,1,0_targ_1_dist_red/trial2.png,,,0,1,redHorizontal,a,43,27,Male,2021-03-02_17h34.18.739,exp11,2020.2.6,Win32,60,,,,,,,,,,,
,,,,,,,,,,,,,,a,1,1.82256,space,0.085795,0,96,96,176,1,0_targ_16_dist_red/trial2.png,,,0,16,redHorizontal,a,43,27,Male,2021-03-02_17h34.18.739,exp11,2020.2.6,Win32,60,,,,,,,,,,,
,,,,,,,,,,,,,,a,1,1.344545,space,0.08861,0,97,97,185,1,0_targ_16_dist_red/trial11.png,,,0,16,redHorizontal,a,43,27,Male,2021-03-02_17h34.18.739,exp11,2020.2.6,Win32,60,,,,,,,,,,,
,,,,,,,,,,,,,,p,1,0.774755,space,0.15705,0,98,98,0,1,0_dist_red/trial1.png,,,1,0,redHorizontal,p,43,27,Male,2021-03-02_17h34.18.739,exp11,2020.2.6,Win32,60,,,,,,,,,,,
,,,,,,,,,,,,,,a,1,1.874955,space,0.07129,0,99,99,189,1,0_targ_16_dist_red/trial15.png,,,0,16,redHorizontal,a,43,27,Male,2021-03-02_17h34.18.739,exp11,2020.2.6,Win32,60,,,,,,,,,,,
,,,,,,,,,,,,,,a,1,1.158705,space,0.084485,0,100,100,125,1,0_targ_4_dist_red/trial1.png,,,0,4,redHorizontal,a,43,27,Male,2021-03-02_17h34.18.739,exp11,2020.2.6,Win32,60,,,,,,,,,,,
,,,,,,,,,,,,,,a,1,1.196495,space,0.06833,0,101,101,126,1,0_targ_4_dist_red/trial2.png,,,0,4,redHorizontal,a,43,27,Male,2021-03-02_17h34.18.739,exp11,2020.2.6,Win32,60,,,,,,,,,,,
,,,,,,,,,,,,,,p,1,0.890725,space,0.221635,0,102,102,44,1,3_dist_red/trial20.png,,,1,3,redHorizontal,p,43,27,Male,2021-03-02_17h34.18.739,exp11,2020.2.6,Win32,60,,,,,,,,,,,
,,,,,,,,,,,,,,p,1,0.694005,space,0.176805,0,103,103,22,1,0_dist_red/trial23.png,,,1,0,redHorizontal,p,43,27,Male,2021-03-02_17h34.18.739,exp11,2020.2.6,Win32,60,,,,,,,,,,,
,,,,,,,,,,,,,,a,1,0.84365,space,0.096095,0,104,104,106,1,0_targ_1_dist_red/trial7.png,,,0,1,redHorizontal,a,43,27,Male,2021-03-02_17h34.18.739,exp11,2020.2.6,Win32,60,,,,,,,,,,,
,,,,,,,,,,,,,,a,1,1.603105,space,0.076945,0,105,105,181,1,0_targ_16_dist_red/trial7.png,,,0,16,redHorizontal,a,43,27,Male,2021-03-02_17h34.18.739,exp11,2020.2.6,Win32,60,,,,,,,,,,,
,,,,,,,,,,,,,,a,1,0.824425,space,0.071965,0,106,106,108,1,0_targ_1_dist_red/trial9.png,,,0,1,redHorizontal,a,43,27,Male,2021-03-02_17h34.18.739,exp11,2020.2.6,Win32,60,,,,,,,,,,,
,,,,,,,,,,,,,,p,1,0.671985,space,0.789395,0,107,107,24,1,0_dist_red/trial25.png,,,1,0,redHorizontal,p,43,27,Male,2021-03-02_17h34.18.739,exp11,2020.2.6,Win32,60,,,,,,,,,,,
,,,,,,,,,,,,,,a,1,0.888285,space,0.085915,0,108,108,169,1,0_targ_10_dist_red/trial20.png,,,0,10,redHorizontal,a,43,27,Male,2021-03-02_17h34.18.739,exp11,2020.2.6,Win32,60,,,,,,,,,,,
,,,,,,,,,,,,,,p,1,0.771785,space,0.189985,0,109,109,28,1,3_dist_red/trial4.png,,,1,3,redHorizontal,p,43,27,Male,2021-03-02_17h34.18.739,exp11,2020.2.6,Win32,60,,,,,,,,,,,
,,,,,,,,,,,,,,p,1,1.239275,space,0.184585,0,110,110,66,1,9_dist_red/trial17.png,,,1,9,redHorizontal,p,43,27,Male,2021-03-02_17h34.18.739,exp11,2020.2.6,Win32,60,,,,,,,,,,,
,,,,,,,,,,,,,,a,1,0.923745,space,0.069535,0,111,111,174,1,0_targ_10_dist_red/trial25.png,,,0,10,redHorizontal,a,43,27,Male,2021-03-02_17h34.18.739,exp11,2020.2.6,Win32,60,,,,,,,,,,,
,,,,,,,,,,,,,,a,1,0.64343,space,0.10145,0,112,112,138,1,0_targ_4_dist_red/trial14.png,,,0,4,redHorizontal,a,43,27,Male,2021-03-02_17h34.18.739,exp11,2020.2.6,Win32,60,,,,,,,,,,,
,,,,,,,,,,,,,,p,1,1.302655,space,0.223035,0,113,113,13,1,0_dist_red/trial14.png,,,1,0,redHorizontal,p,43,27,Male,2021-03-02_17h34.18.739,exp11,2020.2.6,Win32,60,,,,,,,,,,,
,,,,,,,,,,,,,,a,1,0.864025,space,0.08396,0,114,114,103,1,0_targ_1_dist_red/trial4.png,,,0,1,redHorizontal,a,43,27,Male,2021-03-02_17h34.18.739,exp11,2020.2.6,Win32,60,,,,,,,,,,,
,,,,,,,,,,,,,,p,1,0.576225,space,0.27167,0,115,115,15,1,0_dist_red/trial16.png,,,1,0,redHorizontal,p,43,27,Male,2021-03-02_17h34.18.739,exp11,2020.2.6,Win32,60,,,,,,,,,,,
,,,,,,,,,,,,,,a,1,1.538555,space,0.070145,0,116,116,178,1,0_targ_16_dist_red/trial4.png,,,0,16,redHorizontal,a,43,27,Male,2021-03-02_17h34.18.739,exp11,2020.2.6,Win32,60,,,,,,,,,,,
,,,,,,,,,,,,,,a,1,1.004725,space,0.05645,0,117,117,124,1,0_targ_1_dist_red/trial25.png,,,0,1,redHorizontal,a,43,27,Male,2021-03-02_17h34.18.739,exp11,2020.2.6,Win32,60,,,,,,,,,,,
,,,,,,,,,,,,,,a,1,0.92315,space,0.05999,0,118,118,118,1,0_targ_1_dist_red/trial19.png,,,0,1,redHorizontal,a,43,27,Male,2021-03-02_17h34.18.739,exp11,2020.2.6,Win32,60,,,,,,,,,,,
,,,,,,,,,,,,,,p,1,0.691585,space,0.48122,0,119,119,63,1,9_dist_red/trial14.png,,,1,9,redHorizontal,p,43,27,Male,2021-03-02_17h34.18.739,exp11,2020.2.6,Win32,60,,,,,,,,,,,
,,,,,,,,,,,,,,p,1,0.907865,space,0.41065,0,120,120,50,1,9_dist_red/trial1.png,,,1,9,redHorizontal,p,43,27,Male,2021-03-02_17h34.18.739,exp11,2020.2.6,Win32,60,,,,,,,,,,,
,,,,,,,,,,,,,,p,1,1.151055,space,0.335765,0,121,121,4,1,0_dist_red/trial5.png,,,1,0,redHorizontal,p,43,27,Male,2021-03-02_17h34.18.739,exp11,2020.2.6,Win32,60,,,,,,,,,,,
,,,,,,,,,,,,,,a,1,0.96883,space,0.058115,0,122,122,116,1,0_targ_1_dist_red/trial17.png,,,0,1,redHorizontal,a,43,27,Male,2021-03-02_17h34.18.739,exp11,2020.2.6,Win32,60,,,,,,,,,,,
,,,,,,,,,,,,,,a,1,0.91517,space,0.068035,0,123,123,132,1,0_targ_4_dist_red/trial8.png,,,0,4,redHorizontal,a,43,27,Male,2021-03-02_17h34.18.739,exp11,2020.2.6,Win32,60,,,,,,,,,,,
,,,,,,,,,,,,,,a,1,1.415655,space,0.06196,0,124,124,191,1,0_targ_16_dist_red/trial17.png,,,0,16,redHorizontal,a,43,27,Male,2021-03-02_17h34.18.739,exp11,2020.2.6,Win32,60,,,,,,,,,,,
,,,,,,,,,,,,,,a,1,1.02293,space,0.113645,0,125,125,159,1,0_targ_10_dist_red/trial10.png,,,0,10,redHorizontal,a,43,27,Male,2021-03-02_17h34.18.739,exp11,2020.2.6,Win32,60,,,,,,,,,,,
,,,,,,,,,,,,,,a,1,0.8891,space,0.08506,0,126,126,152,1,0_targ_10_dist_red/trial3.png,,,0,10,redHorizontal,a,43,27,Male,2021-03-02_17h34.18.739,exp11,2020.2.6,Win32,60,,,,,,,,,,,
,,,,,,,,,,,,,,a,0,1.57394,space,33.918595,0,127,127,30,1,3_dist_red/trial6.png,,,1,3,redHorizontal,p,43,27,Male,2021-03-02_17h34.18.739,exp11,2020.2.6,Win32,60,,,,,,,,,,,
,,,,,,,,,,,,,,a,1,1.52451,space,0.50915,0,128,128,146,1,0_targ_4_dist_red/trial22.png,,,0,4,redHorizontal,a,43,27,Male,2021-03-02_17h34.18.739,exp11,2020.2.6,Win32,60,,,,,,,,,,,
,,,,,,,,,,,,,,a,1,1.21388,space,0.418725,0,129,129,153,1,0_targ_10_dist_red/trial4.png,,,0,10,redHorizontal,a,43,27,Male,2021-03-02_17h34.18.739,exp11,2020.2.6,Win32,60,,,,,,,,,,,
,,,,,,,,,,,,,,a,1,0.77813,space,0.274345,0,130,130,134,1,0_targ_4_dist_red/trial10.png,,,0,4,redHorizontal,a,43,27,Male,2021-03-02_17h34.18.739,exp11,2020.2.6,Win32,60,,,,,,,,,,,
,,,,,,,,,,,,,,a,1,1.02214,space,0.22156,0,131,131,186,1,0_targ_16_dist_red/trial12.png,,,0,16,redHorizontal,a,43,27,Male,2021-03-02_17h34.18.739,exp11,2020.2.6,Win32,60,,,,,,,,,,,
,,,,,,,,,,,,,,p,1,1.560125,space,0.84238,0,132,132,82,1,15_dist_red/trial8.png,,,1,15,redHorizontal,p,43,27,Male,2021-03-02_17h34.18.739,exp11,2020.2.6,Win32,60,,,,,,,,,,,
,,,,,,,,,,,,,,a,0,0.974925,space,0.20255,0,133,133,61,1,9_dist_red/trial12.png,,,1,9,redHorizontal,p,43,27,Male,2021-03-02_17h34.18.739,exp11,2020.2.6,Win32,60,,,,,,,,,,,
,,,,,,,,,,,,,,p,1,2.132775,space,0.590115,0,134,134,84,1,15_dist_red/trial10.png,,,1,15,redHorizontal,p,43,27,Male,2021-03-02_17h34.18.739,exp11,2020.2.6,Win32,60,,,,,,,,,,,
,,,,,,,,,,,,,,a,1,1.52163,space,0.40418,0,135,135,162,1,0_targ_10_dist_red/trial13.png,,,0,10,redHorizontal,a,43,27,Male,2021-03-02_17h34.18.739,exp11,2020.2.6,Win32,60,,,,,,,,,,,
,,,,,,,,,,,,,,p,1,0.76434,space,0.35391,0,136,136,20,1,0_dist_red/trial21.png,,,1,0,redHorizontal,p,43,27,Male,2021-03-02_17h34.18.739,exp11,2020.2.6,Win32,60,,,,,,,,,,,
,,,,,,,,,,,,,,a,0,0.941125,space,1.307205,0,137,137,59,1,9_dist_red/trial10.png,,,1,9,redHorizontal,p,43,27,Male,2021-03-02_17h34.18.739,exp11,2020.2.6,Win32,60,,,,,,,,,,,
,,,,,,,,,,,,,,p,1,0.948045,space,0.41979,0,138,138,37,1,3_dist_red/trial13.png,,,1,3,redHorizontal,p,43,27,Male,2021-03-02_17h34.18.739,exp11,2020.2.6,Win32,60,,,,,,,,,,,
,,,,,,,,,,,,,,p,1,2.98085,space,0.320195,0,139,139,98,1,15_dist_red/trial24.png,,,1,15,redHorizontal,p,43,27,Male,2021-03-02_17h34.18.739,exp11,2020.2.6,Win32,60,,,,,,,,,,,
,,,,,,,,,,,,,,a,0,0.94682,space,1.50828,0,140,140,91,1,15_dist_red/trial17.png,,,1,15,redHorizontal,p,43,27,Male,2021-03-02_17h34.18.739,exp11,2020.2.6,Win32,60,,,,,,,,,,,
,,,,,,,,,,,,,,p,1,1.07799,space,0.469135,0,141,141,92,1,15_dist_red/trial18.png,,,1,15,redHorizontal,p,43,27,Male,2021-03-02_17h34.18.739,exp11,2020.2.6,Win32,60,,,,,,,,,,,
,,,,,,,,,,,,,,p,1,0.579575,space,0.35251,0,142,142,3,1,0_dist_red/trial4.png,,,1,0,redHorizontal,p,43,27,Male,2021-03-02_17h34.18.739,exp11,2020.2.6,Win32,60,,,,,,,,,,,
,,,,,,,,,,,,,,p,1,0.92645,space,0.3555,0,143,143,89,1,15_dist_red/trial15.png,,,1,15,redHorizontal,p,43,27,Male,2021-03-02_17h34.18.739,exp11,2020.2.6,Win32,60,,,,,,,,,,,
,,,,,,,,,,,,,,p,1,0.638805,space,0.3178,0,144,144,41,1,3_dist_red/trial17.png,,,1,3,redHorizontal,p,43,27,Male,2021-03-02_17h34.18.739,exp11,2020.2.6,Win32,60,,,,,,,,,,,
,,,,,,,,,,,,,,a,1,0.741265,space,0.323075,0,145,145,120,1,0_targ_1_dist_red/trial21.png,,,0,1,redHorizontal,a,43,27,Male,2021-03-02_17h34.18.739,exp11,2020.2.6,Win32,60,,,,,,,,,,,
,,,,,,,,,,,,,,p,1,0.661855,space,0.361025,0,146,146,12,1,0_dist_red/trial13.png,,,1,0,redHorizontal,p,43,27,Male,2021-03-02_17h34.18.739,exp11,2020.2.6,Win32,60,,,,,,,,,,,
,,,,,,,,,,,,,,a,1,0.892115,space,0.50203,0,147,147,148,1,0_targ_4_dist_red/trial24.png,,,0,4,redHorizontal,a,43,27,Male,2021-03-02_17h34.18.739,exp11,2020.2.6,Win32,60,,,,,,,,,,,
,,,,,,,,,,,,,,p,1,0.80793,space,0.217725,0,148,148,39,1,3_dist_red/trial15.png,,,1,3,redHorizontal,p,43,27,Male,2021-03-02_17h34.18.739,exp11,2020.2.6,Win32,60,,,,,,,,,,,
,,,,,,,,,,,,,,a,1,0.871405,space,0.457565,0,149,149,130,1,0_targ_4_dist_red/trial6.png,,,0,4,redHorizontal,a,43,27,Male,2021-03-02_17h34.18.739,exp11,2020.2.6,Win32,60,,,,,,,,,,,
,,,,,,,,,,,,,,p,1,0.75894,space,0.221485,0,150,150,58,1,9_dist_red/trial9.png,,,1,9,redHorizontal,p,43,27,Male,2021-03-02_17h34.18.739,exp11,2020.2.6,Win32,60,,,,,,,,,,,
,,,,,,,,,,,,,,a,1,0.87688,space,0.38444,0,151,151,172,1,0_targ_10_dist_red/trial23.png,,,0,10,redHorizontal,a,43,27,Male,2021-03-02_17h34.18.739,exp11,2020.2.6,Win32,60,,,,,,,,,,,
,,,,,,,,,,,,,,p,1,0.724695,space,0.20942,0,152,152,87,1,15_dist_red/trial13.png,,,1,15,redHorizontal,p,43,27,Male,2021-03-02_17h34.18.739,exp11,2020.2.6,Win32,60,,,,,,,,,,,
,,,,,,,,,,,,,,a,0,0.685005,space,0.127015,0,153,153,25,1,3_dist_red/trial1.png,,,1,3,redHorizontal,p,43,27,Male,2021-03-02_17h34.18.739,exp11,2020.2.6,Win32,60,,,,,,,,,,,
,,,,,,,,,,,,,,a,1,1.064715,space,0.235025,0,154,154,109,1,0_targ_1_dist_red/trial10.png,,,0,1,redHorizontal,a,43,27,Male,2021-03-02_17h34.18.739,exp11,2020.2.6,Win32,60,,,,,,,,,,,
,,,,,,,,,,,,,,p,1,1.30578,space,0.387265,0,155,155,29,1,3_dist_red/trial5.png,,,1,3,redHorizontal,p,43,27,Male,2021-03-02_17h34.18.739,exp11,2020.2.6,Win32,60,,,,,,,,,,,
,,,,,,,,,,,,,,p,1,1.462495,space,0.237455,0,156,156,60,1,9_dist_red/trial11.png,,,1,9,redHorizontal,p,43,27,Male,2021-03-02_17h34.18.739,exp11,2020.2.6,Win32,60,,,,,,,,,,,
,,,,,,,,,,,,,,a,1,3.264945,space,0.335565,0,157,157,196,1,0_targ_16_dist_red/trial22.png,,,0,16,redHorizontal,a,43,27,Male,2021-03-02_17h34.18.739,exp11,2020.2.6,Win32,60,,,,,,,,,,,
,,,,,,,,,,,,,,p,1,1.137265,space,0.22101,0,158,158,48,1,3_dist_red/trial24.png,,,1,3,redHorizontal,p,43,27,Male,2021-03-02_17h34.18.739,exp11,2020.2.6,Win32,60,,,,,,,,,,,
,,,,,,,,,,,,,,a,1,1.922615,space,0.303345,0,159,159,183,1,0_targ_16_dist_red/trial9.png,,,0,16,redHorizontal,a,43,27,Male,2021-03-02_17h34.18.739,exp11,2020.2.6,Win32,60,,,,,,,,,,,
,,,,,,,,,,,,,,a,1,1.27693,space,0.110255,0,160,160,170,1,0_targ_10_dist_red/trial21.png,,,0,10,redHorizontal,a,43,27,Male,2021-03-02_17h34.18.739,exp11,2020.2.6,Win32,60,,,,,,,,,,,
,,,,,,,,,,,,,,a,1,1.19761,space,0.071225,0,161,161,195,1,0_targ_16_dist_red/trial21.png,,,0,16,redHorizontal,a,43,27,Male,2021-03-02_17h34.18.739,exp11,2020.2.6,Win32,60,,,,,,,,,,,
,,,,,,,,,,,,,,a,1,1.52793,space,0.08443,0,162,162,142,1,0_targ_4_dist_red/trial18.png,,,0,4,redHorizontal,a,43,27,Male,2021-03-02_17h34.18.739,exp11,2020.2.6,Win32,60,,,,,,,,,,,
,,,,,,,,,,,,,,a,1,0.676785,space,0.081145,0,163,163,127,1,0_targ_4_dist_red/trial3.png,,,0,4,redHorizontal,a,43,27,Male,2021-03-02_17h34.18.739,exp11,2020.2.6,Win32,60,,,,,,,,,,,
,,,,,,,,,,,,,,a,1,1.39869,space,0.114675,0,164,164,163,1,0_targ_10_dist_red/trial14.png,,,0,10,redHorizontal,a,43,27,Male,2021-03-02_17h34.18.739,exp11,2020.2.6,Win32,60,,,,,,,,,,,
,,,,,,,,,,,,,,p,1,1.460885,space,0.130695,0,165,165,76,1,15_dist_red/trial2.png,,,1,15,redHorizontal,p,43,27,Male,2021-03-02_17h34.18.739,exp11,2020.2.6,Win32,60,,,,,,,,,,,
,,,,,,,,,,,,,,a,1,2.961445,space,0.11427,0,166,166,177,1,0_targ_16_dist_red/trial3.png,,,0,16,redHorizontal,a,43,27,Male,2021-03-02_17h34.18.739,exp11,2020.2.6,Win32,60,,,,,,,,,,,
,,,,,,,,,,,,,,a,1,2.01329,space,0.05267,0,167,167,136,1,0_targ_4_dist_red/trial12.png,,,0,4,redHorizontal,a,43,27,Male,2021-03-02_17h34.18.739,exp11,2020.2.6,Win32,60,,,,,,,,,,,
,,,,,,,,,,,,,,a,1,2.64036,space,0.06352,0,168,168,193,1,0_targ_16_dist_red/trial19.png,,,0,16,redHorizontal,a,43,27,Male,2021-03-02_17h34.18.739,exp11,2020.2.6,Win32,60,,,,,,,,,,,
,,,,,,,,,,,,,,a,1,0.84061,space,0.08494,0,169,169,122,1,0_targ_1_dist_red/trial23.png,,,0,1,redHorizontal,a,43,27,Male,2021-03-02_17h34.18.739,exp11,2020.2.6,Win32,60,,,,,,,,,,,
,,,,,,,,,,,,,,p,1,1.163485,space,0.058415,0,170,170,49,1,3_dist_red/trial25.png,,,1,3,redHorizontal,p,43,27,Male,2021-03-02_17h34.18.739,exp11,2020.2.6,Win32,60,,,,,,,,,,,
,,,,,,,,,,,,,,a,1,1.734645,space,0.0541,0,171,171,166,1,0_targ_10_dist_red/trial17.png,,,0,10,redHorizontal,a,43,27,Male,2021-03-02_17h34.18.739,exp11,2020.2.6,Win32,60,,,,,,,,,,,
,,,,,,,,,,,,,,a,1,2.31544,space,0.05853,0,172,172,175,1,0_targ_16_dist_red/trial1.png,,,0,16,redHorizontal,a,43,27,Male,2021-03-02_17h34.18.739,exp11,2020.2.6,Win32,60,,,,,,,,,,,
,,,,,,,,,,,,,,a,1,1.121135,space,0.07016,0,173,173,156,1,0_targ_10_dist_red/trial7.png,,,0,10,redHorizontal,a,43,27,Male,2021-03-02_17h34.18.739,exp11,2020.2.6,Win32,60,,,,,,,,,,,
,,,,,,,,,,,,,,p,1,0.965995,space,0.054975,0,174,174,1,1,0_dist_red/trial2.png,,,1,0,redHorizontal,p,43,27,Male,2021-03-02_17h34.18.739,exp11,2020.2.6,Win32,60,,,,,,,,,,,
,,,,,,,,,,,,,,p,1,0.90214,space,0.071085,0,175,175,94,1,15_dist_red/trial20.png,,,1,15,redHorizontal,p,43,27,Male,2021-03-02_17h34.18.739,exp11,2020.2.6,Win32,60,,,,,,,,,,,
,,,,,,,,,,,,,,a,1,1.056635,space,0.0905,0,176,176,150,1,0_targ_10_dist_red/trial1.png,,,0,10,redHorizontal,a,43,27,Male,2021-03-02_17h34.18.739,exp11,2020.2.6,Win32,60,,,,,,,,,,,
,,,,,,,,,,,,,,p,1,1.31448,space,0.07725,0,177,177,96,1,15_dist_red/trial22.png,,,1,15,redHorizontal,p,43,27,Male,2021-03-02_17h34.18.739,exp11,2020.2.6,Win32,60,,,,,,,,,,,
,,,,,,,,,,,,,,p,1,0.818405,space,0.10218,0,178,178,57,1,9_dist_red/trial8.png,,,1,9,redHorizontal,p,43,27,Male,2021-03-02_17h34.18.739,exp11,2020.2.6,Win32,60,,,,,,,,,,,
,,,,,,,,,,,,,,a,1,1.475745,space,0.08434,0,179,179,155,1,0_targ_10_dist_red/trial6.png,,,0,10,redHorizontal,a,43,27,Male,2021-03-02_17h34.18.739,exp11,2020.2.6,Win32,60,,,,,,,,,,,
,,,,,,,,,,,,,,a,1,1.339945,space,0.068145,0,180,180,173,1,0_targ_10_dist_red/trial24.png,,,0,10,redHorizontal,a,43,27,Male,2021-03-02_17h34.18.739,exp11,2020.2.6,Win32,60,,,,,,,,,,,
,,,,,,,,,,,,,,p,1,1.12531,space,0.10141,0,181,181,79,1,15_dist_red/trial5.png,,,1,15,redHorizontal,p,43,27,Male,2021-03-02_17h34.18.739,exp11,2020.2.6,Win32,60,,,,,,,,,,,
,,,,,,,,,,,,,,a,1,1.12285,space,0.067455,0,182,182,197,1,0_targ_16_dist_red/trial23.png,,,0,16,redHorizontal,a,43,27,Male,2021-03-02_17h34.18.739,exp11,2020.2.6,Win32,60,,,,,,,,,,,
,,,,,,,,,,,,,,a,1,1.624055,space,0.055495,0,183,183,179,1,0_targ_16_dist_red/trial5.png,,,0,16,redHorizontal,a,43,27,Male,2021-03-02_17h34.18.739,exp11,2020.2.6,Win32,60,,,,,,,,,,,
,,,,,,,,,,,,,,p,1,1.757605,space,0.105495,0,184,184,81,1,15_dist_red/trial7.png,,,1,15,redHorizontal,p,43,27,Male,2021-03-02_17h34.18.739,exp11,2020.2.6,Win32,60,,,,,,,,,,,
,,,,,,,,,,,,,,a,1,1.011805,space,0.068635,0,185,185,180,1,0_targ_16_dist_red/trial6.png,,,0,16,redHorizontal,a,43,27,Male,2021-03-02_17h34.18.739,exp11,2020.2.6,Win32,60,,,,,,,,,,,
,,,,,,,,,,,,,,p,1,0.73851,space,0.071085,0,186,186,53,1,9_dist_red/trial4.png,,,1,9,redHorizontal,p,43,27,Male,2021-03-02_17h34.18.739,exp11,2020.2.6,Win32,60,,,,,,,,,,,
,,,,,,,,,,,,,,p,1,1.98984,space,0.067465,0,187,187,80,1,15_dist_red/trial6.png,,,1,15,redHorizontal,p,43,27,Male,2021-03-02_17h34.18.739,exp11,2020.2.6,Win32,60,,,,,,,,,,,
,,,,,,,,,,,,,,a,1,1.09644,space,0.10205,0,188,188,194,1,0_targ_16_dist_red/trial20.png,,,0,16,redHorizontal,a,43,27,Male,2021-03-02_17h34.18.739,exp11,2020.2.6,Win32,60,,,,,,,,,,,
,,,,,,,,,,,,,,a,1,0.84505,space,0.167765,0,189,189,149,1,0_targ_4_dist_red/trial25.png,,,0,4,redHorizontal,a,43,27,Male,2021-03-02_17h34.18.739,exp11,2020.2.6,Win32,60,,,,,,,,,,,
,,,,,,,,,,,,,,a,1,1.58529,space,0.08286,0,190,190,182,1,0_targ_16_dist_red/trial8.png,,,0,16,redHorizontal,a,43,27,Male,2021-03-02_17h34.18.739,exp11,2020.2.6,Win32,60,,,,,,,,,,,
,,,,,,,,,,,,,,p,1,0.740685,space,0.085195,0,191,191,47,1,3_dist_red/trial23.png,,,1,3,redHorizontal,p,43,27,Male,2021-03-02_17h34.18.739,exp11,2020.2.6,Win32,60,,,,,,,,,,,
,,,,,,,,,,,,,,p,1,0.845965,space,0.03586,0,192,192,27,1,3_dist_red/trial3.png,,,1,3,redHorizontal,p,43,27,Male,2021-03-02_17h34.18.739,exp11,2020.2.6,Win32,60,,,,,,,,,,,
,,,,,,,,,,,,,,a,1,1.37421,space,0.055225,0,193,193,131,1,0_targ_4_dist_red/trial7.png,,,0,4,redHorizontal,a,43,27,Male,2021-03-02_17h34.18.739,exp11,2020.2.6,Win32,60,,,,,,,,,,,
,,,,,,,,,,,,,,p,1,2.6101,space,0.064765,0,194,194,95,1,15_dist_red/trial21.png,,,1,15,redHorizontal,p,43,27,Male,2021-03-02_17h34.18.739,exp11,2020.2.6,Win32,60,,,,,,,,,,,
,,,,,,,,,,,,,,p,1,0.61598,space,0.068375,0,195,195,8,1,0_dist_red/trial9.png,,,1,0,redHorizontal,p,43,27,Male,2021-03-02_17h34.18.739,exp11,2020.2.6,Win32,60,,,,,,,,,,,
,,,,,,,,,,,,,,p,0,0.780645,space,0.989165,0,196,196,100,1,0_targ_1_dist_red/trial1.png,,,0,1,redHorizontal,a,43,27,Male,2021-03-02_17h34.18.739,exp11,2020.2.6,Win32,60,,,,,,,,,,,
,,,,,,,,,,,,,,a,1,1.20909,space,0.15,0,197,197,171,1,0_targ_10_dist_red/trial22.png,,,0,10,redHorizontal,a,43,27,Male,2021-03-02_17h34.18.739,exp11,2020.2.6,Win32,60,,,,,,,,,,,
,,,,,,,,,,,,,,p,1,0.780365,space,0.1017,0,198,198,10,1,0_dist_red/trial11.png,,,1,0,redHorizontal,p,43,27,Male,2021-03-02_17h34.18.739,exp11,2020.2.6,Win32,60,,,,,,,,,,,
,,,,,,,,,,,,,,p,1,1.458765,space,0.07018,0,199,199,99,1,15_dist_red/trial25.png,,,1,15,redHorizontal,p,43,27,Male,2021-03-02_17h34.18.739,exp11,2020.2.6,Win32,60,,,,,,,,,,,
,,,,,,,,,,,,,,,,,,,,,,,,,,,,,,,43,27,Male,2021-03-02_17h34.18.739,exp11,2020.2.6,Win32,60,0,0,0,1,1,conRed.xlsx,red horizontal,Look for red horizontal bar (target) and indicate if it is present or absent in the array. If red horizontal target is present press 'p' and if absent press 'a'. Press SPACE to start.,,,
,,,,,,,,,,space,7.234265,space,6.871065,a,1,1.1146,space,0.95835,0,0,0,130,1,0_targ_4_dist_green/trial6.png,,,0,4,greenverival,a,43,27,Male,2021-03-02_17h34.18.739,exp11,2020.2.6,Win32,60,,,,,,,,,,,
,,,,,,,,,,,,,,p,1,1.1992,space,0.492045,0,1,1,71,1,9_dist_green/trial22.png,,,1,9,greenverival,p,43,27,Male,2021-03-02_17h34.18.739,exp11,2020.2.6,Win32,60,,,,,,,,,,,
,,,,,,,,,,,,,,p,1,0.62041,space,0.274495,0,2,2,20,1,0_dist_green/trial21.png,,,1,0,greenverival,p,43,27,Male,2021-03-02_17h34.18.739,exp11,2020.2.6,Win32,60,,,,,,,,,,,
,,,,,,,,,,,,,,a,1,0.803135,space,0.135935,0,3,3,103,1,0_targ_1_dist_green/trial4.png,,,0,1,greenverival,a,43,27,Male,2021-03-02_17h34.18.739,exp11,2020.2.6,Win32,60,,,,,,,,,,,
,,,,,,,,,,,,,,p,1,1.400455,space,0.31739,0,4,4,85,1,15_dist_green/trial11.png,,,1,15,greenverival,p,43,27,Male,2021-03-02_17h34.18.739,exp11,2020.2.6,Win32,60,,,,,,,,,,,
,,,,,,,,,,,,,,a,1,1.328275,space,0.43843,0,5,5,144,1,0_targ_4_dist_green/trial20.png,,,0,4,greenverival,a,43,27,Male,2021-03-02_17h34.18.739,exp11,2020.2.6,Win32,60,,,,,,,,,,,
,,,,,,,,,,,,,,p,1,0.948505,space,0.00084,0,6,6,42,1,3_dist_green/trial18.png,,,1,3,greenverival,p,43,27,Male,2021-03-02_17h34.18.739,exp11,2020.2.6,Win32,60,,,,,,,,,,,
,,,,,,,,,,,,,,a,1,1.20906,space,0.10155,0,7,7,138,1,0_targ_4_dist_green/trial14.png,,,0,4,greenverival,a,43,27,Male,2021-03-02_17h34.18.739,exp11,2020.2.6,Win32,60,,,,,,,,,,,
,,,,,,,,,,,,,,a,1,0.796425,space,0.16972,0,8,8,120,1,0_targ_1_dist_green/trial21.png,,,0,1,greenverival,a,43,27,Male,2021-03-02_17h34.18.739,exp11,2020.2.6,Win32,60,,,,,,,,,,,
,,,,,,,,,,,,,,p,0,0.83717,space,1.95671,0,9,9,162,1,0_targ_10_dist_green/trial13.png,,,0,10,greenverival,a,43,27,Male,2021-03-02_17h34.18.739,exp11,2020.2.6,Win32,60,,,,,,,,,,,
,,,,,,,,,,,,,,a,1,6.32709,space,0.52537,0,10,10,143,1,0_targ_4_dist_green/trial19.png,,,0,4,greenverival,a,43,27,Male,2021-03-02_17h34.18.739,exp11,2020.2.6,Win32,60,,,,,,,,,,,
,,,,,,,,,,,,,,p,1,0.71332,space,0.46922,0,11,11,64,1,9_dist_green/trial15.png,,,1,9,greenverival,p,43,27,Male,2021-03-02_17h34.18.739,exp11,2020.2.6,Win32,60,,,,,,,,,,,
,,,,,,,,,,,,,,p,1,0.89424,space,0.33869,0,12,12,48,1,3_dist_green/trial24.png,,,1,3,greenverival,p,43,27,Male,2021-03-02_17h34.18.739,exp11,2020.2.6,Win32,60,,,,,,,,,,,
,,,,,,,,,,,,,,a,1,0.93044,space,0.37777,0,13,13,141,1,0_targ_4_dist_green/trial17.png,,,0,4,greenverival,a,43,27,Male,2021-03-02_17h34.18.739,exp11,2020.2.6,Win32,60,,,,,,,,,,,
,,,,,,,,,,,,,,p,1,0.60466,space,0.35129,0,14,14,37,1,3_dist_green/trial13.png,,,1,3,greenverival,p,43,27,Male,2021-03-02_17h34.18.739,exp11,2020.2.6,Win32,60,,,,,,,,,,,
,,,,,,,,,,,,,,a,1,0.795895,space,0.37716,0,15,15,137,1,0_targ_4_dist_green/trial13.png,,,0,4,greenverival,a,43,27,Male,2021-03-02_17h34.18.739,exp11,2020.2.6,Win32,60,,,,,,,,,,,
,,,,,,,,,,,,,,p,1,0.52405,space,0.253125,0,16,16,13,1,0_dist_green/trial14.png,,,1,0,greenverival,p,43,27,Male,2021-03-02_17h34.18.739,exp11,2020.2.6,Win32,60,,,,,,,,,,,
,,,,,,,,,,,,,,a,1,0.730195,space,0.46988,0,17,17,122,1,0_targ_1_dist_green/trial23.png,,,0,1,greenverival,a,43,27,Male,2021-03-02_17h34.18.739,exp11,2020.2.6,Win32,60,,,,,,,,,,,
,,,,,,,,,,,,,,a,1,2.083955,space,0.316365,0,18,18,185,1,0_targ_16_dist_green/trial11.png,,,0,16,greenverival,a,43,27,Male,2021-03-02_17h34.18.739,exp11,2020.2.6,Win32,60,,,,,,,,,,,
,,,,,,,,,,,,,,a,1,0.759725,space,0.2236,0,19,19,118,1,0_targ_1_dist_green/trial19.png,,,0,1,greenverival,a,43,27,Male,2021-03-02_17h34.18.739,exp11,2020.2.6,Win32,60,,,,,,,,,,,
,,,,,,,,,,,,,,p,1,0.576355,space,0.2517,0,20,20,46,1,3_dist_green/trial22.png,,,1,3,greenverival,p,43,27,Male,2021-03-02_17h34.18.739,exp11,2020.2.6,Win32,60,,,,,,,,,,,
,,,,,,,,,,,,,,p,1,0.49389,space,0.21509,0,21,21,44,1,3_dist_green/trial20.png,,,1,3,greenverival,p,43,27,Male,2021-03-02_17h34.18.739,exp11,2020.2.6,Win32,60,,,,,,,,,,,
,,,,,,,,,,,,,,a,1,0.69755,space,0.21971,0,22,22,148,1,0_targ_4_dist_green/trial24.png,,,0,4,greenverival,a,43,27,Male,2021-03-02_17h34.18.739,exp11,2020.2.6,Win32,60,,,,,,,,,,,
,,,,,,,,,,,,,,a,1,0.844315,space,0.15191,0,23,23,126,1,0_targ_4_dist_green/trial2.png,,,0,4,greenverival,a,43,27,Male,2021-03-02_17h34.18.739,exp11,2020.2.6,Win32,60,,,,,,,,,,,
,,,,,,,,,,,,,,p,1,0.711615,space,0.167095,0,24,24,59,1,9_dist_green/trial10.png,,,1,9,greenverival,p,43,27,Male,2021-03-02_17h34.18.739,exp11,2020.2.6,Win32,60,,,,,,,,,,,
,,,,,,,,,,,,,,p,1,0.617565,space,0.136615,0,25,25,7,1,0_dist_green/trial8.png,,,1,0,greenverival,p,43,27,Male,2021-03-02_17h34.18.739,exp11,2020.2.6,Win32,60,,,,,,,,,,,
,,,,,,,,,,,,,,p,1,0.66641,space,0.12572,0,26,26,28,1,3_dist_green/trial4.png,,,1,3,greenverival,p,43,27,Male,2021-03-02_17h34.18.739,exp11,2020.2.6,Win32,60,,,,,,,,,,,
,,,,,,,,,,,,,,a,1,0.786355,space,0.085995,0,27,27,142,1,0_targ_4_dist_green/trial18.png,,,0,4,greenverival,a,43,27,Male,2021-03-02_17h34.18.739,exp11,2020.2.6,Win32,60,,,,,,,,,,,
,,,,,,,,,,,,,,a,1,2.668865,space,0.120115,0,28,28,189,1,0_targ_16_dist_green/trial15.png,,,0,16,greenverival,a,43,27,Male,2021-03-02_17h34.18.739,exp11,2020.2.6,Win32,60,,,,,,,,,,,
,,,,,,,,,,,,,,p,1,0.913405,space,0.061035,0,29,29,96,1,15_dist_green/trial22.png,,,1,15,greenverival,p,43,27,Male,2021-03-02_17h34.18.739,exp11,2020.2.6,Win32,60,,,,,,,,,,,
,,,,,,,,,,,,,,p,1,0.872185,space,0.07709,0,30,30,67,1,9_dist_green/trial18.png,,,1,9,greenverival,p,43,27,Male,2021-03-02_17h34.18.739,exp11,2020.2.6,Win32,60,,,,,,,,,,,
,,,,,,,,,,,,,,p,1,0.618595,space,0.063935,0,31,31,24,1,0_dist_green/trial25.png,,,1,0,greenverival,p,43,27,Male,2021-03-02_17h34.18.739,exp11,2020.2.6,Win32,60,,,,,,,,,,,
,,,,,,,,,,,,,,a,1,0.729465,space,0.10173,0,32,32,152,1,0_targ_10_dist_green/trial3.png,,,0,10,greenverival,a,43,27,Male,2021-03-02_17h34.18.739,exp11,2020.2.6,Win32,60,,,,,,,,,,,
,,,,,,,,,,,,,,a,1,0.69044,space,0.10229,0,33,33,104,1,0_targ_1_dist_green/trial5.png,,,0,1,greenverival,a,43,27,Male,2021-03-02_17h34.18.739,exp11,2020.2.6,Win32,60,,,,,,,,,,,
,,,,,,,,,,,,,,p,1,0.57818,space,0.086535,0,34,34,74,1,9_dist_green/trial25.png,,,1,9,greenverival,p,43,27,Male,2021-03-02_17h34.18.739,exp11,2020.2.6,Win32,60,,,,,,,,,,,
,,,,,,,,,,,,,,a,1,1.426075,space,0.052755,0,35,35,199,1,0_targ_16_dist_green/trial25.png,,,0,16,greenverival,a,43,27,Male,2021-03-02_17h34.18.739,exp11,2020.2.6,Win32,60,,,,,,,,,,,
,,,,,,,,,,,,,,a,1,1.140465,space,0.08221,0,36,36,184,1,0_targ_16_dist_green/trial10.png,,,0,16,greenverival,a,43,27,Male,2021-03-02_17h34.18.739,exp11,2020.2.6,Win32,60,,,,,,,,,,,
,,,,,,,,,,,,,,a,1,0.75983,space,0.083715,0,37,37,139,1,0_targ_4_dist_green/trial15.png,,,0,4,greenverival,a,43,27,Male,2021-03-02_17h34.18.739,exp11,2020.2.6,Win32,60,,,,,,,,,,,
,,,,,,,,,,,,,,p,1,0.47534,space,0.06411,0,38,38,6,1,0_dist_green/trial7.png,,,1,0,greenverival,p,43,27,Male,2021-03-02_17h34.18.739,exp11,2020.2.6,Win32,60,,,,,,,,,,,
,,,,,,,,,,,,,,a,1,0.75615,space,0.0941,0,39,39,111,1,0_targ_1_dist_green/trial12.png,,,0,1,greenverival,a,43,27,Male,2021-03-02_17h34.18.739,exp11,2020.2.6,Win32,60,,,,,,,,,,,
,,,,,,,,,,,,,,a,1,1.193375,space,0.083005,0,40,40,192,1,0_targ_16_dist_green/trial18.png,,,0,16,greenverival,a,43,27,Male,2021-03-02_17h34.18.739,exp11,2020.2.6,Win32,60,,,,,,,,,,,
,,,,,,,,,,,,,,a,1,1.211685,space,0.123795,0,41,41,117,1,0_targ_1_dist_green/trial18.png,,,0,1,greenverival,a,43,27,Male,2021-03-02_17h34.18.739,exp11,2020.2.6,Win32,60,,,,,,,,,,,
,,,,,,,,,,,,,,a,1,0.92519,space,0.15161,0,42,42,149,1,0_targ_4_dist_green/trial25.png,,,0,4,greenverival,a,43,27,Male,2021-03-02_17h34.18.739,exp11,2020.2.6,Win32,60,,,,,,,,,,,
,,,,,,,,,,,,,,p,1,0.790815,space,0.073975,0,43,43,89,1,15_dist_green/trial15.png,,,1,15,greenverival,p,43,27,Male,2021-03-02_17h34.18.739,exp11,2020.2.6,Win32,60,,,,,,,,,,,
,,,,,,,,,,,,,,a,1,0.822735,space,0.051075,0,44,44,129,1,0_targ_4_dist_green/trial5.png,,,0,4,greenverival,a,43,27,Male,2021-03-02_17h34.18.739,exp11,2020.2.6,Win32,60,,,,,,,,,,,
,,,,,,,,,,,,,,a,1,0.808985,space,0.08876,0,45,45,155,1,0_targ_10_dist_green/trial6.png,,,0,10,greenverival,a,43,27,Male,2021-03-02_17h34.18.739,exp11,2020.2.6,Win32,60,,,,,,,,,,,
,,,,,,,,,,,,,,a,1,0.793055,space,0.1002,0,46,46,119,1,0_targ_1_dist_green/trial20.png,,,0,1,greenverival,a,43,27,Male,2021-03-02_17h34.18.739,exp11,2020.2.6,Win32,60,,,,,,,,,,,
,,,,,,,,,,,,,,p,1,0.744845,space,0.105165,0,47,47,33,1,3_dist_green/trial9.png,,,1,3,greenverival,p,43,27,Male,2021-03-02_17h34.18.739,exp11,2020.2.6,Win32,60,,,,,,,,,,,
,,,,,,,,,,,,,,a,1,0.71321,space,0.05188,0,48,48,170,1,0_targ_10_dist_green/trial21.png,,,0,10,greenverival,a,43,27,Male,2021-03-02_17h34.18.739,exp11,2020.2.6,Win32,60,,,,,,,,,,,
,,,,,,,,,,,,,,a,1,0.975495,space,0.084905,0,49,49,169,1,0_targ_10_dist_green/trial20.png,,,0,10,greenverival,a,43,27,Male,2021-03-02_17h34.18.739,exp11,2020.2.6,Win32,60,,,,,,,,,,,
,,,,,,,,,,,,,,p,1,1.375845,space,0.063975,0,50,50,77,1,15_dist_green/trial3.png,,,1,15,greenverival,p,43,27,Male,2021-03-02_17h34.18.739,exp11,2020.2.6,Win32,60,,,,,,,,,,,
,,,,,,,,,,,,,,p,1,0.88027,space,0.06736,0,51,51,92,1,15_dist_green/trial18.png,,,1,15,greenverival,p,43,27,Male,2021-03-02_17h34.18.739,exp11,2020.2.6,Win32,60,,,,,,,,,,,
,,,,,,,,,,,,,,p,1,0.779665,space,0.054265,0,52,52,5,1,0_dist_green/trial6.png,,,1,0,greenverival,p,43,27,Male,2021-03-02_17h34.18.739,exp11,2020.2.6,Win32,60,,,,,,,,,,,
,,,,,,,,,,,,,,a,1,1.78722,space,0.075555,0,53,53,172,1,0_targ_10_dist_green/trial23.png,,,0,10,greenverival,a,43,27,Male,2021-03-02_17h34.18.739,exp11,2020.2.6,Win32,60,,,,,,,,,,,
,,,,,,,,,,,,,,p,1,0.5573,space,0.08082,0,54,54,17,1,0_dist_green/trial18.png,,,1,0,greenverival,p,43,27,Male,2021-03-02_17h34.18.739,exp11,2020.2.6,Win32,60,,,,,,,,,,,
,,,,,,,,,,,,,,p,1,1.20916,space,0.11952,0,55,55,95,1,15_dist_green/trial21.png,,,1,15,greenverival,p,43,27,Male,2021-03-02_17h34.18.739,exp11,2020.2.6,Win32,60,,,,,,,,,,,
,,,,,,,,,,,,,,p,1,0.856905,space,0.09253,0,56,56,58,1,9_dist_green/trial9.png,,,1,9,greenverival,p,43,27,Male,2021-03-02_17h34.18.739,exp11,2020.2.6,Win32,60,,,,,,,,,,,
,,,,,,,,,,,,,,a,1,0.98942,space,0.06751,0,57,57,195,1,0_targ_16_dist_green/trial21.png,,,0,16,greenverival,a,43,27,Male,2021-03-02_17h34.18.739,exp11,2020.2.6,Win32,60,,,,,,,,,,,
,,,,,,,,,,,,,,p,1,0.80866,space,0.13229,0,58,58,90,1,15_dist_green/trial16.png,,,1,15,greenverival,p,43,27,Male,2021-03-02_17h34.18.739,exp11,2020.2.6,Win32,60,,,,,,,,,,,
,,,,,,,,,,,,,,a,0,1.496585,space,1.786815,0,59,59,91,1,15_dist_green/trial17.png,,,1,15,greenverival,p,43,27,Male,2021-03-02_17h34.18.739,exp11,2020.2.6,Win32,60,,,,,,,,,,,
,,,,,,,,,,,,,,a,1,5.557845,space,0.071695,0,60,60,174,1,0_targ_10_dist_green/trial25.png,,,0,10,greenverival,a,43,27,Male,2021-03-02_17h34.18.739,exp11,2020.2.6,Win32,60,,,,,,,,,,,
,,,,,,,,,,,,,,a,1,1.5138,space,0.1005,0,61,61,182,1,0_targ_16_dist_green/trial8.png,,,0,16,greenverival,a,43,27,Male,2021-03-02_17h34.18.739,exp11,2020.2.6,Win32,60,,,,,,,,,,,
,,,,,,,,,,,,,,p,1,0.62082,space,0.23855,0,62,62,4,1,0_dist_green/trial5.png,,,1,0,greenverival,p,43,27,Male,2021-03-02_17h34.18.739,exp11,2020.2.6,Win32,60,,,,,,,,,,,
,,,,,,,,,,,,,,p,1,0.703775,space,0.05549,0,63,63,47,1,3_dist_green/trial23.png,,,1,3,greenverival,p,43,27,Male,2021-03-02_17h34.18.739,exp11,2020.2.6,Win32,60,,,,,,,,,,,
,,,,,,,,,,,,,,p,1,0.665765,space,0.05236,0,64,64,45,1,3_dist_green/trial21.png,,,1,3,greenverival,p,43,27,Male,2021-03-02_17h34.18.739,exp11,2020.2.6,Win32,60,,,,,,,,,,,
,,,,,,,,,,,,,,a,1,0.89179,space,0.080665,0,65,65,128,1,0_targ_4_dist_green/trial4.png,,,0,4,greenverival,a,43,27,Male,2021-03-02_17h34.18.739,exp11,2020.2.6,Win32,60,,,,,,,,,,,
,,,,,,,,,,,,,,p,1,0.523935,space,0.067895,0,66,66,23,1,0_dist_green/trial24.png,,,1,0,greenverival,p,43,27,Male,2021-03-02_17h34.18.739,exp11,2020.2.6,Win32,60,,,,,,,,,,,
,,,,,,,,,,,,,,p,1,0.67451,space,0.086535,0,67,67,35,1,3_dist_green/trial11.png,,,1,3,greenverival,p,43,27,Male,2021-03-02_17h34.18.739,exp11,2020.2.6,Win32,60,,,,,,,,,,,
,,,,,,,,,,,,,,a,1,0.80097,space,0.057875,0,68,68,135,1,0_targ_4_dist_green/trial11.png,,,0,4,greenverival,a,43,27,Male,2021-03-02_17h34.18.739,exp11,2020.2.6,Win32,60,,,,,,,,,,,
,,,,,,,,,,,,,,p,1,0.90484,space,0.06985,0,69,69,50,1,9_dist_green/trial1.png,,,1,9,greenverival,p,43,27,Male,2021-03-02_17h34.18.739,exp11,2020.2.6,Win32,60,,,,,,,,,,,
,,,,,,,,,,,,,,p,1,0.64019,space,0.08664,0,70,70,11,1,0_dist_green/trial12.png,,,1,0,greenverival,p,43,27,Male,2021-03-02_17h34.18.739,exp11,2020.2.6,Win32,60,,,,,,,,,,,
,,,,,,,,,,,,,,p,1,0.611665,space,0.1089,0,71,71,29,1,3_dist_green/trial5.png,,,1,3,greenverival,p,43,27,Male,2021-03-02_17h34.18.739,exp11,2020.2.6,Win32,60,,,,,,,,,,,
,,,,,,,,,,,,,,p,1,0.694355,space,0.109835,0,72,72,94,1,15_dist_green/trial20.png,,,1,15,greenverival,p,43,27,Male,2021-03-02_17h34.18.739,exp11,2020.2.6,Win32,60,,,,,,,,,,,
,,,,,,,,,,,,,,a,1,0.884555,space,0.073365,0,73,73,183,1,0_targ_16_dist_green/trial9.png,,,0,16,greenverival,a,43,27,Male,2021-03-02_17h34.18.739,exp11,2020.2.6,Win32,60,,,,,,,,,,,
,,,,,,,,,,,,,,a,1,0.69098,space,0.102415,0,74,74,136,1,0_targ_4_dist_green/trial12.png,,,0,4,greenverival,a,43,27,Male,2021-03-02_17h34.18.739,exp11,2020.2.6,Win32,60,,,,,,,,,,,
,,,,,,,,,,,,,,p,1,0.83651,space,0.057655,0,75,75,93,1,15_dist_green/trial19.png,,,1,15,greenverival,p,43,27,Male,2021-03-02_17h34.18.739,exp11,2020.2.6,Win32,60,,,,,,,,,,,
,,,,,,,,,,,,,,p,1,0.735,space,0.10577,0,76,76,40,1,3_dist_green/trial16.png,,,1,3,greenverival,p,43,27,Male,2021-03-02_17h34.18.739,exp11,2020.2.6,Win32,60,,,,,,,,,,,
,,,,,,,,,,,,,,a,1,0.726575,space,0.10501,0,77,77,177,1,0_targ_16_dist_green/trial3.png,,,0,16,greenverival,a,43,27,Male,2021-03-02_17h34.18.739,exp11,2020.2.6,Win32,60,,,,,,,,,,,
,,,,,,,,,,,,,,a,1,0.810875,space,0.05247,0,78,78,107,1,0_targ_1_dist_green/trial8.png,,,0,1,greenverival,a,43,27,Male,2021-03-02_17h34.18.739,exp11,2020.2.6,Win32,60,,,,,,,,,,,
,,,,,,,,,,,,,,a,1,0.625125,space,0.0722,0,79,79,114,1,0_targ_1_dist_green/trial15.png,,,0,1,greenverival,a,43,27,Male,2021-03-02_17h34.18.739,exp11,2020.2.6,Win32,60,,,,,,,,,,,
,,,,,,,,,,,,,,p,1,0.66137,space,0.142675,0,80,80,14,1,0_dist_green/trial15.png,,,1,0,greenverival,p,43,27,Male,2021-03-02_17h34.18.739,exp11,2020.2.6,Win32,60,,,,,,,,,,,
,,,,,,,,,,,,,,a,1,0.59287,space,0.086035,0,81,81,163,1,0_targ_10_dist_green/trial14.png,,,0,10,greenverival,a,43,27,Male,2021-03-02_17h34.18.739,exp11,2020.2.6,Win32,60,,,,,,,,,,,
,,,,,,,,,,,,,,p,1,0.72837,space,0.07652,0,82,82,54,1,9_dist_green/trial5.png,,,1,9,greenverival,p,43,27,Male,2021-03-02_17h34.18.739,exp11,2020.2.6,Win32,60,,,,,,,,,,,
,,,,,,,,,,,,,,p,1,0.8373,space,0.080945,0,83,83,83,1,15_dist_green/trial9.png,,,1,15,greenverival,p,43,27,Male,2021-03-02_17h34.18.739,exp11,2020.2.6,Win32,60,,,,,,,,,,,
,,,,,,,,,,,,,,p,1,0.70966,space,0.03425,0,84,84,26,1,3_dist_green/trial2.png,,,1,3,greenverival,p,43,27,Male,2021-03-02_17h34.18.739,exp11,2020.2.6,Win32,60,,,,,,,,,,,
,,,,,,,,,,,,,,a,1,0.856085,space,0.07174,0,85,85,197,1,0_targ_16_dist_green/trial23.png,,,0,16,greenverival,a,43,27,Male,2021-03-02_17h34.18.739,exp11,2020.2.6,Win32,60,,,,,,,,,,,
,,,,,,,,,,,,,,p,1,0.72195,space,0.08287,0,86,86,78,1,15_dist_green/trial4.png,,,1,15,greenverival,p,43,27,Male,2021-03-02_17h34.18.739,exp11,2020.2.6,Win32,60,,,,,,,,,,,
,,,,,,,,,,,,,,p,1,0.939625,space,0.089205,0,87,87,38,1,3_dist_green/trial14.png,,,1,3,greenverival,p,43,27,Male,2021-03-02_17h34.18.739,exp11,2020.2.6,Win32,60,,,,,,,,,,,
,,,,,,,,,,,,,,a,1,0.923365,space,0.08979,0,88,88,124,1,0_targ_1_dist_green/trial25.png,,,0,1,greenverival,a,43,27,Male,2021-03-02_17h34.18.739,exp11,2020.2.6,Win32,60,,,,,,,,,,,
,,,,,,,,,,,,,,a,1,1.411995,space,0.02264,0,89,89,166,1,0_targ_10_dist_green/trial17.png,,,0,10,greenverival,a,43,27,Male,2021-03-02_17h34.18.739,exp11,2020.2.6,Win32,60,,,,,,,,,,,
,,,,,,,,,,,,,,p,1,0.55315,space,0.05109,0,90,90,84,1,15_dist_green/trial10.png,,,1,15,greenverival,p,43,27,Male,2021-03-02_17h34.18.739,exp11,2020.2.6,Win32,60,,,,,,,,,,,
,,,,,,,,,,,,,,a,1,1.026185,space,0.07025,0,91,91,109,1,0_targ_1_dist_green/trial10.png,,,0,1,greenverival,a,43,27,Male,2021-03-02_17h34.18.739,exp11,2020.2.6,Win32,60,,,,,,,,,,,
,,,,,,,,,,,,,,p,1,0.732335,space,0.044325,0,92,92,19,1,0_dist_green/trial20.png,,,1,0,greenverival,p,43,27,Male,2021-03-02_17h34.18.739,exp11,2020.2.6,Win32,60,,,,,,,,,,,
,,,,,,,,,,,,,,p,1,0.608255,space,0.0665,0,93,93,1,1,0_dist_green/trial2.png,,,1,0,greenverival,p,43,27,Male,2021-03-02_17h34.18.739,exp11,2020.2.6,Win32,60,,,,,,,,,,,
,,,,,,,,,,,,,,p,1,0.96299,space,0.05441,0,94,94,99,1,15_dist_green/trial25.png,,,1,15,greenverival,p,43,27,Male,2021-03-02_17h34.18.739,exp11,2020.2.6,Win32,60,,,,,,,,,,,
,,,,,,,,,,,,,,a,1,0.71227,space,0.08549,0,95,95,158,1,0_targ_10_dist_green/trial9.png,,,0,10,greenverival,a,43,27,Male,2021-03-02_17h34.18.739,exp11,2020.2.6,Win32,60,,,,,,,,,,,
,,,,,,,,,,,,,,a,1,0.69141,space,0.073295,0,96,96,171,1,0_targ_10_dist_green/trial22.png,,,0,10,greenverival,a,43,27,Male,2021-03-02_17h34.18.739,exp11,2020.2.6,Win32,60,,,,,,,,,,,
,,,,,,,,,,,,,,p,1,0.65822,space,0.067825,0,97,97,3,1,0_dist_green/trial4.png,,,1,0,greenverival,p,43,27,Male,2021-03-02_17h34.18.739,exp11,2020.2.6,Win32,60,,,,,,,,,,,
,,,,,,,,,,,,,,p,1,0.99566,space,0.11886,0,98,98,80,1,15_dist_green/trial6.png,,,1,15,greenverival,p,43,27,Male,2021-03-02_17h34.18.739,exp11,2020.2.6,Win32,60,,,,,,,,,,,
,,,,,,,,,,,,,,a,1,1.14391,space,0.085005,0,99,99,123,1,0_targ_1_dist_green/trial24.png,,,0,1,greenverival,a,43,27,Male,2021-03-02_17h34.18.739,exp11,2020.2.6,Win32,60,,,,,,,,,,,
,,,,,,,,,,,,,,p,1,0.628755,space,0.07223,0,100,100,2,1,0_dist_green/trial3.png,,,1,0,greenverival,p,43,27,Male,2021-03-02_17h34.18.739,exp11,2020.2.6,Win32,60,,,,,,,,,,,
,,,,,,,,,,,,,,a,1,0.708655,space,0.077025,0,101,101,108,1,0_targ_1_dist_green/trial9.png,,,0,1,greenverival,a,43,27,Male,2021-03-02_17h34.18.739,exp11,2020.2.6,Win32,60,,,,,,,,,,,
,,,,,,,,,,,,,,p,1,0.64273,space,0.02737,0,102,102,55,1,9_dist_green/trial6.png,,,1,9,greenverival,p,43,27,Male,2021-03-02_17h34.18.739,exp11,2020.2.6,Win32,60,,,,,,,,,,,
,,,,,,,,,,,,,,a,1,0.873745,space,0.054855,0,103,103,180,1,0_targ_16_dist_green/trial6.png,,,0,16,greenverival,a,43,27,Male,2021-03-02_17h34.18.739,exp11,2020.2.6,Win32,60,,,,,,,,,,,
,,,,,,,,,,,,,,a,1,1.09721,space,0.08607,0,104,104,121,1,0_targ_1_dist_green/trial22.png,,,0,1,greenverival,a,43,27,Male,2021-03-02_17h34.18.739,exp11,2020.2.6,Win32,60,,,,,,,,,,,
,,,,,,,,,,,,,,a,1,1.21004,space,0.057005,0,105,105,176,1,0_targ_16_dist_green/trial2.png,,,0,16,greenverival,a,43,27,Male,2021-03-02_17h34.18.739,exp11,2020.2.6,Win32,60,,,,,,,,,,,
,,,,,,,,,,,,,,a,1,0.60731,space,0.080615,0,106,106,181,1,0_targ_16_dist_green/trial7.png,,,0,16,greenverival,a,43,27,Male,2021-03-02_17h34.18.739,exp11,2020.2.6,Win32,60,,,,,,,,,,,
,,,,,,,,,,,,,,a,0,0.628885,space,0.810455,0,107,107,53,1,9_dist_green/trial4.png,,,1,9,greenverival,p,43,27,Male,2021-03-02_17h34.18.739,exp11,2020.2.6,Win32,60,,,,,,,,,,,
,,,,,,,,,,,,,,p,1,0.757375,space,0.10167,0,108,108,16,1,0_dist_green/trial17.png,,,1,0,greenverival,p,43,27,Male,2021-03-02_17h34.18.739,exp11,2020.2.6,Win32,60,,,,,,,,,,,
,,,,,,,,,,,,,,p,1,0.654485,space,0.10264,0,109,109,86,1,15_dist_green/trial12.png,,,1,15,greenverival,p,43,27,Male,2021-03-02_17h34.18.739,exp11,2020.2.6,Win32,60,,,,,,,,,,,
,,,,,,,,,,,,,,p,1,1.27644,space,0.082025,0,110,110,69,1,9_dist_green/trial20.png,,,1,9,greenverival,p,43,27,Male,2021-03-02_17h34.18.739,exp11,2020.2.6,Win32,60,,,,,,,,,,,
,,,,,,,,,,,,,,p,1,0.675125,space,0.088565,0,111,111,73,1,9_dist_green/trial24.png,,,1,9,greenverival,p,43,27,Male,2021-03-02_17h34.18.739,exp11,2020.2.6,Win32,60,,,,,,,,,,,
,,,,,,,,,,,,,,a,1,0.72374,space,0.08472,0,112,112,106,1,0_targ_1_dist_green/trial7.png,,,0,1,greenverival,a,43,27,Male,2021-03-02_17h34.18.739,exp11,2020.2.6,Win32,60,,,,,,,,,,,
,,,,,,,,,,,,,,a,1,0.839245,space,0.09803,0,113,113,164,1,0_targ_10_dist_green/trial15.png,,,0,10,greenverival,a,43,27,Male,2021-03-02_17h34.18.739,exp11,2020.2.6,Win32,60,,,,,,,,,,,
,,,,,,,,,,,,,,p,1,0.57836,space,0.03748,0,114,114,8,1,0_dist_green/trial9.png,,,1,0,greenverival,p,43,27,Male,2021-03-02_17h34.18.739,exp11,2020.2.6,Win32,60,,,,,,,,,,,
,,,,,,,,,,,,,,p,1,0.526875,space,0.060455,0,115,115,62,1,9_dist_green/trial13.png,,,1,9,greenverival,p,43,27,Male,2021-03-02_17h34.18.739,exp11,2020.2.6,Win32,60,,,,,,,,,,,
,,,,,,,,,,,,,,a,1,0.721275,space,0.067155,0,116,116,165,1,0_targ_10_dist_green/trial16.png,,,0,10,greenverival,a,43,27,Male,2021-03-02_17h34.18.739,exp11,2020.2.6,Win32,60,,,,,,,,,,,
,,,,,,,,,,,,,,p,1,0.712405,space,0.60151,0,117,117,51,1,9_dist_green/trial2.png,,,1,9,greenverival,p,43,27,Male,2021-03-02_17h34.18.739,exp11,2020.2.6,Win32,60,,,,,,,,,,,
,,,,,,,,,,,,,,p,1,0.614165,space,0.06894,0,118,118,30,1,3_dist_green/trial6.png,,,1,3,greenverival,p,43,27,Male,2021-03-02_17h34.18.739,exp11,2020.2.6,Win32,60,,,,,,,,,,,
,,,,,,,,,,,,,,a,1,1.29771,space,0.039735,0,119,119,193,1,0_targ_16_dist_green/trial19.png,,,0,16,greenverival,a,43,27,Male,2021-03-02_17h34.18.739,exp11,2020.2.6,Win32,60,,,,,,,,,,,
,,,,,,,,,,,,,,p,1,0.903665,space,0.068755,0,120,120,61,1,9_dist_green/trial12.png,,,1,9,greenverival,p,43,27,Male,2021-03-02_17h34.18.739,exp11,2020.2.6,Win32,60,,,,,,,,,,,
,,,,,,,,,,,,,,p,1,0.77735,space,0.08686,0,121,121,79,1,15_dist_green/trial5.png,,,1,15,greenverival,p,43,27,Male,2021-03-02_17h34.18.739,exp11,2020.2.6,Win32,60,,,,,,,,,,,
,,,,,,,,,,,,,,p,1,0.69107,space,0.05262,0,122,122,81,1,15_dist_green/trial7.png,,,1,15,greenverival,p,43,27,Male,2021-03-02_17h34.18.739,exp11,2020.2.6,Win32,60,,,,,,,,,,,
,,,,,,,,,,,,,,p,1,0.874475,space,0.08496,0,123,123,70,1,9_dist_green/trial21.png,,,1,9,greenverival,p,43,27,Male,2021-03-02_17h34.18.739,exp11,2020.2.6,Win32,60,,,,,,,,,,,
,,,,,,,,,,,,,,p,1,0.64063,space,0.06608,0,124,124,82,1,15_dist_green/trial8.png,,,1,15,greenverival,p,43,27,Male,2021-03-02_17h34.18.739,exp11,2020.2.6,Win32,60,,,,,,,,,,,
,,,,,,,,,,,,,,p,1,0.678195,space,0.1102,0,125,125,27,1,3_dist_green/trial3.png,,,1,3,greenverival,p,43,27,Male,2021-03-02_17h34.18.739,exp11,2020.2.6,Win32,60,,,,,,,,,,,
,,,,,,,,,,,,,,a,1,0.556605,space,0.06877,0,126,126,151,1,0_targ_10_dist_green/trial2.png,,,0,10,greenverival,a,43,27,Male,2021-03-02_17h34.18.739,exp11,2020.2.6,Win32,60,,,,,,,,,,,
,,,,,,,,,,,,,,a,1,0.64491,space,0.072835,0,127,127,160,1,0_targ_10_dist_green/trial11.png,,,0,10,greenverival,a,43,27,Male,2021-03-02_17h34.18.739,exp11,2020.2.6,Win32,60,,,,,,,,,,,
,,,,,,,,,,,,,,a,1,0.72388,space,0.084965,0,128,128,101,1,0_targ_1_dist_green/trial2.png,,,0,1,greenverival,a,43,27,Male,2021-03-02_17h34.18.739,exp11,2020.2.6,Win32,60,,,,,,,,,,,
,,,,,,,,,,,,,,a,1,0.643455,space,0.056365,0,129,129,188,1,0_targ_16_dist_green/trial14.png,,,0,16,greenverival,a,43,27,Male,2021-03-02_17h34.18.739,exp11,2020.2.6,Win32,60,,,,,,,,,,,
,,,,,,,,,,,,,,p,1,0.489465,space,0.074115,0,130,130,22,1,0_dist_green/trial23.png,,,1,0,greenverival,p,43,27,Male,2021-03-02_17h34.18.739,exp11,2020.2.6,Win32,60,,,,,,,,,,,
,,,,,,,,,,,,,,a,1,0.54074,space,0.054135,0,131,131,102,1,0_targ_1_dist_green/trial3.png,,,0,1,greenverival,a,43,27,Male,2021-03-02_17h34.18.739,exp11,2020.2.6,Win32,60,,,,,,,,,,,
,,,,,,,,,,,,,,p,1,1.25848,space,0.072635,0,132,132,63,1,9_dist_green/trial14.png,,,1,9,greenverival,p,43,27,Male,2021-03-02_17h34.18.739,exp11,2020.2.6,Win32,60,,,,,,,,,,,
,,,,,,,,,,,,,,p,1,0.69903,space,0.052395,0,133,133,97,1,15_dist_green/trial23.png,,,1,15,greenverival,p,43,27,Male,2021-03-02_17h34.18.739,exp11,2020.2.6,Win32,60,,,,,,,,,,,
,,,,,,,,,,,,,,a,1,0.836175,space,0.050905,0,134,134,167,1,0_targ_10_dist_green/trial18.png,,,0,10,greenverival,a,43,27,Male,2021-03-02_17h34.18.739,exp11,2020.2.6,Win32,60,,,,,,,,,,,
,,,,,,,,,,,,,,a,1,0.656705,space,0.067525,0,135,135,146,1,0_targ_4_dist_green/trial22.png,,,0,4,greenverival,a,43,27,Male,2021-03-02_17h34.18.739,exp11,2020.2.6,Win32,60,,,,,,,,,,,
,,,,,,,,,,,,,,a,1,0.660645,space,0.0843,0,136,136,156,1,0_targ_10_dist_green/trial7.png,,,0,10,greenverival,a,43,27,Male,2021-03-02_17h34.18.739,exp11,2020.2.6,Win32,60,,,,,,,,,,,
,,,,,,,,,,,,,,a,1,0.678735,space,0.086075,0,137,137,191,1,0_targ_16_dist_green/trial17.png,,,0,16,greenverival,a,43,27,Male,2021-03-02_17h34.18.739,exp11,2020.2.6,Win32,60,,,,,,,,,,,
,,,,,,,,,,,,,,a,1,0.66309,space,0.08833,0,138,138,134,1,0_targ_4_dist_green/trial10.png,,,0,4,greenverival,a,43,27,Male,2021-03-02_17h34.18.739,exp11,2020.2.6,Win32,60,,,,,,,,,,,
,,,,,,,,,,,,,,p,1,0.64112,space,0.04832,0,139,139,9,1,0_dist_green/trial10.png,,,1,0,greenverival,p,43,27,Male,2021-03-02_17h34.18.739,exp11,2020.2.6,Win32,60,,,,,,,,,,,
,,,,,,,,,,,,,,p,1,0.87746,space,0.059525,0,140,140,0,1,0_dist_green/trial1.png,,,1,0,greenverival,p,43,27,Male,2021-03-02_17h34.18.739,exp11,2020.2.6,Win32,60,,,,,,,,,,,
,,,,,,,,,,,,,,a,1,0.81315,space,0.06953,0,141,141,196,1,0_targ_16_dist_green/trial22.png,,,0,16,greenverival,a,43,27,Male,2021-03-02_17h34.18.739,exp11,2020.2.6,Win32,60,,,,,,,,,,,
,,,,,,,,,,,,,,p,1,0.95798,space,0.070955,0,142,142,56,1,9_dist_green/trial7.png,,,1,9,greenverival,p,43,27,Male,2021-03-02_17h34.18.739,exp11,2020.2.6,Win32,60,,,,,,,,,,,
,,,,,,,,,,,,,,a,1,0.709535,space,0.06098,0,143,143,127,1,0_targ_4_dist_green/trial3.png,,,0,4,greenverival,a,43,27,Male,2021-03-02_17h34.18.739,exp11,2020.2.6,Win32,60,,,,,,,,,,,
,,,,,,,,,,,,,,p,1,0.69187,space,0.052815,0,144,144,52,1,9_dist_green/trial3.png,,,1,9,greenverival,p,43,27,Male,2021-03-02_17h34.18.739,exp11,2020.2.6,Win32,60,,,,,,,,,,,
,,,,,,,,,,,,,,a,1,0.589175,space,0.037425,0,145,145,105,1,0_targ_1_dist_green/trial6.png,,,0,1,greenverival,a,43,27,Male,2021-03-02_17h34.18.739,exp11,2020.2.6,Win32,60,,,,,,,,,,,
,,,,,,,,,,,,,,a,1,0.92988,space,0.101415,0,146,146,161,1,0_targ_10_dist_green/trial12.png,,,0,10,greenverival,a,43,27,Male,2021-03-02_17h34.18.739,exp11,2020.2.6,Win32,60,,,,,,,,,,,
,,,,,,,,,,,,,,a,1,1.00055,space,0.06461,0,147,147,175,1,0_targ_16_dist_green/trial1.png,,,0,16,greenverival,a,43,27,Male,2021-03-02_17h34.18.739,exp11,2020.2.6,Win32,60,,,,,,,,,,,
,,,,,,,,,,,,,,p,1,0.85639,space,0.047315,0,148,148,75,1,15_dist_green/trial1.png,,,1,15,greenverival,p,43,27,Male,2021-03-02_17h34.18.739,exp11,2020.2.6,Win32,60,,,,,,,,,,,
,,,,,,,,,,,,,,a,1,1.613325,space,0.05783,0,149,149,145,1,0_targ_4_dist_green/trial21.png,,,0,4,greenverival,a,43,27,Male,2021-03-02_17h34.18.739,exp11,2020.2.6,Win32,60,,,,,,,,,,,
,,,,,,,,,,,,,,p,1,0.61675,space,0.018995,0,150,150,43,1,3_dist_green/trial19.png,,,1,3,greenverival,p,43,27,Male,2021-03-02_17h34.18.739,exp11,2020.2.6,Win32,60,,,,,,,,,,,
,,,,,,,,,,,,,,a,1,0.85824,space,0.018315,0,151,151,178,1,0_targ_16_dist_green/trial4.png,,,0,16,greenverival,a,43,27,Male,2021-03-02_17h34.18.739,exp11,2020.2.6,Win32,60,,,,,,,,,,,
,,,,,,,,,,,,,,a,1,0.94571,space,0.0643,0,152,152,168,1,0_targ_10_dist_green/trial19.png,,,0,10,greenverival,a,43,27,Male,2021-03-02_17h34.18.739,exp11,2020.2.6,Win32,60,,,,,,,,,,,
,,,,,,,,,,,,,,p,1,0.816255,space,0.1362,0,153,153,25,1,3_dist_green/trial1.png,,,1,3,greenverival,p,43,27,Male,2021-03-02_17h34.18.739,exp11,2020.2.6,Win32,60,,,,,,,,,,,
,,,,,,,,,,,,,,p,1,0.59169,space,0.06563,0,154,154,88,1,15_dist_green/trial14.png,,,1,15,greenverival,p,43,27,Male,2021-03-02_17h34.18.739,exp11,2020.2.6,Win32,60,,,,,,,,,,,
,,,,,,,,,,,,,,p,1,0.5251,space,0.01759,0,155,155,21,1,0_dist_green/trial22.png,,,1,0,greenverival,p,43,27,Male,2021-03-02_17h34.18.739,exp11,2020.2.6,Win32,60,,,,,,,,,,,
,,,,,,,,,,,,,,a,1,0.638195,space,0.03213,0,156,156,125,1,0_targ_4_dist_green/trial1.png,,,0,4,greenverival,a,43,27,Male,2021-03-02_17h34.18.739,exp11,2020.2.6,Win32,60,,,,,,,,,,,
,,,,,,,,,,,,,,p,1,0.52234,space,0.081285,0,157,157,87,1,15_dist_green/trial13.png,,,1,15,greenverival,p,43,27,Male,2021-03-02_17h34.18.739,exp11,2020.2.6,Win32,60,,,,,,,,,,,
,,,,,,,,,,,,,,p,1,0.988165,space,0.064885,0,158,158,34,1,3_dist_green/trial10.png,,,1,3,greenverival,p,43,27,Male,2021-03-02_17h34.18.739,exp11,2020.2.6,Win32,60,,,,,,,,,,,
,,,,,,,,,,,,,,a,1,1.2244,space,0.046995,0,159,159,110,1,0_targ_1_dist_green/trial11.png,,,0,1,greenverival,a,43,27,Male,2021-03-02_17h34.18.739,exp11,2020.2.6,Win32,60,,,,,,,,,,,
,,,,,,,,,,,,,,p,1,0.62267,space,0.019035,0,160,160,41,1,3_dist_green/trial17.png,,,1,3,greenverival,p,43,27,Male,2021-03-02_17h34.18.739,exp11,2020.2.6,Win32,60,,,,,,,,,,,
,,,,,,,,,,,,,,a,1,0.58093,space,0.00792,0,161,161,131,1,0_targ_4_dist_green/trial7.png,,,0,4,greenverival,a,43,27,Male,2021-03-02_17h34.18.739,exp11,2020.2.6,Win32,60,,,,,,,,,,,
,,,,,,,,,,,,,,a,1,0.77414,space,0.069395,0,162,162,179,1,0_targ_16_dist_green/trial5.png,,,0,16,greenverival,a,43,27,Male,2021-03-02_17h34.18.739,exp11,2020.2.6,Win32,60,,,,,,,,,,,
,,,,,,,,,,,,,,a,1,0.61132,space,0.101765,0,163,163,186,1,0_targ_16_dist_green/trial12.png,,,0,16,greenverival,a,43,27,Male,2021-03-02_17h34.18.739,exp11,2020.2.6,Win32,60,,,,,,,,,,,
,,,,,,,,,,,,,,p,1,0.50213,space,0.05182,0,164,164,18,1,0_dist_green/trial19.png,,,1,0,greenverival,p,43,27,Male,2021-03-02_17h34.18.739,exp11,2020.2.6,Win32,60,,,,,,,,,,,
,,,,,,,,,,,,,,a,1,0.737065,space,0.080745,0,165,165,112,1,0_targ_1_dist_green/trial13.png,,,0,1,greenverival,a,43,27,Male,2021-03-02_17h34.18.739,exp11,2020.2.6,Win32,60,,,,,,,,,,,
,,,,,,,,,,,,,,a,1,0.854325,space,0.038245,0,166,166,157,1,0_targ_10_dist_green/trial8.png,,,0,10,greenverival,a,43,27,Male,2021-03-02_17h34.18.739,exp11,2020.2.6,Win32,60,,,,,,,,,,,
,,,,,,,,,,,,,,a,1,0.574495,space,0.071125,0,167,167,133,1,0_targ_4_dist_green/trial9.png,,,0,4,greenverival,a,43,27,Male,2021-03-02_17h34.18.739,exp11,2020.2.6,Win32,60,,,,,,,,,,,
,,,,,,,,,,,,,,p,1,0.580085,space,0.09897,0,168,168,98,1,15_dist_green/trial24.png,,,1,15,greenverival,p,43,27,Male,2021-03-02_17h34.18.739,exp11,2020.2.6,Win32,60,,,,,,,,,,,
,,,,,,,,,,,,,,p,1,0.854965,space,0.067635,0,169,169,65,1,9_dist_green/trial16.png,,,1,9,greenverival,p,43,27,Male,2021-03-02_17h34.18.739,exp11,2020.2.6,Win32,60,,,,,,,,,,,
,,,,,,,,,,,,,,a,1,1.156595,space,0.073665,0,170,170,150,1,0_targ_10_dist_green/trial1.png,,,0,10,greenverival,a,43,27,Male,2021-03-02_17h34.18.739,exp11,2020.2.6,Win32,60,,,,,,,,,,,
,,,,,,,,,,,,,,p,1,0.892,space,0.07192,0,171,171,66,1,9_dist_green/trial17.png,,,1,9,greenverival,p,43,27,Male,2021-03-02_17h34.18.739,exp11,2020.2.6,Win32,60,,,,,,,,,,,
,,,,,,,,,,,,,,a,1,0.80642,space,0.020715,0,172,172,147,1,0_targ_4_dist_green/trial23.png,,,0,4,greenverival,a,43,27,Male,2021-03-02_17h34.18.739,exp11,2020.2.6,Win32,60,,,,,,,,,,,
,,,,,,,,,,,,,,a,1,0.74238,space,0.089165,0,173,173,154,1,0_targ_10_dist_green/trial5.png,,,0,10,greenverival,a,43,27,Male,2021-03-02_17h34.18.739,exp11,2020.2.6,Win32,60,,,,,,,,,,,
,,,,,,,,,,,,,,a,1,0.976285,space,0.088225,0,174,174,140,1,0_targ_4_dist_green/trial6.png,,,0,4,greenverival,a,43,27,Male,2021-03-02_17h34.18.739,exp11,2020.2.6,Win32,60,,,,,,,,,,,
,,,,,,,,,,,,,,p,1,0.73968,space,0.02454,0,175,175,39,1,3_dist_green/trial15.png,,,1,3,greenverival,p,43,27,Male,2021-03-02_17h34.18.739,exp11,2020.2.6,Win32,60,,,,,,,,,,,
,,,,,,,,,,,,,,a,1,0.61168,space,0.003815,0,176,176,100,1,0_targ_1_dist_green/trial1.png,,,0,1,greenverival,a,43,27,Male,2021-03-02_17h34.18.739,exp11,2020.2.6,Win32,60,,,,,,,,,,,
,,,,,,,,,,,,,,a,1,0.80793,space,0.0847,0,177,177,159,1,0_targ_10_dist_green/trial10.png,,,0,10,greenverival,a,43,27,Male,2021-03-02_17h34.18.739,exp11,2020.2.6,Win32,60,,,,,,,,,,,
,,,,,,,,,,,,,,p,1,0.84092,space,0.066365,0,178,178,76,1,15_dist_green/trial2.png,,,1,15,greenverival,p,43,27,Male,2021-03-02_17h34.18.739,exp11,2020.2.6,Win32,60,,,,,,,,,,,
,,,,,,,,,,,,,,p,1,0.84077,space,0.057485,0,179,179,10,1,0_dist_green/trial11.png,,,1,0,greenverival,p,43,27,Male,2021-03-02_17h34.18.739,exp11,2020.2.6,Win32,60,,,,,,,,,,,
,,,,,,,,,,,,,,p,1,0.590835,space,0.08901,0,180,180,32,1,3_dist_green/trial8.png,,,1,3,greenverival,p,43,27,Male,2021-03-02_17h34.18.739,exp11,2020.2.6,Win32,60,,,,,,,,,,,
,,,,,,,,,,,,,,p,0,0.50351,space,0.26853,0,181,181,132,1,0_targ_4_dist_green/trial8.png,,,0,4,greenverival,a,43,27,Male,2021-03-02_17h34.18.739,exp11,2020.2.6,Win32,60,,,,,,,,,,,
,,,,,,,,,,,,,,a,1,0.92626,space,0.051605,0,182,182,153,1,0_targ_10_dist_green/trial4.png,,,0,10,greenverival,a,43,27,Male,2021-03-02_17h34.18.739,exp11,2020.2.6,Win32,60,,,,,,,,,,,
,,,,,,,,,,,,,,a,1,0.706895,space,0.06804,0,183,183,194,1,0_targ_16_dist_green/trial20.png,,,0,16,greenverival,a,43,27,Male,2021-03-02_17h34.18.739,exp11,2020.2.6,Win32,60,,,,,,,,,,,
,,,,,,,,,,,,,,a,1,0.66447,space,0.084855,0,184,184,115,1,0_targ_1_dist_green/trial6.png,,,0,1,greenverival,a,43,27,Male,2021-03-02_17h34.18.739,exp11,2020.2.6,Win32,60,,,,,,,,,,,
,,,,,,,,,,,,,,p,1,0.6575,space,0.031475,0,185,185,31,1,3_dist_green/trial7.png,,,1,3,greenverival,p,43,27,Male,2021-03-02_17h34.18.739,exp11,2020.2.6,Win32,60,,,,,,,,,,,
,,,,,,,,,,,,,,a,1,0.705785,space,0.05356,0,186,186,173,1,0_targ_10_dist_green/trial24.png,,,0,10,greenverival,a,43,27,Male,2021-03-02_17h34.18.739,exp11,2020.2.6,Win32,60,,,,,,,,,,,
,,,,,,,,,,,,,,a,1,1.12357,space,0.05052,0,187,187,113,1,0_targ_1_dist_green/trial14.png,,,0,1,greenverival,a,43,27,Male,2021-03-02_17h34.18.739,exp11,2020.2.6,Win32,60,,,,,,,,,,,
,,,,,,,,,,,,,,a,1,1.580165,space,0.09412,0,188,188,198,1,0_targ_16_dist_green/trial24.png,,,0,16,greenverival,a,43,27,Male,2021-03-02_17h34.18.739,exp11,2020.2.6,Win32,60,,,,,,,,,,,
,,,,,,,,,,,,,,p,1,0.743395,space,0.052235,0,189,189,72,1,9_dist_green/trial23.png,,,1,9,greenverival,p,43,27,Male,2021-03-02_17h34.18.739,exp11,2020.2.6,Win32,60,,,,,,,,,,,
,,,,,,,,,,,,,,a,1,0.891895,space,0.07187,0,190,190,187,1,0_targ_16_dist_green/trial13.png,,,0,16,greenverival,a,43,27,Male,2021-03-02_17h34.18.739,exp11,2020.2.6,Win32,60,,,,,,,,,,,
,,,,,,,,,,,,,,a,1,0.65879,space,0.067725,0,191,191,116,1,0_targ_1_dist_green/trial17.png,,,0,1,greenverival,a,43,27,Male,2021-03-02_17h34.18.739,exp11,2020.2.6,Win32,60,,,,,,,,,,,
,,,,,,,,,,,,,,p,1,0.611325,space,0.155345,0,192,192,15,1,0_dist_green/trial16.png,,,1,0,greenverival,p,43,27,Male,2021-03-02_17h34.18.739,exp11,2020.2.6,Win32,60,,,,,,,,,,,
,,,,,,,,,,,,,,p,1,0.55565,space,0.14016,0,193,193,60,1,9_dist_green/trial11.png,,,1,9,greenverival,p,43,27,Male,2021-03-02_17h34.18.739,exp11,2020.2.6,Win32,60,,,,,,,,,,,
,,,,,,,,,,,,,,p,1,0.60651,space,0.101185,0,194,194,36,1,3_dist_green/trial12.png,,,1,3,greenverival,p,43,27,Male,2021-03-02_17h34.18.739,exp11,2020.2.6,Win32,60,,,,,,,,,,,
,,,,,,,,,,,,,,p,1,0.54597,space,0.13238,0,195,195,12,1,0_dist_green/trial13.png,,,1,0,greenverival,p,43,27,Male,2021-03-02_17h34.18.739,exp11,2020.2.6,Win32,60,,,,,,,,,,,
,,,,,,,,,,,,,,a,1,0.609265,space,0.08484,0,196,196,190,1,0_targ_16_dist_green/trial16.png,,,0,16,greenverival,a,43,27,Male,2021-03-02_17h34.18.739,exp11,2020.2.6,Win32,60,,,,,,,,,,,
,,,,,,,,,,,,,,p,1,0.86322,space,0.118165,0,197,197,49,1,3_dist_green/trial25.png,,,1,3,greenverival,p,43,27,Male,2021-03-02_17h34.18.739,exp11,2020.2.6,Win32,60,,,,,,,,,,,
,,,,,,,,,,,,,,p,1,0.607415,space,0.097815,0,198,198,68,1,9_dist_green/trial19.png,,,1,9,greenverival,p,43,27,Male,2021-03-02_17h34.18.739,exp11,2020.2.6,Win32,60,,,,,,,,,,,
,,,,,,,,,,,,,,p,1,0.60076,space,0.049775,0,199,199,57,1,9_dist_green/trial8.png,,,1,9,greenverival,p,43,27,Male,2021-03-02_17h34.18.739,exp11,2020.2.6,Win32,60,,,,,,,,,,,
,,,,,,,,,,,,,,,,,,,,,,,,,,,,,,,43,27,Male,2021-03-02_17h34.18.739,exp11,2020.2.6,Win32,60,0,1,1,0,1,conGreen.xlsx,green vertical,Look for green vertical bar (target) and indicate if it is present or absent in the array. If green vertical target is present press 'p' and if absent press 'a'. Press SPACE to start.,,,
