key_resp_6.keys,key_resp_6.rt,key_resp_7.keys,key_resp_7.rt,key_resp_8.keys,key_resp_8.rt,key_resp_10.keys,key_resp_10.rt,key_resp_9.keys,key_resp_9.rt,key_resp_3.keys,key_resp_3.rt,key_resp_5.keys,key_resp_5.rt,key_resp.keys,key_resp.corr,key_resp.rt,key_resp_4.keys,key_resp_4.rt,trials.thisRepN,trials.thisTrialN,trials.thisN,trials.thisIndex,trials.ran,ImageFile,tarPos,tarSize,targPres,numDist,targetName,correctAns,participant,age,sex,date,expName,psychopyVersion,OS,frameRate,trials_2.thisRepN,trials_2.thisTrialN,trials_2.thisN,trials_2.thisIndex,trials_2.ran,condsFile,targName,instructionText,colTarget,sizeTarg,posit
space,7.39356,space,18.29913,space,13.299855,space,20.51144,space,11.140425,space,14.58703,space,10.69889,p,1,0.84316,space,5.6033,0,0,0,28,1,3_dist_red/trial4.png,,,1,3,redHorizontal,p,44,26,Male,2021-03-02_08h26.36.734,exp11,2020.2.6,Win32,60,,,,,,,,,,,
,,,,,,,,,,,,,,p,1,0.842775,space,3.987395,0,1,1,40,1,3_dist_red/trial16.png,,,1,3,redHorizontal,p,44,26,Male,2021-03-02_08h26.36.734,exp11,2020.2.6,Win32,60,,,,,,,,,,,
,,,,,,,,,,,,,,p,1,0.546715,space,3.04992,0,2,2,15,1,0_dist_red/trial16.png,,,1,0,redHorizontal,p,44,26,Male,2021-03-02_08h26.36.734,exp11,2020.2.6,Win32,60,,,,,,,,,,,
,,,,,,,,,,,,,,a,1,1.17001,space,2.015425,0,3,3,174,1,0_targ_10_dist_red/trial25.png,,,0,10,redHorizontal,a,44,26,Male,2021-03-02_08h26.36.734,exp11,2020.2.6,Win32,60,,,,,,,,,,,
,,,,,,,,,,,,,,a,1,0.705455,space,0.68719,0,4,4,106,1,0_targ_1_dist_red/trial7.png,,,0,1,redHorizontal,a,44,26,Male,2021-03-02_08h26.36.734,exp11,2020.2.6,Win32,60,,,,,,,,,,,
,,,,,,,,,,,,,,a,1,0.732455,space,0.501025,0,5,5,140,1,0_targ_4_dist_red/trial6.png,,,0,4,redHorizontal,a,44,26,Male,2021-03-02_08h26.36.734,exp11,2020.2.6,Win32,60,,,,,,,,,,,
,,,,,,,,,,,,,,a,1,0.661135,space,0.48226,0,6,6,113,1,0_targ_1_dist_red/trial14.png,,,0,1,redHorizontal,a,44,26,Male,2021-03-02_08h26.36.734,exp11,2020.2.6,Win32,60,,,,,,,,,,,
,,,,,,,,,,,,,,p,1,0.56509,space,0.55008,0,7,7,20,1,0_dist_red/trial21.png,,,1,0,redHorizontal,p,44,26,Male,2021-03-02_08h26.36.734,exp11,2020.2.6,Win32,60,,,,,,,,,,,
,,,,,,,,,,,,,,a,1,0.903665,space,0.468405,0,8,8,167,1,0_targ_10_dist_red/trial18.png,,,0,10,redHorizontal,a,44,26,Male,2021-03-02_08h26.36.734,exp11,2020.2.6,Win32,60,,,,,,,,,,,
,,,,,,,,,,,,,,p,1,0.83067,space,0.518075,0,9,9,9,1,0_dist_red/trial10.png,,,1,0,redHorizontal,p,44,26,Male,2021-03-02_08h26.36.734,exp11,2020.2.6,Win32,60,,,,,,,,,,,
,,,,,,,,,,,,,,p,1,0.98024,space,1.11785,0,10,10,1,1,0_dist_red/trial2.png,,,1,0,redHorizontal,p,44,26,Male,2021-03-02_08h26.36.734,exp11,2020.2.6,Win32,60,,,,,,,,,,,
,,,,,,,,,,,,,,a,1,0.973575,space,0.60021,0,11,11,190,1,0_targ_16_dist_red/trial16.png,,,0,16,redHorizontal,a,44,26,Male,2021-03-02_08h26.36.734,exp11,2020.2.6,Win32,60,,,,,,,,,,,
,,,,,,,,,,,,,,p,1,0.715715,space,0.61832,0,12,12,26,1,3_dist_red/trial2.png,,,1,3,redHorizontal,p,44,26,Male,2021-03-02_08h26.36.734,exp11,2020.2.6,Win32,60,,,,,,,,,,,
,,,,,,,,,,,,,,p,1,0.661615,space,0.53292,0,13,13,66,1,9_dist_red/trial17.png,,,1,9,redHorizontal,p,44,26,Male,2021-03-02_08h26.36.734,exp11,2020.2.6,Win32,60,,,,,,,,,,,
,,,,,,,,,,,,,,p,1,0.709615,space,0.49927,0,14,14,31,1,3_dist_red/trial7.png,,,1,3,redHorizontal,p,44,26,Male,2021-03-02_08h26.36.734,exp11,2020.2.6,Win32,60,,,,,,,,,,,
,,,,,,,,,,,,,,p,1,0.6493,space,0.584485,0,15,15,46,1,3_dist_red/trial22.png,,,1,3,redHorizontal,p,44,26,Male,2021-03-02_08h26.36.734,exp11,2020.2.6,Win32,60,,,,,,,,,,,
,,,,,,,,,,,,,,p,1,0.65803,space,0.475525,0,16,16,77,1,15_dist_red/trial3.png,,,1,15,redHorizontal,p,44,26,Male,2021-03-02_08h26.36.734,exp11,2020.2.6,Win32,60,,,,,,,,,,,
,,,,,,,,,,,,,,a,0,0.63921,space,2.049815,0,17,17,39,1,3_dist_red/trial15.png,,,1,3,redHorizontal,p,44,26,Male,2021-03-02_08h26.36.734,exp11,2020.2.6,Win32,60,,,,,,,,,,,
,,,,,,,,,,,,,,p,1,0.745065,space,0.702375,0,18,18,35,1,3_dist_red/trial11.png,,,1,3,redHorizontal,p,44,26,Male,2021-03-02_08h26.36.734,exp11,2020.2.6,Win32,60,,,,,,,,,,,
,,,,,,,,,,,,,,a,1,0.79466,space,0.60024,0,19,19,112,1,0_targ_1_dist_red/trial13.png,,,0,1,redHorizontal,a,44,26,Male,2021-03-02_08h26.36.734,exp11,2020.2.6,Win32,60,,,,,,,,,,,
,,,,,,,,,,,,,,p,1,0.68006,space,0.51828,0,20,20,18,1,0_dist_red/trial19.png,,,1,0,redHorizontal,p,44,26,Male,2021-03-02_08h26.36.734,exp11,2020.2.6,Win32,60,,,,,,,,,,,
,,,,,,,,,,,,,,p,1,0.632635,space,0.51659,0,21,21,37,1,3_dist_red/trial13.png,,,1,3,redHorizontal,p,44,26,Male,2021-03-02_08h26.36.734,exp11,2020.2.6,Win32,60,,,,,,,,,,,
,,,,,,,,,,,,,,a,1,0.845555,space,0.505585,0,22,22,138,1,0_targ_4_dist_red/trial14.png,,,0,4,redHorizontal,a,44,26,Male,2021-03-02_08h26.36.734,exp11,2020.2.6,Win32,60,,,,,,,,,,,
,,,,,,,,,,,,,,a,1,1.25105,space,0.450145,0,23,23,102,1,0_targ_1_dist_red/trial3.png,,,0,1,redHorizontal,a,44,26,Male,2021-03-02_08h26.36.734,exp11,2020.2.6,Win32,60,,,,,,,,,,,
,,,,,,,,,,,,,,a,1,0.6072,space,0.486675,0,24,24,105,1,0_targ_1_dist_red/trial6.png,,,0,1,redHorizontal,a,44,26,Male,2021-03-02_08h26.36.734,exp11,2020.2.6,Win32,60,,,,,,,,,,,
,,,,,,,,,,,,,,a,1,0.62196,space,0.47098,0,25,25,128,1,0_targ_4_dist_red/trial4.png,,,0,4,redHorizontal,a,44,26,Male,2021-03-02_08h26.36.734,exp11,2020.2.6,Win32,60,,,,,,,,,,,
,,,,,,,,,,,,,,a,1,0.695555,space,0.432705,0,26,26,100,1,0_targ_1_dist_red/trial1.png,,,0,1,redHorizontal,a,44,26,Male,2021-03-02_08h26.36.734,exp11,2020.2.6,Win32,60,,,,,,,,,,,
,,,,,,,,,,,,,,p,1,1.04951,space,0.467335,0,27,27,74,1,9_dist_red/trial25.png,,,1,9,redHorizontal,p,44,26,Male,2021-03-02_08h26.36.734,exp11,2020.2.6,Win32,60,,,,,,,,,,,
,,,,,,,,,,,,,,a,0,1.1329,space,0.136055,0,28,28,54,1,9_dist_red/trial5.png,,,1,9,redHorizontal,p,44,26,Male,2021-03-02_08h26.36.734,exp11,2020.2.6,Win32,60,,,,,,,,,,,
,,,,,,,,,,,,,,a,1,0.91757,space,0.714825,0,29,29,116,1,0_targ_1_dist_red/trial17.png,,,0,1,redHorizontal,a,44,26,Male,2021-03-02_08h26.36.734,exp11,2020.2.6,Win32,60,,,,,,,,,,,
,,,,,,,,,,,,,,a,1,1.577415,space,0.48352,0,30,30,154,1,0_targ_10_dist_red/trial5.png,,,0,10,redHorizontal,a,44,26,Male,2021-03-02_08h26.36.734,exp11,2020.2.6,Win32,60,,,,,,,,,,,
,,,,,,,,,,,,,,a,1,0.678115,space,0.52526,0,31,31,119,1,0_targ_1_dist_red/trial20.png,,,0,1,redHorizontal,a,44,26,Male,2021-03-02_08h26.36.734,exp11,2020.2.6,Win32,60,,,,,,,,,,,
,,,,,,,,,,,,,,p,1,0.74301,space,0.55118,0,32,32,51,1,9_dist_red/trial2.png,,,1,9,redHorizontal,p,44,26,Male,2021-03-02_08h26.36.734,exp11,2020.2.6,Win32,60,,,,,,,,,,,
,,,,,,,,,,,,,,a,1,1.39094,space,0.74257,0,33,33,197,1,0_targ_16_dist_red/trial23.png,,,0,16,redHorizontal,a,44,26,Male,2021-03-02_08h26.36.734,exp11,2020.2.6,Win32,60,,,,,,,,,,,
,,,,,,,,,,,,,,p,1,0.578565,space,0.4495,0,34,34,32,1,3_dist_red/trial8.png,,,1,3,redHorizontal,p,44,26,Male,2021-03-02_08h26.36.734,exp11,2020.2.6,Win32,60,,,,,,,,,,,
,,,,,,,,,,,,,,p,1,0.67823,space,0.435735,0,35,35,78,1,15_dist_red/trial4.png,,,1,15,redHorizontal,p,44,26,Male,2021-03-02_08h26.36.734,exp11,2020.2.6,Win32,60,,,,,,,,,,,
,,,,,,,,,,,,,,p,1,0.62521,space,0.41834,0,36,36,22,1,0_dist_red/trial23.png,,,1,0,redHorizontal,p,44,26,Male,2021-03-02_08h26.36.734,exp11,2020.2.6,Win32,60,,,,,,,,,,,
,,,,,,,,,,,,,,p,1,0.61488,space,0.417465,0,37,37,12,1,0_dist_red/trial13.png,,,1,0,redHorizontal,p,44,26,Male,2021-03-02_08h26.36.734,exp11,2020.2.6,Win32,60,,,,,,,,,,,
,,,,,,,,,,,,,,a,1,1.1764,space,0.468655,0,38,38,188,1,0_targ_16_dist_red/trial14.png,,,0,16,redHorizontal,a,44,26,Male,2021-03-02_08h26.36.734,exp11,2020.2.6,Win32,60,,,,,,,,,,,
,,,,,,,,,,,,,,p,1,0.648175,space,0.45407,0,39,39,50,1,9_dist_red/trial1.png,,,1,9,redHorizontal,p,44,26,Male,2021-03-02_08h26.36.734,exp11,2020.2.6,Win32,60,,,,,,,,,,,
,,,,,,,,,,,,,,a,1,0.65058,space,0.439055,0,40,40,117,1,0_targ_1_dist_red/trial18.png,,,0,1,redHorizontal,a,44,26,Male,2021-03-02_08h26.36.734,exp11,2020.2.6,Win32,60,,,,,,,,,,,
,,,,,,,,,,,,,,a,1,1.2306,space,0.454205,0,41,41,164,1,0_targ_10_dist_red/trial15.png,,,0,10,redHorizontal,a,44,26,Male,2021-03-02_08h26.36.734,exp11,2020.2.6,Win32,60,,,,,,,,,,,
,,,,,,,,,,,,,,p,1,0.622805,space,0.436755,0,42,42,49,1,3_dist_red/trial25.png,,,1,3,redHorizontal,p,44,26,Male,2021-03-02_08h26.36.734,exp11,2020.2.6,Win32,60,,,,,,,,,,,
,,,,,,,,,,,,,,p,1,0.64636,space,0.43362,0,43,43,19,1,0_dist_red/trial20.png,,,1,0,redHorizontal,p,44,26,Male,2021-03-02_08h26.36.734,exp11,2020.2.6,Win32,60,,,,,,,,,,,
,,,,,,,,,,,,,,a,1,0.69512,space,0.472975,0,44,44,162,1,0_targ_10_dist_red/trial13.png,,,0,10,redHorizontal,a,44,26,Male,2021-03-02_08h26.36.734,exp11,2020.2.6,Win32,60,,,,,,,,,,,
,,,,,,,,,,,,,,a,1,0.83577,space,0.41749,0,45,45,163,1,0_targ_10_dist_red/trial14.png,,,0,10,redHorizontal,a,44,26,Male,2021-03-02_08h26.36.734,exp11,2020.2.6,Win32,60,,,,,,,,,,,
,,,,,,,,,,,,,,p,1,0.83534,space,0.36566,0,46,46,85,1,15_dist_red/trial11.png,,,1,15,redHorizontal,p,44,26,Male,2021-03-02_08h26.36.734,exp11,2020.2.6,Win32,60,,,,,,,,,,,
,,,,,,,,,,,,,,a,1,0.777685,space,0.39958,0,47,47,192,1,0_targ_16_dist_red/trial18.png,,,0,16,redHorizontal,a,44,26,Male,2021-03-02_08h26.36.734,exp11,2020.2.6,Win32,60,,,,,,,,,,,
,,,,,,,,,,,,,,p,1,0.55827,space,0.38974,0,48,48,11,1,0_dist_red/trial12.png,,,1,0,redHorizontal,p,44,26,Male,2021-03-02_08h26.36.734,exp11,2020.2.6,Win32,60,,,,,,,,,,,
,,,,,,,,,,,,,,a,1,0.856715,space,0.43382,0,49,49,125,1,0_targ_4_dist_red/trial1.png,,,0,4,redHorizontal,a,44,26,Male,2021-03-02_08h26.36.734,exp11,2020.2.6,Win32,60,,,,,,,,,,,
,,,,,,,,,,,,,,p,1,0.729665,space,0.416925,0,50,50,30,1,3_dist_red/trial6.png,,,1,3,redHorizontal,p,44,26,Male,2021-03-02_08h26.36.734,exp11,2020.2.6,Win32,60,,,,,,,,,,,
,,,,,,,,,,,,,,p,1,1.18003,space,0.4337,0,51,51,92,1,15_dist_red/trial18.png,,,1,15,redHorizontal,p,44,26,Male,2021-03-02_08h26.36.734,exp11,2020.2.6,Win32,60,,,,,,,,,,,
,,,,,,,,,,,,,,p,1,0.708585,space,0.38283,0,52,52,67,1,9_dist_red/trial18.png,,,1,9,redHorizontal,p,44,26,Male,2021-03-02_08h26.36.734,exp11,2020.2.6,Win32,60,,,,,,,,,,,
,,,,,,,,,,,,,,p,1,0.610505,space,0.3842,0,53,53,16,1,0_dist_red/trial17.png,,,1,0,redHorizontal,p,44,26,Male,2021-03-02_08h26.36.734,exp11,2020.2.6,Win32,60,,,,,,,,,,,
,,,,,,,,,,,,,,p,1,0.595245,space,0.367265,0,54,54,91,1,15_dist_red/trial17.png,,,1,15,redHorizontal,p,44,26,Male,2021-03-02_08h26.36.734,exp11,2020.2.6,Win32,60,,,,,,,,,,,
,,,,,,,,,,,,,,a,1,0.578835,space,0.417355,0,55,55,133,1,0_targ_4_dist_red/trial9.png,,,0,4,redHorizontal,a,44,26,Male,2021-03-02_08h26.36.734,exp11,2020.2.6,Win32,60,,,,,,,,,,,
,,,,,,,,,,,,,,p,1,0.974825,space,0.416905,0,56,56,84,1,15_dist_red/trial10.png,,,1,15,redHorizontal,p,44,26,Male,2021-03-02_08h26.36.734,exp11,2020.2.6,Win32,60,,,,,,,,,,,
,,,,,,,,,,,,,,p,1,0.69345,space,0.38255,0,57,57,45,1,3_dist_red/trial21.png,,,1,3,redHorizontal,p,44,26,Male,2021-03-02_08h26.36.734,exp11,2020.2.6,Win32,60,,,,,,,,,,,
,,,,,,,,,,,,,,a,1,0.926965,space,0.43395,0,58,58,196,1,0_targ_16_dist_red/trial22.png,,,0,16,redHorizontal,a,44,26,Male,2021-03-02_08h26.36.734,exp11,2020.2.6,Win32,60,,,,,,,,,,,
,,,,,,,,,,,,,,a,1,1.04706,space,0.388595,0,59,59,121,1,0_targ_1_dist_red/trial22.png,,,0,1,redHorizontal,a,44,26,Male,2021-03-02_08h26.36.734,exp11,2020.2.6,Win32,60,,,,,,,,,,,
,,,,,,,,,,,,,,a,1,1.5201,space,0.36683,0,60,60,157,1,0_targ_10_dist_red/trial8.png,,,0,10,redHorizontal,a,44,26,Male,2021-03-02_08h26.36.734,exp11,2020.2.6,Win32,60,,,,,,,,,,,
,,,,,,,,,,,,,,p,1,0.570265,space,0.350205,0,61,61,47,1,3_dist_red/trial23.png,,,1,3,redHorizontal,p,44,26,Male,2021-03-02_08h26.36.734,exp11,2020.2.6,Win32,60,,,,,,,,,,,
,,,,,,,,,,,,,,a,1,0.61215,space,0.373735,0,62,62,187,1,0_targ_16_dist_red/trial13.png,,,0,16,redHorizontal,a,44,26,Male,2021-03-02_08h26.36.734,exp11,2020.2.6,Win32,60,,,,,,,,,,,
,,,,,,,,,,,,,,p,1,0.667465,space,0.38327,0,63,63,63,1,9_dist_red/trial14.png,,,1,9,redHorizontal,p,44,26,Male,2021-03-02_08h26.36.734,exp11,2020.2.6,Win32,60,,,,,,,,,,,
,,,,,,,,,,,,,,a,1,1.396815,space,0.366725,0,64,64,195,1,0_targ_16_dist_red/trial21.png,,,0,16,redHorizontal,a,44,26,Male,2021-03-02_08h26.36.734,exp11,2020.2.6,Win32,60,,,,,,,,,,,
,,,,,,,,,,,,,,p,1,0.633585,space,0.417605,0,65,65,21,1,0_dist_red/trial22.png,,,1,0,redHorizontal,p,44,26,Male,2021-03-02_08h26.36.734,exp11,2020.2.6,Win32,60,,,,,,,,,,,
,,,,,,,,,,,,,,p,1,0.798795,space,0.32231,0,66,66,41,1,3_dist_red/trial17.png,,,1,3,redHorizontal,p,44,26,Male,2021-03-02_08h26.36.734,exp11,2020.2.6,Win32,60,,,,,,,,,,,
,,,,,,,,,,,,,,a,1,0.701105,space,0.417575,0,67,67,147,1,0_targ_4_dist_red/trial23.png,,,0,4,redHorizontal,a,44,26,Male,2021-03-02_08h26.36.734,exp11,2020.2.6,Win32,60,,,,,,,,,,,
,,,,,,,,,,,,,,p,1,0.794785,space,0.355715,0,68,68,88,1,15_dist_red/trial14.png,,,1,15,redHorizontal,p,44,26,Male,2021-03-02_08h26.36.734,exp11,2020.2.6,Win32,60,,,,,,,,,,,
,,,,,,,,,,,,,,p,1,0.62512,space,0.401445,0,69,69,44,1,3_dist_red/trial20.png,,,1,3,redHorizontal,p,44,26,Male,2021-03-02_08h26.36.734,exp11,2020.2.6,Win32,60,,,,,,,,,,,
,,,,,,,,,,,,,,p,1,0.659825,space,0.40054,0,70,70,95,1,15_dist_red/trial21.png,,,1,15,redHorizontal,p,44,26,Male,2021-03-02_08h26.36.734,exp11,2020.2.6,Win32,60,,,,,,,,,,,
,,,,,,,,,,,,,,p,1,0.67432,space,0.400435,0,71,71,76,1,15_dist_red/trial2.png,,,1,15,redHorizontal,p,44,26,Male,2021-03-02_08h26.36.734,exp11,2020.2.6,Win32,60,,,,,,,,,,,
,,,,,,,,,,,,,,p,1,0.645305,space,0.35062,0,72,72,97,1,15_dist_red/trial23.png,,,1,15,redHorizontal,p,44,26,Male,2021-03-02_08h26.36.734,exp11,2020.2.6,Win32,60,,,,,,,,,,,
,,,,,,,,,,,,,,p,1,0.57241,space,0.36884,0,73,73,2,1,0_dist_red/trial3.png,,,1,0,redHorizontal,p,44,26,Male,2021-03-02_08h26.36.734,exp11,2020.2.6,Win32,60,,,,,,,,,,,
,,,,,,,,,,,,,,a,1,0.602995,space,0.35233,0,74,74,172,1,0_targ_10_dist_red/trial23.png,,,0,10,redHorizontal,a,44,26,Male,2021-03-02_08h26.36.734,exp11,2020.2.6,Win32,60,,,,,,,,,,,
,,,,,,,,,,,,,,p,1,0.57839,space,0.416735,0,75,75,58,1,9_dist_red/trial9.png,,,1,9,redHorizontal,p,44,26,Male,2021-03-02_08h26.36.734,exp11,2020.2.6,Win32,60,,,,,,,,,,,
,,,,,,,,,,,,,,p,1,0.944435,space,0.336305,0,76,76,98,1,15_dist_red/trial24.png,,,1,15,redHorizontal,p,44,26,Male,2021-03-02_08h26.36.734,exp11,2020.2.6,Win32,60,,,,,,,,,,,
,,,,,,,,,,,,,,a,1,0.81283,space,0.3677,0,77,77,155,1,0_targ_10_dist_red/trial6.png,,,0,10,redHorizontal,a,44,26,Male,2021-03-02_08h26.36.734,exp11,2020.2.6,Win32,60,,,,,,,,,,,
,,,,,,,,,,,,,,p,1,0.6258,space,0.416505,0,78,78,53,1,9_dist_red/trial4.png,,,1,9,redHorizontal,p,44,26,Male,2021-03-02_08h26.36.734,exp11,2020.2.6,Win32,60,,,,,,,,,,,
,,,,,,,,,,,,,,a,1,0.80648,space,0.53197,0,79,79,171,1,0_targ_10_dist_red/trial22.png,,,0,10,redHorizontal,a,44,26,Male,2021-03-02_08h26.36.734,exp11,2020.2.6,Win32,60,,,,,,,,,,,
,,,,,,,,,,,,,,p,1,0.744465,space,0.36894,0,80,80,71,1,9_dist_red/trial22.png,,,1,9,redHorizontal,p,44,26,Male,2021-03-02_08h26.36.734,exp11,2020.2.6,Win32,60,,,,,,,,,,,
,,,,,,,,,,,,,,p,1,0.972705,space,0.336565,0,81,81,94,1,15_dist_red/trial20.png,,,1,15,redHorizontal,p,44,26,Male,2021-03-02_08h26.36.734,exp11,2020.2.6,Win32,60,,,,,,,,,,,
,,,,,,,,,,,,,,a,1,0.62535,space,0.34997,0,82,82,136,1,0_targ_4_dist_red/trial12.png,,,0,4,redHorizontal,a,44,26,Male,2021-03-02_08h26.36.734,exp11,2020.2.6,Win32,60,,,,,,,,,,,
,,,,,,,,,,,,,,a,1,0.781605,space,0.317945,0,83,83,178,1,0_targ_16_dist_red/trial4.png,,,0,16,redHorizontal,a,44,26,Male,2021-03-02_08h26.36.734,exp11,2020.2.6,Win32,60,,,,,,,,,,,
,,,,,,,,,,,,,,a,1,1.1316,space,0.384155,0,84,84,180,1,0_targ_16_dist_red/trial6.png,,,0,16,redHorizontal,a,44,26,Male,2021-03-02_08h26.36.734,exp11,2020.2.6,Win32,60,,,,,,,,,,,
,,,,,,,,,,,,,,p,1,0.74233,space,0.35389,0,85,85,80,1,15_dist_red/trial6.png,,,1,15,redHorizontal,p,44,26,Male,2021-03-02_08h26.36.734,exp11,2020.2.6,Win32,60,,,,,,,,,,,
,,,,,,,,,,,,,,p,1,0.611025,space,0.317225,0,86,86,56,1,9_dist_red/trial7.png,,,1,9,redHorizontal,p,44,26,Male,2021-03-02_08h26.36.734,exp11,2020.2.6,Win32,60,,,,,,,,,,,
,,,,,,,,,,,,,,a,1,0.761415,space,0.333675,0,87,87,120,1,0_targ_1_dist_red/trial21.png,,,0,1,redHorizontal,a,44,26,Male,2021-03-02_08h26.36.734,exp11,2020.2.6,Win32,60,,,,,,,,,,,
,,,,,,,,,,,,,,p,0,0.670655,space,1.718705,0,88,88,169,1,0_targ_10_dist_red/trial20.png,,,0,10,redHorizontal,a,44,26,Male,2021-03-02_08h26.36.734,exp11,2020.2.6,Win32,60,,,,,,,,,,,
,,,,,,,,,,,,,,p,1,0.62002,space,0.44932,0,89,89,61,1,9_dist_red/trial12.png,,,1,9,redHorizontal,p,44,26,Male,2021-03-02_08h26.36.734,exp11,2020.2.6,Win32,60,,,,,,,,,,,
,,,,,,,,,,,,,,a,1,0.6626,space,0.37144,0,90,90,134,1,0_targ_4_dist_red/trial10.png,,,0,4,redHorizontal,a,44,26,Male,2021-03-02_08h26.36.734,exp11,2020.2.6,Win32,60,,,,,,,,,,,
,,,,,,,,,,,,,,p,1,0.6654,space,0.451105,0,91,91,7,1,0_dist_red/trial8.png,,,1,0,redHorizontal,p,44,26,Male,2021-03-02_08h26.36.734,exp11,2020.2.6,Win32,60,,,,,,,,,,,
,,,,,,,,,,,,,,a,1,1.328875,space,0.382035,0,92,92,109,1,0_targ_1_dist_red/trial10.png,,,0,1,redHorizontal,a,44,26,Male,2021-03-02_08h26.36.734,exp11,2020.2.6,Win32,60,,,,,,,,,,,
,,,,,,,,,,,,,,a,1,0.757075,space,0.431955,0,93,93,168,1,0_targ_10_dist_red/trial19.png,,,0,10,redHorizontal,a,44,26,Male,2021-03-02_08h26.36.734,exp11,2020.2.6,Win32,60,,,,,,,,,,,
,,,,,,,,,,,,,,a,1,0.71303,space,0.365795,0,94,94,176,1,0_targ_16_dist_red/trial2.png,,,0,16,redHorizontal,a,44,26,Male,2021-03-02_08h26.36.734,exp11,2020.2.6,Win32,60,,,,,,,,,,,
,,,,,,,,,,,,,,a,1,0.64459,space,0.517655,0,95,95,110,1,0_targ_1_dist_red/trial11.png,,,0,1,redHorizontal,a,44,26,Male,2021-03-02_08h26.36.734,exp11,2020.2.6,Win32,60,,,,,,,,,,,
,,,,,,,,,,,,,,p,1,0.71683,space,0.40094,0,96,96,73,1,9_dist_red/trial24.png,,,1,9,redHorizontal,p,44,26,Male,2021-03-02_08h26.36.734,exp11,2020.2.6,Win32,60,,,,,,,,,,,
,,,,,,,,,,,,,,p,1,0.913575,space,0.35018,0,97,97,70,1,9_dist_red/trial21.png,,,1,9,redHorizontal,p,44,26,Male,2021-03-02_08h26.36.734,exp11,2020.2.6,Win32,60,,,,,,,,,,,
,,,,,,,,,,,,,,p,1,0.910085,space,0.400965,0,98,98,33,1,3_dist_red/trial9.png,,,1,3,redHorizontal,p,44,26,Male,2021-03-02_08h26.36.734,exp11,2020.2.6,Win32,60,,,,,,,,,,,
,,,,,,,,,,,,,,a,1,1.183095,space,0.45099,0,99,99,114,1,0_targ_1_dist_red/trial15.png,,,0,1,redHorizontal,a,44,26,Male,2021-03-02_08h26.36.734,exp11,2020.2.6,Win32,60,,,,,,,,,,,
,,,,,,,,,,,,,,p,1,0.89155,space,0.33402,0,100,100,14,1,0_dist_red/trial15.png,,,1,0,redHorizontal,p,44,26,Male,2021-03-02_08h26.36.734,exp11,2020.2.6,Win32,60,,,,,,,,,,,
,,,,,,,,,,,,,,p,1,0.8803,space,0.317795,0,101,101,93,1,15_dist_red/trial19.png,,,1,15,redHorizontal,p,44,26,Male,2021-03-02_08h26.36.734,exp11,2020.2.6,Win32,60,,,,,,,,,,,
,,,,,,,,,,,,,,p,1,0.63734,space,0.34979,0,102,102,24,1,0_dist_red/trial25.png,,,1,0,redHorizontal,p,44,26,Male,2021-03-02_08h26.36.734,exp11,2020.2.6,Win32,60,,,,,,,,,,,
,,,,,,,,,,,,,,p,1,0.575035,space,0.35695,0,103,103,38,1,3_dist_red/trial14.png,,,1,3,redHorizontal,p,44,26,Male,2021-03-02_08h26.36.734,exp11,2020.2.6,Win32,60,,,,,,,,,,,
,,,,,,,,,,,,,,p,1,0.60948,space,0.35016,0,104,104,87,1,15_dist_red/trial13.png,,,1,15,redHorizontal,p,44,26,Male,2021-03-02_08h26.36.734,exp11,2020.2.6,Win32,60,,,,,,,,,,,
,,,,,,,,,,,,,,a,1,0.78742,space,0.38346,0,105,105,175,1,0_targ_16_dist_red/trial1.png,,,0,16,redHorizontal,a,44,26,Male,2021-03-02_08h26.36.734,exp11,2020.2.6,Win32,60,,,,,,,,,,,
,,,,,,,,,,,,,,p,1,0.62716,space,0.35184,0,106,106,89,1,15_dist_red/trial15.png,,,1,15,redHorizontal,p,44,26,Male,2021-03-02_08h26.36.734,exp11,2020.2.6,Win32,60,,,,,,,,,,,
,,,,,,,,,,,,,,p,1,0.6905,space,0.371045,0,107,107,36,1,3_dist_red/trial12.png,,,1,3,redHorizontal,p,44,26,Male,2021-03-02_08h26.36.734,exp11,2020.2.6,Win32,60,,,,,,,,,,,
,,,,,,,,,,,,,,p,1,0.98162,space,0.50051,0,108,108,90,1,15_dist_red/trial16.png,,,1,15,redHorizontal,p,44,26,Male,2021-03-02_08h26.36.734,exp11,2020.2.6,Win32,60,,,,,,,,,,,
,,,,,,,,,,,,,,p,1,0.628005,space,0.385075,0,109,109,10,1,0_dist_red/trial11.png,,,1,0,redHorizontal,p,44,26,Male,2021-03-02_08h26.36.734,exp11,2020.2.6,Win32,60,,,,,,,,,,,
,,,,,,,,,,,,,,a,1,0.82971,space,0.450295,0,110,110,181,1,0_targ_16_dist_red/trial7.png,,,0,16,redHorizontal,a,44,26,Male,2021-03-02_08h26.36.734,exp11,2020.2.6,Win32,60,,,,,,,,,,,
,,,,,,,,,,,,,,a,1,1.06012,space,0.367905,0,111,111,177,1,0_targ_16_dist_red/trial3.png,,,0,16,redHorizontal,a,44,26,Male,2021-03-02_08h26.36.734,exp11,2020.2.6,Win32,60,,,,,,,,,,,
,,,,,,,,,,,,,,a,1,0.839015,space,0.38605,0,112,112,183,1,0_targ_16_dist_red/trial9.png,,,0,16,redHorizontal,a,44,26,Male,2021-03-02_08h26.36.734,exp11,2020.2.6,Win32,60,,,,,,,,,,,
,,,,,,,,,,,,,,p,1,0.707215,space,0.449675,0,113,113,65,1,9_dist_red/trial16.png,,,1,9,redHorizontal,p,44,26,Male,2021-03-02_08h26.36.734,exp11,2020.2.6,Win32,60,,,,,,,,,,,
,,,,,,,,,,,,,,a,1,0.6541,space,0.40248,0,114,114,131,1,0_targ_4_dist_red/trial7.png,,,0,4,redHorizontal,a,44,26,Male,2021-03-02_08h26.36.734,exp11,2020.2.6,Win32,60,,,,,,,,,,,
,,,,,,,,,,,,,,a,1,0.74725,space,0.435405,0,115,115,193,1,0_targ_16_dist_red/trial19.png,,,0,16,redHorizontal,a,44,26,Male,2021-03-02_08h26.36.734,exp11,2020.2.6,Win32,60,,,,,,,,,,,
,,,,,,,,,,,,,,a,1,0.975725,space,0.485575,0,116,116,159,1,0_targ_10_dist_red/trial10.png,,,0,10,redHorizontal,a,44,26,Male,2021-03-02_08h26.36.734,exp11,2020.2.6,Win32,60,,,,,,,,,,,
,,,,,,,,,,,,,,p,1,0.773285,space,0.37998,0,117,117,64,1,9_dist_red/trial15.png,,,1,9,redHorizontal,p,44,26,Male,2021-03-02_08h26.36.734,exp11,2020.2.6,Win32,60,,,,,,,,,,,
,,,,,,,,,,,,,,a,1,0.931395,space,0.400595,0,118,118,158,1,0_targ_10_dist_red/trial9.png,,,0,10,redHorizontal,a,44,26,Male,2021-03-02_08h26.36.734,exp11,2020.2.6,Win32,60,,,,,,,,,,,
,,,,,,,,,,,,,,a,1,0.82243,space,0.369,0,119,119,179,1,0_targ_16_dist_red/trial5.png,,,0,16,redHorizontal,a,44,26,Male,2021-03-02_08h26.36.734,exp11,2020.2.6,Win32,60,,,,,,,,,,,
,,,,,,,,,,,,,,a,1,0.679855,space,0.419585,0,120,120,129,1,0_targ_4_dist_red/trial5.png,,,0,4,redHorizontal,a,44,26,Male,2021-03-02_08h26.36.734,exp11,2020.2.6,Win32,60,,,,,,,,,,,
,,,,,,,,,,,,,,p,1,0.626395,space,0.349805,0,121,121,23,1,0_dist_red/trial24.png,,,1,0,redHorizontal,p,44,26,Male,2021-03-02_08h26.36.734,exp11,2020.2.6,Win32,60,,,,,,,,,,,
,,,,,,,,,,,,,,p,1,0.850135,space,0.357725,0,122,122,34,1,3_dist_red/trial10.png,,,1,3,redHorizontal,p,44,26,Male,2021-03-02_08h26.36.734,exp11,2020.2.6,Win32,60,,,,,,,,,,,
,,,,,,,,,,,,,,a,1,0.60427,space,0.431815,0,123,123,184,1,0_targ_16_dist_red/trial10.png,,,0,16,redHorizontal,a,44,26,Male,2021-03-02_08h26.36.734,exp11,2020.2.6,Win32,60,,,,,,,,,,,
,,,,,,,,,,,,,,a,1,0.72566,space,0.416565,0,124,124,189,1,0_targ_16_dist_red/trial15.png,,,0,16,redHorizontal,a,44,26,Male,2021-03-02_08h26.36.734,exp11,2020.2.6,Win32,60,,,,,,,,,,,
,,,,,,,,,,,,,,a,1,0.623475,space,0.400355,0,125,125,151,1,0_targ_10_dist_red/trial2.png,,,0,10,redHorizontal,a,44,26,Male,2021-03-02_08h26.36.734,exp11,2020.2.6,Win32,60,,,,,,,,,,,
,,,,,,,,,,,,,,a,1,0.638625,space,0.418655,0,126,126,144,1,0_targ_4_dist_red/trial20.png,,,0,4,redHorizontal,a,44,26,Male,2021-03-02_08h26.36.734,exp11,2020.2.6,Win32,60,,,,,,,,,,,
,,,,,,,,,,,,,,p,1,0.56212,space,0.401045,0,127,127,8,1,0_dist_red/trial9.png,,,1,0,redHorizontal,p,44,26,Male,2021-03-02_08h26.36.734,exp11,2020.2.6,Win32,60,,,,,,,,,,,
,,,,,,,,,,,,,,a,1,0.74147,space,0.42334,0,128,128,185,1,0_targ_16_dist_red/trial11.png,,,0,16,redHorizontal,a,44,26,Male,2021-03-02_08h26.36.734,exp11,2020.2.6,Win32,60,,,,,,,,,,,
,,,,,,,,,,,,,,a,1,1.031555,space,0.305585,0,129,129,124,1,0_targ_1_dist_red/trial25.png,,,0,1,redHorizontal,a,44,26,Male,2021-03-02_08h26.36.734,exp11,2020.2.6,Win32,60,,,,,,,,,,,
,,,,,,,,,,,,,,p,1,0.65564,space,0.435835,0,130,130,25,1,3_dist_red/trial1.png,,,1,3,redHorizontal,p,44,26,Male,2021-03-02_08h26.36.734,exp11,2020.2.6,Win32,60,,,,,,,,,,,
,,,,,,,,,,,,,,a,1,1.42528,space,0.350205,0,131,131,118,1,0_targ_1_dist_red/trial19.png,,,0,1,redHorizontal,a,44,26,Male,2021-03-02_08h26.36.734,exp11,2020.2.6,Win32,60,,,,,,,,,,,
,,,,,,,,,,,,,,p,1,0.792855,space,0.335045,0,132,132,83,1,15_dist_red/trial9.png,,,1,15,redHorizontal,p,44,26,Male,2021-03-02_08h26.36.734,exp11,2020.2.6,Win32,60,,,,,,,,,,,
,,,,,,,,,,,,,,a,1,0.73724,space,0.385995,0,133,133,153,1,0_targ_10_dist_red/trial4.png,,,0,10,redHorizontal,a,44,26,Male,2021-03-02_08h26.36.734,exp11,2020.2.6,Win32,60,,,,,,,,,,,
,,,,,,,,,,,,,,p,1,0.83118,space,0.421845,0,134,134,72,1,9_dist_red/trial23.png,,,1,9,redHorizontal,p,44,26,Male,2021-03-02_08h26.36.734,exp11,2020.2.6,Win32,60,,,,,,,,,,,
,,,,,,,,,,,,,,a,1,0.830085,space,0.40265,0,135,135,156,1,0_targ_10_dist_red/trial7.png,,,0,10,redHorizontal,a,44,26,Male,2021-03-02_08h26.36.734,exp11,2020.2.6,Win32,60,,,,,,,,,,,
,,,,,,,,,,,,,,p,1,0.65936,space,0.40354,0,136,136,29,1,3_dist_red/trial5.png,,,1,3,redHorizontal,p,44,26,Male,2021-03-02_08h26.36.734,exp11,2020.2.6,Win32,60,,,,,,,,,,,
,,,,,,,,,,,,,,a,1,0.75378,space,0.420225,0,137,137,149,1,0_targ_4_dist_red/trial25.png,,,0,4,redHorizontal,a,44,26,Male,2021-03-02_08h26.36.734,exp11,2020.2.6,Win32,60,,,,,,,,,,,
,,,,,,,,,,,,,,a,1,0.671475,space,0.46881,0,138,138,145,1,0_targ_4_dist_red/trial21.png,,,0,4,redHorizontal,a,44,26,Male,2021-03-02_08h26.36.734,exp11,2020.2.6,Win32,60,,,,,,,,,,,
,,,,,,,,,,,,,,p,1,0.68063,space,0.37409,0,139,139,48,1,3_dist_red/trial24.png,,,1,3,redHorizontal,p,44,26,Male,2021-03-02_08h26.36.734,exp11,2020.2.6,Win32,60,,,,,,,,,,,
,,,,,,,,,,,,,,a,1,0.63237,space,0.43463,0,140,140,135,1,0_targ_4_dist_red/trial11.png,,,0,4,redHorizontal,a,44,26,Male,2021-03-02_08h26.36.734,exp11,2020.2.6,Win32,60,,,,,,,,,,,
,,,,,,,,,,,,,,a,1,0.66094,space,0.416135,0,141,141,170,1,0_targ_10_dist_red/trial21.png,,,0,10,redHorizontal,a,44,26,Male,2021-03-02_08h26.36.734,exp11,2020.2.6,Win32,60,,,,,,,,,,,
,,,,,,,,,,,,,,p,1,0.828455,space,0.4014,0,142,142,69,1,9_dist_red/trial20.png,,,1,9,redHorizontal,p,44,26,Male,2021-03-02_08h26.36.734,exp11,2020.2.6,Win32,60,,,,,,,,,,,
,,,,,,,,,,,,,,a,1,1.17103,space,0.390225,0,143,143,143,1,0_targ_4_dist_red/trial19.png,,,0,4,redHorizontal,a,44,26,Male,2021-03-02_08h26.36.734,exp11,2020.2.6,Win32,60,,,,,,,,,,,
,,,,,,,,,,,,,,a,1,0.878325,space,0.36789,0,144,144,101,1,0_targ_1_dist_red/trial2.png,,,0,1,redHorizontal,a,44,26,Male,2021-03-02_08h26.36.734,exp11,2020.2.6,Win32,60,,,,,,,,,,,
,,,,,,,,,,,,,,a,1,0.5862,space,0.41601,0,145,145,107,1,0_targ_1_dist_red/trial8.png,,,0,1,redHorizontal,a,44,26,Male,2021-03-02_08h26.36.734,exp11,2020.2.6,Win32,60,,,,,,,,,,,
,,,,,,,,,,,,,,a,1,0.561405,space,0.39999,0,146,146,108,1,0_targ_1_dist_red/trial9.png,,,0,1,redHorizontal,a,44,26,Male,2021-03-02_08h26.36.734,exp11,2020.2.6,Win32,60,,,,,,,,,,,
,,,,,,,,,,,,,,a,1,0.88176,space,0.43348,0,147,147,191,1,0_targ_16_dist_red/trial17.png,,,0,16,redHorizontal,a,44,26,Male,2021-03-02_08h26.36.734,exp11,2020.2.6,Win32,60,,,,,,,,,,,
,,,,,,,,,,,,,,a,1,0.55676,space,0.38457,0,148,148,142,1,0_targ_4_dist_red/trial18.png,,,0,4,redHorizontal,a,44,26,Male,2021-03-02_08h26.36.734,exp11,2020.2.6,Win32,60,,,,,,,,,,,
,,,,,,,,,,,,,,a,1,0.73362,space,0.36971,0,149,149,198,1,0_targ_16_dist_red/trial24.png,,,0,16,redHorizontal,a,44,26,Male,2021-03-02_08h26.36.734,exp11,2020.2.6,Win32,60,,,,,,,,,,,
,,,,,,,,,,,,,,a,1,0.600195,space,0.40069,0,150,150,141,1,0_targ_4_dist_red/trial17.png,,,0,4,redHorizontal,a,44,26,Male,2021-03-02_08h26.36.734,exp11,2020.2.6,Win32,60,,,,,,,,,,,
,,,,,,,,,,,,,,p,1,0.547805,space,0.367665,0,151,151,42,1,3_dist_red/trial18.png,,,1,3,redHorizontal,p,44,26,Male,2021-03-02_08h26.36.734,exp11,2020.2.6,Win32,60,,,,,,,,,,,
,,,,,,,,,,,,,,a,1,0.64661,space,0.355255,0,152,152,123,1,0_targ_1_dist_red/trial24.png,,,0,1,redHorizontal,a,44,26,Male,2021-03-02_08h26.36.734,exp11,2020.2.6,Win32,60,,,,,,,,,,,
,,,,,,,,,,,,,,a,1,1.182395,space,0.41726,0,153,153,199,1,0_targ_16_dist_red/trial25.png,,,0,16,redHorizontal,a,44,26,Male,2021-03-02_08h26.36.734,exp11,2020.2.6,Win32,60,,,,,,,,,,,
,,,,,,,,,,,,,,a,1,0.59197,space,0.33128,0,154,154,173,1,0_targ_10_dist_red/trial24.png,,,0,10,redHorizontal,a,44,26,Male,2021-03-02_08h26.36.734,exp11,2020.2.6,Win32,60,,,,,,,,,,,
,,,,,,,,,,,,,,p,1,0.68853,space,0.317485,0,155,155,55,1,9_dist_red/trial6.png,,,1,9,redHorizontal,p,44,26,Male,2021-03-02_08h26.36.734,exp11,2020.2.6,Win32,60,,,,,,,,,,,
,,,,,,,,,,,,,,a,1,0.658685,space,0.35536,0,156,156,146,1,0_targ_4_dist_red/trial22.png,,,0,4,redHorizontal,a,44,26,Male,2021-03-02_08h26.36.734,exp11,2020.2.6,Win32,60,,,,,,,,,,,
,,,,,,,,,,,,,,a,1,0.639205,space,0.93512,0,157,157,161,1,0_targ_10_dist_red/trial12.png,,,0,10,redHorizontal,a,44,26,Male,2021-03-02_08h26.36.734,exp11,2020.2.6,Win32,60,,,,,,,,,,,
,,,,,,,,,,,,,,a,1,0.61332,space,0.401375,0,158,158,160,1,0_targ_10_dist_red/trial11.png,,,0,10,redHorizontal,a,44,26,Male,2021-03-02_08h26.36.734,exp11,2020.2.6,Win32,60,,,,,,,,,,,
,,,,,,,,,,,,,,p,1,0.742495,space,0.3016,0,159,159,99,1,15_dist_red/trial25.png,,,1,15,redHorizontal,p,44,26,Male,2021-03-02_08h26.36.734,exp11,2020.2.6,Win32,60,,,,,,,,,,,
,,,,,,,,,,,,,,p,1,0.766585,space,0.350385,0,160,160,59,1,9_dist_red/trial10.png,,,1,9,redHorizontal,p,44,26,Male,2021-03-02_08h26.36.734,exp11,2020.2.6,Win32,60,,,,,,,,,,,
,,,,,,,,,,,,,,a,1,0.64047,space,0.399395,0,161,161,152,1,0_targ_10_dist_red/trial3.png,,,0,10,redHorizontal,a,44,26,Male,2021-03-02_08h26.36.734,exp11,2020.2.6,Win32,60,,,,,,,,,,,
,,,,,,,,,,,,,,p,1,0.58651,space,0.384855,0,162,162,27,1,3_dist_red/trial3.png,,,1,3,redHorizontal,p,44,26,Male,2021-03-02_08h26.36.734,exp11,2020.2.6,Win32,60,,,,,,,,,,,
,,,,,,,,,,,,,,a,1,0.618615,space,0.40123,0,163,163,104,1,0_targ_1_dist_red/trial5.png,,,0,1,redHorizontal,a,44,26,Male,2021-03-02_08h26.36.734,exp11,2020.2.6,Win32,60,,,,,,,,,,,
,,,,,,,,,,,,,,a,1,0.658335,space,0.447915,0,164,164,182,1,0_targ_16_dist_red/trial8.png,,,0,16,redHorizontal,a,44,26,Male,2021-03-02_08h26.36.734,exp11,2020.2.6,Win32,60,,,,,,,,,,,
,,,,,,,,,,,,,,p,1,0.54899,space,0.38227,0,165,165,13,1,0_dist_red/trial14.png,,,1,0,redHorizontal,p,44,26,Male,2021-03-02_08h26.36.734,exp11,2020.2.6,Win32,60,,,,,,,,,,,
,,,,,,,,,,,,,,a,1,0.586405,space,0.362775,0,166,166,111,1,0_targ_1_dist_red/trial12.png,,,0,1,redHorizontal,a,44,26,Male,2021-03-02_08h26.36.734,exp11,2020.2.6,Win32,60,,,,,,,,,,,
,,,,,,,,,,,,,,p,1,0.80392,space,0.313075,0,167,167,81,1,15_dist_red/trial7.png,,,1,15,redHorizontal,p,44,26,Male,2021-03-02_08h26.36.734,exp11,2020.2.6,Win32,60,,,,,,,,,,,
,,,,,,,,,,,,,,a,1,0.609135,space,0.35007,0,168,168,139,1,0_targ_4_dist_red/trial15.png,,,0,4,redHorizontal,a,44,26,Male,2021-03-02_08h26.36.734,exp11,2020.2.6,Win32,60,,,,,,,,,,,
,,,,,,,,,,,,,,p,1,0.554545,space,0.36714,0,169,169,3,1,0_dist_red/trial4.png,,,1,0,redHorizontal,p,44,26,Male,2021-03-02_08h26.36.734,exp11,2020.2.6,Win32,60,,,,,,,,,,,
,,,,,,,,,,,,,,p,1,0.746755,space,0.30069,0,170,170,96,1,15_dist_red/trial22.png,,,1,15,redHorizontal,p,44,26,Male,2021-03-02_08h26.36.734,exp11,2020.2.6,Win32,60,,,,,,,,,,,
,,,,,,,,,,,,,,a,1,0.560865,space,0.36563,0,171,171,103,1,0_targ_1_dist_red/trial4.png,,,0,1,redHorizontal,a,44,26,Male,2021-03-02_08h26.36.734,exp11,2020.2.6,Win32,60,,,,,,,,,,,
,,,,,,,,,,,,,,a,1,0.599395,space,0.35301,0,172,172,130,1,0_targ_4_dist_red/trial6.png,,,0,4,redHorizontal,a,44,26,Male,2021-03-02_08h26.36.734,exp11,2020.2.6,Win32,60,,,,,,,,,,,
,,,,,,,,,,,,,,p,1,0.561955,space,0.350655,0,173,173,5,1,0_dist_red/trial6.png,,,1,0,redHorizontal,p,44,26,Male,2021-03-02_08h26.36.734,exp11,2020.2.6,Win32,60,,,,,,,,,,,
,,,,,,,,,,,,,,a,1,0.554805,space,0.419105,0,174,174,150,1,0_targ_10_dist_red/trial1.png,,,0,10,redHorizontal,a,44,26,Male,2021-03-02_08h26.36.734,exp11,2020.2.6,Win32,60,,,,,,,,,,,
,,,,,,,,,,,,,,p,1,1.324715,space,0.36899,0,175,175,75,1,15_dist_red/trial1.png,,,1,15,redHorizontal,p,44,26,Male,2021-03-02_08h26.36.734,exp11,2020.2.6,Win32,60,,,,,,,,,,,
,,,,,,,,,,,,,,p,1,0.627085,space,0.300785,0,176,176,57,1,9_dist_red/trial8.png,,,1,9,redHorizontal,p,44,26,Male,2021-03-02_08h26.36.734,exp11,2020.2.6,Win32,60,,,,,,,,,,,
,,,,,,,,,,,,,,p,1,0.552125,space,0.36969,0,177,177,0,1,0_dist_red/trial1.png,,,1,0,redHorizontal,p,44,26,Male,2021-03-02_08h26.36.734,exp11,2020.2.6,Win32,60,,,,,,,,,,,
,,,,,,,,,,,,,,a,1,1.021265,space,0.35255,0,178,178,194,1,0_targ_16_dist_red/trial20.png,,,0,16,redHorizontal,a,44,26,Male,2021-03-02_08h26.36.734,exp11,2020.2.6,Win32,60,,,,,,,,,,,
,,,,,,,,,,,,,,a,1,0.84061,space,0.367175,0,179,179,186,1,0_targ_16_dist_red/trial12.png,,,0,16,redHorizontal,a,44,26,Male,2021-03-02_08h26.36.734,exp11,2020.2.6,Win32,60,,,,,,,,,,,
,,,,,,,,,,,,,,p,1,0.538505,space,0.63259,0,180,180,6,1,0_dist_red/trial7.png,,,1,0,redHorizontal,p,44,26,Male,2021-03-02_08h26.36.734,exp11,2020.2.6,Win32,60,,,,,,,,,,,
,,,,,,,,,,,,,,p,1,0.636445,space,0.30026,0,181,181,4,1,0_dist_red/trial5.png,,,1,0,redHorizontal,p,44,26,Male,2021-03-02_08h26.36.734,exp11,2020.2.6,Win32,60,,,,,,,,,,,
,,,,,,,,,,,,,,a,1,0.566515,space,0.3016,0,182,182,166,1,0_targ_10_dist_red/trial17.png,,,0,10,redHorizontal,a,44,26,Male,2021-03-02_08h26.36.734,exp11,2020.2.6,Win32,60,,,,,,,,,,,
,,,,,,,,,,,,,,a,1,0.59281,space,0.40737,0,183,183,165,1,0_targ_10_dist_red/trial16.png,,,0,10,redHorizontal,a,44,26,Male,2021-03-02_08h26.36.734,exp11,2020.2.6,Win32,60,,,,,,,,,,,
,,,,,,,,,,,,,,p,1,0.5283,space,0.350855,0,184,184,17,1,0_dist_red/trial18.png,,,1,0,redHorizontal,p,44,26,Male,2021-03-02_08h26.36.734,exp11,2020.2.6,Win32,60,,,,,,,,,,,
,,,,,,,,,,,,,,p,1,0.604095,space,0.317585,0,185,185,43,1,3_dist_red/trial19.png,,,1,3,redHorizontal,p,44,26,Male,2021-03-02_08h26.36.734,exp11,2020.2.6,Win32,60,,,,,,,,,,,
,,,,,,,,,,,,,,p,1,0.53975,space,0.289175,0,186,186,82,1,15_dist_red/trial8.png,,,1,15,redHorizontal,p,44,26,Male,2021-03-02_08h26.36.734,exp11,2020.2.6,Win32,60,,,,,,,,,,,
,,,,,,,,,,,,,,p,1,0.863725,space,0.24097,0,187,187,79,1,15_dist_red/trial5.png,,,1,15,redHorizontal,p,44,26,Male,2021-03-02_08h26.36.734,exp11,2020.2.6,Win32,60,,,,,,,,,,,
,,,,,,,,,,,,,,p,1,0.59508,space,0.28913,0,188,188,86,1,15_dist_red/trial12.png,,,1,15,redHorizontal,p,44,26,Male,2021-03-02_08h26.36.734,exp11,2020.2.6,Win32,60,,,,,,,,,,,
,,,,,,,,,,,,,,p,1,0.56966,space,0.282955,0,189,189,60,1,9_dist_red/trial11.png,,,1,9,redHorizontal,p,44,26,Male,2021-03-02_08h26.36.734,exp11,2020.2.6,Win32,60,,,,,,,,,,,
,,,,,,,,,,,,,,p,1,0.583595,space,0.217845,0,190,190,68,1,9_dist_red/trial19.png,,,1,9,redHorizontal,p,44,26,Male,2021-03-02_08h26.36.734,exp11,2020.2.6,Win32,60,,,,,,,,,,,
,,,,,,,,,,,,,,a,1,0.623155,space,0.205535,0,191,191,132,1,0_targ_4_dist_red/trial8.png,,,0,4,redHorizontal,a,44,26,Male,2021-03-02_08h26.36.734,exp11,2020.2.6,Win32,60,,,,,,,,,,,
,,,,,,,,,,,,,,p,1,0.74588,space,0.31736,0,192,192,52,1,9_dist_red/trial3.png,,,1,9,redHorizontal,p,44,26,Male,2021-03-02_08h26.36.734,exp11,2020.2.6,Win32,60,,,,,,,,,,,
,,,,,,,,,,,,,,a,1,0.607895,space,0.30223,0,193,193,137,1,0_targ_4_dist_red/trial13.png,,,0,4,redHorizontal,a,44,26,Male,2021-03-02_08h26.36.734,exp11,2020.2.6,Win32,60,,,,,,,,,,,
,,,,,,,,,,,,,,a,1,0.79349,space,0.34941,0,194,194,148,1,0_targ_4_dist_red/trial24.png,,,0,4,redHorizontal,a,44,26,Male,2021-03-02_08h26.36.734,exp11,2020.2.6,Win32,60,,,,,,,,,,,
,,,,,,,,,,,,,,a,1,0.85339,space,0.252135,0,195,195,127,1,0_targ_4_dist_red/trial3.png,,,0,4,redHorizontal,a,44,26,Male,2021-03-02_08h26.36.734,exp11,2020.2.6,Win32,60,,,,,,,,,,,
,,,,,,,,,,,,,,p,1,0.59529,space,0.333515,0,196,196,62,1,9_dist_red/trial13.png,,,1,9,redHorizontal,p,44,26,Male,2021-03-02_08h26.36.734,exp11,2020.2.6,Win32,60,,,,,,,,,,,
,,,,,,,,,,,,,,a,1,0.604625,space,0.320095,0,197,197,122,1,0_targ_1_dist_red/trial23.png,,,0,1,redHorizontal,a,44,26,Male,2021-03-02_08h26.36.734,exp11,2020.2.6,Win32,60,,,,,,,,,,,
,,,,,,,,,,,,,,a,1,1.09878,space,0.34986,0,198,198,126,1,0_targ_4_dist_red/trial2.png,,,0,4,redHorizontal,a,44,26,Male,2021-03-02_08h26.36.734,exp11,2020.2.6,Win32,60,,,,,,,,,,,
,,,,,,,,,,,,,,a,1,0.570425,space,0.401825,0,199,199,115,1,0_targ_1_dist_red/trial6.png,,,0,1,redHorizontal,a,44,26,Male,2021-03-02_08h26.36.734,exp11,2020.2.6,Win32,60,,,,,,,,,,,
,,,,,,,,,,,,,,,,,,,,,,,,,,,,,,,44,26,Male,2021-03-02_08h26.36.734,exp11,2020.2.6,Win32,60,0,0,0,1,1,conRed.xlsx,red horizontal,Look for red horizontal bar (target) and indicate if it is present or absent in the array. If red horizontal target is present press 'p' and if absent press 'a'. Press SPACE to start.,,,
,,,,,,,,,,space,13.328935,space,3.03414,a,1,0.816885,space,0.4009,0,0,0,109,1,0_targ_1_dist_green/trial10.png,,,0,1,greenverival,a,44,26,Male,2021-03-02_08h26.36.734,exp11,2020.2.6,Win32,60,,,,,,,,,,,
,,,,,,,,,,,,,,a,0,1.122125,space,1.46924,0,1,1,79,1,15_dist_green/trial5.png,,,1,15,greenverival,p,44,26,Male,2021-03-02_08h26.36.734,exp11,2020.2.6,Win32,60,,,,,,,,,,,
,,,,,,,,,,,,,,a,1,1.278375,space,0.63423,0,2,2,176,1,0_targ_16_dist_green/trial2.png,,,0,16,greenverival,a,44,26,Male,2021-03-02_08h26.36.734,exp11,2020.2.6,Win32,60,,,,,,,,,,,
,,,,,,,,,,,,,,p,1,0.60938,space,0.390505,0,3,3,7,1,0_dist_green/trial8.png,,,1,0,greenverival,p,44,26,Male,2021-03-02_08h26.36.734,exp11,2020.2.6,Win32,60,,,,,,,,,,,
,,,,,,,,,,,,,,a,1,0.65473,space,0.384585,0,4,4,131,1,0_targ_4_dist_green/trial7.png,,,0,4,greenverival,a,44,26,Male,2021-03-02_08h26.36.734,exp11,2020.2.6,Win32,60,,,,,,,,,,,
,,,,,,,,,,,,,,p,0,1.46267,space,2.69859,0,5,5,184,1,0_targ_16_dist_green/trial10.png,,,0,16,greenverival,a,44,26,Male,2021-03-02_08h26.36.734,exp11,2020.2.6,Win32,60,,,,,,,,,,,
,,,,,,,,,,,,,,p,1,1.60365,space,0.6855,0,6,6,97,1,15_dist_green/trial23.png,,,1,15,greenverival,p,44,26,Male,2021-03-02_08h26.36.734,exp11,2020.2.6,Win32,60,,,,,,,,,,,
,,,,,,,,,,,,,,a,1,0.917005,space,0.467305,0,7,7,126,1,0_targ_4_dist_green/trial2.png,,,0,4,greenverival,a,44,26,Male,2021-03-02_08h26.36.734,exp11,2020.2.6,Win32,60,,,,,,,,,,,
,,,,,,,,,,,,,,a,1,0.741845,space,0.383845,0,8,8,136,1,0_targ_4_dist_green/trial12.png,,,0,4,greenverival,a,44,26,Male,2021-03-02_08h26.36.734,exp11,2020.2.6,Win32,60,,,,,,,,,,,
,,,,,,,,,,,,,,a,1,0.643325,space,0.604935,0,9,9,137,1,0_targ_4_dist_green/trial13.png,,,0,4,greenverival,a,44,26,Male,2021-03-02_08h26.36.734,exp11,2020.2.6,Win32,60,,,,,,,,,,,
,,,,,,,,,,,,,,p,1,0.84649,space,0.53487,0,10,10,91,1,15_dist_green/trial17.png,,,1,15,greenverival,p,44,26,Male,2021-03-02_08h26.36.734,exp11,2020.2.6,Win32,60,,,,,,,,,,,
,,,,,,,,,,,,,,p,1,0.67778,space,0.46607,0,11,11,20,1,0_dist_green/trial21.png,,,1,0,greenverival,p,44,26,Male,2021-03-02_08h26.36.734,exp11,2020.2.6,Win32,60,,,,,,,,,,,
,,,,,,,,,,,,,,a,1,0.663495,space,0.53343,0,12,12,105,1,0_targ_1_dist_green/trial6.png,,,0,1,greenverival,a,44,26,Male,2021-03-02_08h26.36.734,exp11,2020.2.6,Win32,60,,,,,,,,,,,
,,,,,,,,,,,,,,a,1,1.974185,space,0.425,0,13,13,182,1,0_targ_16_dist_green/trial8.png,,,0,16,greenverival,a,44,26,Male,2021-03-02_08h26.36.734,exp11,2020.2.6,Win32,60,,,,,,,,,,,
,,,,,,,,,,,,,,p,1,0.726675,space,0.3918,0,14,14,38,1,3_dist_green/trial14.png,,,1,3,greenverival,p,44,26,Male,2021-03-02_08h26.36.734,exp11,2020.2.6,Win32,60,,,,,,,,,,,
,,,,,,,,,,,,,,a,1,0.67437,space,0.428305,0,15,15,145,1,0_targ_4_dist_green/trial21.png,,,0,4,greenverival,a,44,26,Male,2021-03-02_08h26.36.734,exp11,2020.2.6,Win32,60,,,,,,,,,,,
,,,,,,,,,,,,,,p,1,1.00454,space,0.384975,0,16,16,89,1,15_dist_green/trial15.png,,,1,15,greenverival,p,44,26,Male,2021-03-02_08h26.36.734,exp11,2020.2.6,Win32,60,,,,,,,,,,,
,,,,,,,,,,,,,,p,1,1.08725,space,0.33521,0,17,17,76,1,15_dist_green/trial2.png,,,1,15,greenverival,p,44,26,Male,2021-03-02_08h26.36.734,exp11,2020.2.6,Win32,60,,,,,,,,,,,
,,,,,,,,,,,,,,p,1,0.645285,space,0.284745,0,18,18,99,1,15_dist_green/trial25.png,,,1,15,greenverival,p,44,26,Male,2021-03-02_08h26.36.734,exp11,2020.2.6,Win32,60,,,,,,,,,,,
,,,,,,,,,,,,,,p,1,0.531045,space,0.367695,0,19,19,0,1,0_dist_green/trial1.png,,,1,0,greenverival,p,44,26,Male,2021-03-02_08h26.36.734,exp11,2020.2.6,Win32,60,,,,,,,,,,,
,,,,,,,,,,,,,,p,1,0.607245,space,0.33486,0,20,20,51,1,9_dist_green/trial2.png,,,1,9,greenverival,p,44,26,Male,2021-03-02_08h26.36.734,exp11,2020.2.6,Win32,60,,,,,,,,,,,
,,,,,,,,,,,,,,a,1,0.59686,space,0.434975,0,21,21,178,1,0_targ_16_dist_green/trial4.png,,,0,16,greenverival,a,44,26,Male,2021-03-02_08h26.36.734,exp11,2020.2.6,Win32,60,,,,,,,,,,,
,,,,,,,,,,,,,,a,1,1.00896,space,0.435605,0,22,22,189,1,0_targ_16_dist_green/trial15.png,,,0,16,greenverival,a,44,26,Male,2021-03-02_08h26.36.734,exp11,2020.2.6,Win32,60,,,,,,,,,,,
,,,,,,,,,,,,,,a,1,0.60904,space,0.408805,0,23,23,110,1,0_targ_1_dist_green/trial11.png,,,0,1,greenverival,a,44,26,Male,2021-03-02_08h26.36.734,exp11,2020.2.6,Win32,60,,,,,,,,,,,
,,,,,,,,,,,,,,p,1,0.739355,space,0.335435,0,24,24,59,1,9_dist_green/trial10.png,,,1,9,greenverival,p,44,26,Male,2021-03-02_08h26.36.734,exp11,2020.2.6,Win32,60,,,,,,,,,,,
,,,,,,,,,,,,,,p,1,0.762445,space,0.38401,0,25,25,53,1,9_dist_green/trial4.png,,,1,9,greenverival,p,44,26,Male,2021-03-02_08h26.36.734,exp11,2020.2.6,Win32,60,,,,,,,,,,,
,,,,,,,,,,,,,,p,1,0.762345,space,0.35299,0,26,26,77,1,15_dist_green/trial3.png,,,1,15,greenverival,p,44,26,Male,2021-03-02_08h26.36.734,exp11,2020.2.6,Win32,60,,,,,,,,,,,
,,,,,,,,,,,,,,p,1,0.577805,space,0.2999,0,27,27,26,1,3_dist_green/trial2.png,,,1,3,greenverival,p,44,26,Male,2021-03-02_08h26.36.734,exp11,2020.2.6,Win32,60,,,,,,,,,,,
,,,,,,,,,,,,,,a,1,0.6626,space,0.36761,0,28,28,121,1,0_targ_1_dist_green/trial22.png,,,0,1,greenverival,a,44,26,Male,2021-03-02_08h26.36.734,exp11,2020.2.6,Win32,60,,,,,,,,,,,
,,,,,,,,,,,,,,a,1,1.13561,space,0.43484,0,29,29,190,1,0_targ_16_dist_green/trial16.png,,,0,16,greenverival,a,44,26,Male,2021-03-02_08h26.36.734,exp11,2020.2.6,Win32,60,,,,,,,,,,,
,,,,,,,,,,,,,,p,1,0.77357,space,0.373975,0,30,30,83,1,15_dist_green/trial9.png,,,1,15,greenverival,p,44,26,Male,2021-03-02_08h26.36.734,exp11,2020.2.6,Win32,60,,,,,,,,,,,
,,,,,,,,,,,,,,a,1,0.871915,space,0.61631,0,31,31,198,1,0_targ_16_dist_green/trial24.png,,,0,16,greenverival,a,44,26,Male,2021-03-02_08h26.36.734,exp11,2020.2.6,Win32,60,,,,,,,,,,,
,,,,,,,,,,,,,,p,1,0.582055,space,0.36692,0,32,32,1,1,0_dist_green/trial2.png,,,1,0,greenverival,p,44,26,Male,2021-03-02_08h26.36.734,exp11,2020.2.6,Win32,60,,,,,,,,,,,
,,,,,,,,,,,,,,p,1,0.618385,space,0.342035,0,33,33,67,1,9_dist_green/trial18.png,,,1,9,greenverival,p,44,26,Male,2021-03-02_08h26.36.734,exp11,2020.2.6,Win32,60,,,,,,,,,,,
,,,,,,,,,,,,,,a,1,0.804195,space,0.38925,0,34,34,159,1,0_targ_10_dist_green/trial10.png,,,0,10,greenverival,a,44,26,Male,2021-03-02_08h26.36.734,exp11,2020.2.6,Win32,60,,,,,,,,,,,
,,,,,,,,,,,,,,p,1,0.596555,space,0.30127,0,35,35,58,1,9_dist_green/trial9.png,,,1,9,greenverival,p,44,26,Male,2021-03-02_08h26.36.734,exp11,2020.2.6,Win32,60,,,,,,,,,,,
,,,,,,,,,,,,,,p,1,0.606245,space,0.32429,0,36,36,42,1,3_dist_green/trial18.png,,,1,3,greenverival,p,44,26,Male,2021-03-02_08h26.36.734,exp11,2020.2.6,Win32,60,,,,,,,,,,,
,,,,,,,,,,,,,,p,1,0.68269,space,0.235,0,37,37,86,1,15_dist_green/trial12.png,,,1,15,greenverival,p,44,26,Male,2021-03-02_08h26.36.734,exp11,2020.2.6,Win32,60,,,,,,,,,,,
,,,,,,,,,,,,,,p,1,0.509605,space,0.267405,0,38,38,87,1,15_dist_green/trial13.png,,,1,15,greenverival,p,44,26,Male,2021-03-02_08h26.36.734,exp11,2020.2.6,Win32,60,,,,,,,,,,,
,,,,,,,,,,,,,,p,1,0.52553,space,0.301535,0,39,39,9,1,0_dist_green/trial10.png,,,1,0,greenverival,p,44,26,Male,2021-03-02_08h26.36.734,exp11,2020.2.6,Win32,60,,,,,,,,,,,
,,,,,,,,,,,,,,a,1,0.696295,space,0.30125,0,40,40,142,1,0_targ_4_dist_green/trial18.png,,,0,4,greenverival,a,44,26,Male,2021-03-02_08h26.36.734,exp11,2020.2.6,Win32,60,,,,,,,,,,,
,,,,,,,,,,,,,,a,1,0.87348,space,0.17101,0,41,41,150,1,0_targ_10_dist_green/trial1.png,,,0,10,greenverival,a,44,26,Male,2021-03-02_08h26.36.734,exp11,2020.2.6,Win32,60,,,,,,,,,,,
,,,,,,,,,,,,,,p,1,0.66035,space,0.438675,0,42,42,64,1,9_dist_green/trial15.png,,,1,9,greenverival,p,44,26,Male,2021-03-02_08h26.36.734,exp11,2020.2.6,Win32,60,,,,,,,,,,,
,,,,,,,,,,,,,,a,1,0.883735,space,0.483785,0,43,43,199,1,0_targ_16_dist_green/trial25.png,,,0,16,greenverival,a,44,26,Male,2021-03-02_08h26.36.734,exp11,2020.2.6,Win32,60,,,,,,,,,,,
,,,,,,,,,,,,,,a,1,1.010815,space,0.319535,0,44,44,180,1,0_targ_16_dist_green/trial6.png,,,0,16,greenverival,a,44,26,Male,2021-03-02_08h26.36.734,exp11,2020.2.6,Win32,60,,,,,,,,,,,
,,,,,,,,,,,,,,p,1,0.470715,space,0.702185,0,45,45,24,1,0_dist_green/trial25.png,,,1,0,greenverival,p,44,26,Male,2021-03-02_08h26.36.734,exp11,2020.2.6,Win32,60,,,,,,,,,,,
,,,,,,,,,,,,,,p,1,0.74665,space,0.233845,0,46,46,85,1,15_dist_green/trial11.png,,,1,15,greenverival,p,44,26,Male,2021-03-02_08h26.36.734,exp11,2020.2.6,Win32,60,,,,,,,,,,,
,,,,,,,,,,,,,,a,0,0.676645,space,1.0171,0,47,47,95,1,15_dist_green/trial21.png,,,1,15,greenverival,p,44,26,Male,2021-03-02_08h26.36.734,exp11,2020.2.6,Win32,60,,,,,,,,,,,
,,,,,,,,,,,,,,a,1,0.712875,space,0.33403,0,48,48,140,1,0_targ_4_dist_green/trial6.png,,,0,4,greenverival,a,44,26,Male,2021-03-02_08h26.36.734,exp11,2020.2.6,Win32,60,,,,,,,,,,,
,,,,,,,,,,,,,,a,1,0.710925,space,0.363195,0,49,49,163,1,0_targ_10_dist_green/trial14.png,,,0,10,greenverival,a,44,26,Male,2021-03-02_08h26.36.734,exp11,2020.2.6,Win32,60,,,,,,,,,,,
,,,,,,,,,,,,,,a,1,0.63167,space,0.41719,0,50,50,107,1,0_targ_1_dist_green/trial8.png,,,0,1,greenverival,a,44,26,Male,2021-03-02_08h26.36.734,exp11,2020.2.6,Win32,60,,,,,,,,,,,
,,,,,,,,,,,,,,p,1,0.684445,space,0.40178,0,51,51,35,1,3_dist_green/trial11.png,,,1,3,greenverival,p,44,26,Male,2021-03-02_08h26.36.734,exp11,2020.2.6,Win32,60,,,,,,,,,,,
,,,,,,,,,,,,,,p,1,0.53002,space,0.36665,0,52,52,13,1,0_dist_green/trial14.png,,,1,0,greenverival,p,44,26,Male,2021-03-02_08h26.36.734,exp11,2020.2.6,Win32,60,,,,,,,,,,,
,,,,,,,,,,,,,,a,1,0.55199,space,0.351155,0,53,53,101,1,0_targ_1_dist_green/trial2.png,,,0,1,greenverival,a,44,26,Male,2021-03-02_08h26.36.734,exp11,2020.2.6,Win32,60,,,,,,,,,,,
,,,,,,,,,,,,,,p,1,0.6009,space,0.33432,0,54,54,39,1,3_dist_green/trial15.png,,,1,3,greenverival,p,44,26,Male,2021-03-02_08h26.36.734,exp11,2020.2.6,Win32,60,,,,,,,,,,,
,,,,,,,,,,,,,,a,1,0.69236,space,0.39807,0,55,55,157,1,0_targ_10_dist_green/trial8.png,,,0,10,greenverival,a,44,26,Male,2021-03-02_08h26.36.734,exp11,2020.2.6,Win32,60,,,,,,,,,,,
,,,,,,,,,,,,,,a,1,1.40441,space,0.54945,0,56,56,172,1,0_targ_10_dist_green/trial23.png,,,0,10,greenverival,a,44,26,Male,2021-03-02_08h26.36.734,exp11,2020.2.6,Win32,60,,,,,,,,,,,
,,,,,,,,,,,,,,a,1,0.577575,space,0.40071,0,57,57,153,1,0_targ_10_dist_green/trial4.png,,,0,10,greenverival,a,44,26,Male,2021-03-02_08h26.36.734,exp11,2020.2.6,Win32,60,,,,,,,,,,,
,,,,,,,,,,,,,,p,1,0.74279,space,0.384605,0,58,58,10,1,0_dist_green/trial11.png,,,1,0,greenverival,p,44,26,Male,2021-03-02_08h26.36.734,exp11,2020.2.6,Win32,60,,,,,,,,,,,
,,,,,,,,,,,,,,a,1,0.644825,space,0.419755,0,59,59,141,1,0_targ_4_dist_green/trial17.png,,,0,4,greenverival,a,44,26,Male,2021-03-02_08h26.36.734,exp11,2020.2.6,Win32,60,,,,,,,,,,,
,,,,,,,,,,,,,,p,1,0.620955,space,0.317865,0,60,60,84,1,15_dist_green/trial10.png,,,1,15,greenverival,p,44,26,Male,2021-03-02_08h26.36.734,exp11,2020.2.6,Win32,60,,,,,,,,,,,
,,,,,,,,,,,,,,p,1,0.52287,space,0.284645,0,61,61,31,1,3_dist_green/trial7.png,,,1,3,greenverival,p,44,26,Male,2021-03-02_08h26.36.734,exp11,2020.2.6,Win32,60,,,,,,,,,,,
,,,,,,,,,,,,,,p,1,0.608015,space,0.367395,0,62,62,70,1,9_dist_green/trial21.png,,,1,9,greenverival,p,44,26,Male,2021-03-02_08h26.36.734,exp11,2020.2.6,Win32,60,,,,,,,,,,,
,,,,,,,,,,,,,,p,1,0.44418,space,0.31583,0,63,63,22,1,0_dist_green/trial23.png,,,1,0,greenverival,p,44,26,Male,2021-03-02_08h26.36.734,exp11,2020.2.6,Win32,60,,,,,,,,,,,
,,,,,,,,,,,,,,p,1,0.472725,space,0.334565,0,64,64,3,1,0_dist_green/trial4.png,,,1,0,greenverival,p,44,26,Male,2021-03-02_08h26.36.734,exp11,2020.2.6,Win32,60,,,,,,,,,,,
,,,,,,,,,,,,,,a,1,1.015615,space,0.383015,0,65,65,152,1,0_targ_10_dist_green/trial3.png,,,0,10,greenverival,a,44,26,Male,2021-03-02_08h26.36.734,exp11,2020.2.6,Win32,60,,,,,,,,,,,
,,,,,,,,,,,,,,p,1,0.69473,space,0.23402,0,66,66,65,1,9_dist_green/trial16.png,,,1,9,greenverival,p,44,26,Male,2021-03-02_08h26.36.734,exp11,2020.2.6,Win32,60,,,,,,,,,,,
,,,,,,,,,,,,,,a,1,0.96762,space,0.350735,0,67,67,167,1,0_targ_10_dist_green/trial18.png,,,0,10,greenverival,a,44,26,Male,2021-03-02_08h26.36.734,exp11,2020.2.6,Win32,60,,,,,,,,,,,
,,,,,,,,,,,,,,p,1,0.70348,space,0.289965,0,68,68,25,1,3_dist_green/trial1.png,,,1,3,greenverival,p,44,26,Male,2021-03-02_08h26.36.734,exp11,2020.2.6,Win32,60,,,,,,,,,,,
,,,,,,,,,,,,,,p,1,0.63762,space,0.29784,0,69,69,47,1,3_dist_green/trial23.png,,,1,3,greenverival,p,44,26,Male,2021-03-02_08h26.36.734,exp11,2020.2.6,Win32,60,,,,,,,,,,,
,,,,,,,,,,,,,,a,1,0.629645,space,0.401655,0,70,70,161,1,0_targ_10_dist_green/trial12.png,,,0,10,greenverival,a,44,26,Male,2021-03-02_08h26.36.734,exp11,2020.2.6,Win32,60,,,,,,,,,,,
,,,,,,,,,,,,,,p,1,0.63071,space,0.33349,0,71,71,60,1,9_dist_green/trial11.png,,,1,9,greenverival,p,44,26,Male,2021-03-02_08h26.36.734,exp11,2020.2.6,Win32,60,,,,,,,,,,,
,,,,,,,,,,,,,,p,1,0.880895,space,0.317185,0,72,72,73,1,9_dist_green/trial24.png,,,1,9,greenverival,p,44,26,Male,2021-03-02_08h26.36.734,exp11,2020.2.6,Win32,60,,,,,,,,,,,
,,,,,,,,,,,,,,a,1,0.70745,space,0.447385,0,73,73,162,1,0_targ_10_dist_green/trial13.png,,,0,10,greenverival,a,44,26,Male,2021-03-02_08h26.36.734,exp11,2020.2.6,Win32,60,,,,,,,,,,,
,,,,,,,,,,,,,,a,1,1.045675,space,0.33388,0,74,74,119,1,0_targ_1_dist_green/trial20.png,,,0,1,greenverival,a,44,26,Male,2021-03-02_08h26.36.734,exp11,2020.2.6,Win32,60,,,,,,,,,,,
,,,,,,,,,,,,,,p,1,0.561215,space,0.32348,0,75,75,5,1,0_dist_green/trial6.png,,,1,0,greenverival,p,44,26,Male,2021-03-02_08h26.36.734,exp11,2020.2.6,Win32,60,,,,,,,,,,,
,,,,,,,,,,,,,,a,1,1.160215,space,0.26911,0,76,76,138,1,0_targ_4_dist_green/trial14.png,,,0,4,greenverival,a,44,26,Male,2021-03-02_08h26.36.734,exp11,2020.2.6,Win32,60,,,,,,,,,,,
,,,,,,,,,,,,,,a,1,0.87227,space,0.4505,0,77,77,187,1,0_targ_16_dist_green/trial13.png,,,0,16,greenverival,a,44,26,Male,2021-03-02_08h26.36.734,exp11,2020.2.6,Win32,60,,,,,,,,,,,
,,,,,,,,,,,,,,p,1,0.557095,space,0.317505,0,78,78,46,1,3_dist_green/trial22.png,,,1,3,greenverival,p,44,26,Male,2021-03-02_08h26.36.734,exp11,2020.2.6,Win32,60,,,,,,,,,,,
,,,,,,,,,,,,,,a,1,0.618855,space,0.355755,0,79,79,143,1,0_targ_4_dist_green/trial19.png,,,0,4,greenverival,a,44,26,Male,2021-03-02_08h26.36.734,exp11,2020.2.6,Win32,60,,,,,,,,,,,
,,,,,,,,,,,,,,p,1,0.61581,space,0.401215,0,80,80,40,1,3_dist_green/trial16.png,,,1,3,greenverival,p,44,26,Male,2021-03-02_08h26.36.734,exp11,2020.2.6,Win32,60,,,,,,,,,,,
,,,,,,,,,,,,,,a,1,0.610805,space,0.34994,0,81,81,132,1,0_targ_4_dist_green/trial8.png,,,0,4,greenverival,a,44,26,Male,2021-03-02_08h26.36.734,exp11,2020.2.6,Win32,60,,,,,,,,,,,
,,,,,,,,,,,,,,a,1,0.61076,space,0.335675,0,82,82,127,1,0_targ_4_dist_green/trial3.png,,,0,4,greenverival,a,44,26,Male,2021-03-02_08h26.36.734,exp11,2020.2.6,Win32,60,,,,,,,,,,,
,,,,,,,,,,,,,,p,1,0.530905,space,0.351265,0,83,83,23,1,0_dist_green/trial24.png,,,1,0,greenverival,p,44,26,Male,2021-03-02_08h26.36.734,exp11,2020.2.6,Win32,60,,,,,,,,,,,
,,,,,,,,,,,,,,a,1,0.67899,space,0.33412,0,84,84,146,1,0_targ_4_dist_green/trial22.png,,,0,4,greenverival,a,44,26,Male,2021-03-02_08h26.36.734,exp11,2020.2.6,Win32,60,,,,,,,,,,,
,,,,,,,,,,,,,,a,1,1.187795,space,0.31753,0,85,85,191,1,0_targ_16_dist_green/trial17.png,,,0,16,greenverival,a,44,26,Male,2021-03-02_08h26.36.734,exp11,2020.2.6,Win32,60,,,,,,,,,,,
,,,,,,,,,,,,,,p,1,0.575,space,0.253925,0,86,86,75,1,15_dist_green/trial1.png,,,1,15,greenverival,p,44,26,Male,2021-03-02_08h26.36.734,exp11,2020.2.6,Win32,60,,,,,,,,,,,
,,,,,,,,,,,,,,a,1,0.59111,space,0.33012,0,87,87,155,1,0_targ_10_dist_green/trial6.png,,,0,10,greenverival,a,44,26,Male,2021-03-02_08h26.36.734,exp11,2020.2.6,Win32,60,,,,,,,,,,,
,,,,,,,,,,,,,,p,1,0.494405,space,0.300845,0,88,88,8,1,0_dist_green/trial9.png,,,1,0,greenverival,p,44,26,Male,2021-03-02_08h26.36.734,exp11,2020.2.6,Win32,60,,,,,,,,,,,
,,,,,,,,,,,,,,p,1,0.506425,space,0.320515,0,89,89,18,1,0_dist_green/trial19.png,,,1,0,greenverival,p,44,26,Male,2021-03-02_08h26.36.734,exp11,2020.2.6,Win32,60,,,,,,,,,,,
,,,,,,,,,,,,,,a,1,0.511895,space,0.319135,0,90,90,174,1,0_targ_10_dist_green/trial25.png,,,0,10,greenverival,a,44,26,Male,2021-03-02_08h26.36.734,exp11,2020.2.6,Win32,60,,,,,,,,,,,
,,,,,,,,,,,,,,p,1,0.469595,space,0.33408,0,91,91,11,1,0_dist_green/trial12.png,,,1,0,greenverival,p,44,26,Male,2021-03-02_08h26.36.734,exp11,2020.2.6,Win32,60,,,,,,,,,,,
,,,,,,,,,,,,,,a,1,0.526505,space,0.332265,0,92,92,134,1,0_targ_4_dist_green/trial10.png,,,0,4,greenverival,a,44,26,Male,2021-03-02_08h26.36.734,exp11,2020.2.6,Win32,60,,,,,,,,,,,
,,,,,,,,,,,,,,p,1,0.52815,space,0.290605,0,93,93,62,1,9_dist_green/trial13.png,,,1,9,greenverival,p,44,26,Male,2021-03-02_08h26.36.734,exp11,2020.2.6,Win32,60,,,,,,,,,,,
,,,,,,,,,,,,,,p,1,0.916745,space,0.317675,0,94,94,96,1,15_dist_green/trial22.png,,,1,15,greenverival,p,44,26,Male,2021-03-02_08h26.36.734,exp11,2020.2.6,Win32,60,,,,,,,,,,,
,,,,,,,,,,,,,,a,1,0.588275,space,0.30317,0,95,95,165,1,0_targ_10_dist_green/trial16.png,,,0,10,greenverival,a,44,26,Male,2021-03-02_08h26.36.734,exp11,2020.2.6,Win32,60,,,,,,,,,,,
,,,,,,,,,,,,,,a,1,0.56404,space,0.43633,0,96,96,160,1,0_targ_10_dist_green/trial11.png,,,0,10,greenverival,a,44,26,Male,2021-03-02_08h26.36.734,exp11,2020.2.6,Win32,60,,,,,,,,,,,
,,,,,,,,,,,,,,a,1,0.71336,space,0.266905,0,97,97,164,1,0_targ_10_dist_green/trial15.png,,,0,10,greenverival,a,44,26,Male,2021-03-02_08h26.36.734,exp11,2020.2.6,Win32,60,,,,,,,,,,,
,,,,,,,,,,,,,,a,1,0.616985,space,0.25625,0,98,98,171,1,0_targ_10_dist_green/trial22.png,,,0,10,greenverival,a,44,26,Male,2021-03-02_08h26.36.734,exp11,2020.2.6,Win32,60,,,,,,,,,,,
,,,,,,,,,,,,,,a,1,0.54777,space,0.28388,0,99,99,128,1,0_targ_4_dist_green/trial4.png,,,0,4,greenverival,a,44,26,Male,2021-03-02_08h26.36.734,exp11,2020.2.6,Win32,60,,,,,,,,,,,
,,,,,,,,,,,,,,p,1,0.485065,space,0.42003,0,100,100,50,1,9_dist_green/trial1.png,,,1,9,greenverival,p,44,26,Male,2021-03-02_08h26.36.734,exp11,2020.2.6,Win32,60,,,,,,,,,,,
,,,,,,,,,,,,,,a,1,0.79556,space,0.250605,0,101,101,196,1,0_targ_16_dist_green/trial22.png,,,0,16,greenverival,a,44,26,Male,2021-03-02_08h26.36.734,exp11,2020.2.6,Win32,60,,,,,,,,,,,
,,,,,,,,,,,,,,p,1,0.5232,space,0.375495,0,102,102,4,1,0_dist_green/trial5.png,,,1,0,greenverival,p,44,26,Male,2021-03-02_08h26.36.734,exp11,2020.2.6,Win32,60,,,,,,,,,,,
,,,,,,,,,,,,,,a,1,0.71146,space,0.318335,0,103,103,148,1,0_targ_4_dist_green/trial24.png,,,0,4,greenverival,a,44,26,Male,2021-03-02_08h26.36.734,exp11,2020.2.6,Win32,60,,,,,,,,,,,
,,,,,,,,,,,,,,p,1,0.52962,space,0.282645,0,104,104,41,1,3_dist_green/trial17.png,,,1,3,greenverival,p,44,26,Male,2021-03-02_08h26.36.734,exp11,2020.2.6,Win32,60,,,,,,,,,,,
,,,,,,,,,,,,,,p,1,0.611935,space,0.28439,0,105,105,54,1,9_dist_green/trial5.png,,,1,9,greenverival,p,44,26,Male,2021-03-02_08h26.36.734,exp11,2020.2.6,Win32,60,,,,,,,,,,,
,,,,,,,,,,,,,,a,1,0.73866,space,0.33859,0,106,106,186,1,0_targ_16_dist_green/trial12.png,,,0,16,greenverival,a,44,26,Male,2021-03-02_08h26.36.734,exp11,2020.2.6,Win32,60,,,,,,,,,,,
,,,,,,,,,,,,,,p,1,0.503925,space,0.483985,0,107,107,37,1,3_dist_green/trial13.png,,,1,3,greenverival,p,44,26,Male,2021-03-02_08h26.36.734,exp11,2020.2.6,Win32,60,,,,,,,,,,,
,,,,,,,,,,,,,,p,1,0.828375,space,0.25087,0,108,108,90,1,15_dist_green/trial16.png,,,1,15,greenverival,p,44,26,Male,2021-03-02_08h26.36.734,exp11,2020.2.6,Win32,60,,,,,,,,,,,
,,,,,,,,,,,,,,p,1,0.5907,space,0.19864,0,109,109,30,1,3_dist_green/trial6.png,,,1,3,greenverival,p,44,26,Male,2021-03-02_08h26.36.734,exp11,2020.2.6,Win32,60,,,,,,,,,,,
,,,,,,,,,,,,,,a,1,0.61576,space,0.32173,0,110,110,193,1,0_targ_16_dist_green/trial19.png,,,0,16,greenverival,a,44,26,Male,2021-03-02_08h26.36.734,exp11,2020.2.6,Win32,60,,,,,,,,,,,
,,,,,,,,,,,,,,a,1,0.597135,space,0.31747,0,111,111,166,1,0_targ_10_dist_green/trial17.png,,,0,10,greenverival,a,44,26,Male,2021-03-02_08h26.36.734,exp11,2020.2.6,Win32,60,,,,,,,,,,,
,,,,,,,,,,,,,,a,1,1.25654,space,0.38405,0,112,112,177,1,0_targ_16_dist_green/trial3.png,,,0,16,greenverival,a,44,26,Male,2021-03-02_08h26.36.734,exp11,2020.2.6,Win32,60,,,,,,,,,,,
,,,,,,,,,,,,,,a,1,0.62154,space,0.269775,0,113,113,183,1,0_targ_16_dist_green/trial9.png,,,0,16,greenverival,a,44,26,Male,2021-03-02_08h26.36.734,exp11,2020.2.6,Win32,60,,,,,,,,,,,
,,,,,,,,,,,,,,a,1,0.6951,space,0.30902,0,114,114,116,1,0_targ_1_dist_green/trial17.png,,,0,1,greenverival,a,44,26,Male,2021-03-02_08h26.36.734,exp11,2020.2.6,Win32,60,,,,,,,,,,,
,,,,,,,,,,,,,,a,1,0.570855,space,0.28489,0,115,115,102,1,0_targ_1_dist_green/trial3.png,,,0,1,greenverival,a,44,26,Male,2021-03-02_08h26.36.734,exp11,2020.2.6,Win32,60,,,,,,,,,,,
,,,,,,,,,,,,,,p,1,0.5423,space,0.25047,0,116,116,61,1,9_dist_green/trial12.png,,,1,9,greenverival,p,44,26,Male,2021-03-02_08h26.36.734,exp11,2020.2.6,Win32,60,,,,,,,,,,,
,,,,,,,,,,,,,,a,1,0.645295,space,0.31695,0,117,117,173,1,0_targ_10_dist_green/trial24.png,,,0,10,greenverival,a,44,26,Male,2021-03-02_08h26.36.734,exp11,2020.2.6,Win32,60,,,,,,,,,,,
,,,,,,,,,,,,,,p,1,0.580275,space,0.287115,0,118,118,71,1,9_dist_green/trial22.png,,,1,9,greenverival,p,44,26,Male,2021-03-02_08h26.36.734,exp11,2020.2.6,Win32,60,,,,,,,,,,,
,,,,,,,,,,,,,,p,1,0.51264,space,0.28406,0,119,119,12,1,0_dist_green/trial13.png,,,1,0,greenverival,p,44,26,Male,2021-03-02_08h26.36.734,exp11,2020.2.6,Win32,60,,,,,,,,,,,
,,,,,,,,,,,,,,p,1,0.54952,space,0.104845,0,120,120,74,1,9_dist_green/trial25.png,,,1,9,greenverival,p,44,26,Male,2021-03-02_08h26.36.734,exp11,2020.2.6,Win32,60,,,,,,,,,,,
,,,,,,,,,,,,,,a,1,0.89884,space,0.183485,0,121,121,195,1,0_targ_16_dist_green/trial21.png,,,0,16,greenverival,a,44,26,Male,2021-03-02_08h26.36.734,exp11,2020.2.6,Win32,60,,,,,,,,,,,
,,,,,,,,,,,,,,a,1,0.933985,space,0.237195,0,122,122,185,1,0_targ_16_dist_green/trial11.png,,,0,16,greenverival,a,44,26,Male,2021-03-02_08h26.36.734,exp11,2020.2.6,Win32,60,,,,,,,,,,,
,,,,,,,,,,,,,,a,1,0.895835,space,0.28771,0,123,123,118,1,0_targ_1_dist_green/trial19.png,,,0,1,greenverival,a,44,26,Male,2021-03-02_08h26.36.734,exp11,2020.2.6,Win32,60,,,,,,,,,,,
,,,,,,,,,,,,,,p,1,0.91743,space,0.26756,0,124,124,78,1,15_dist_green/trial4.png,,,1,15,greenverival,p,44,26,Male,2021-03-02_08h26.36.734,exp11,2020.2.6,Win32,60,,,,,,,,,,,
,,,,,,,,,,,,,,p,1,0.919325,space,0.185415,0,125,125,16,1,0_dist_green/trial17.png,,,1,0,greenverival,p,44,26,Male,2021-03-02_08h26.36.734,exp11,2020.2.6,Win32,60,,,,,,,,,,,
,,,,,,,,,,,,,,p,1,0.61556,space,0.184245,0,126,126,28,1,3_dist_green/trial4.png,,,1,3,greenverival,p,44,26,Male,2021-03-02_08h26.36.734,exp11,2020.2.6,Win32,60,,,,,,,,,,,
,,,,,,,,,,,,,,p,1,0.55424,space,0.168845,0,127,127,2,1,0_dist_green/trial3.png,,,1,0,greenverival,p,44,26,Male,2021-03-02_08h26.36.734,exp11,2020.2.6,Win32,60,,,,,,,,,,,
,,,,,,,,,,,,,,p,1,0.44226,space,0.18577,0,128,128,14,1,0_dist_green/trial15.png,,,1,0,greenverival,p,44,26,Male,2021-03-02_08h26.36.734,exp11,2020.2.6,Win32,60,,,,,,,,,,,
,,,,,,,,,,,,,,p,1,0.497465,space,0.1436,0,129,129,36,1,3_dist_green/trial12.png,,,1,3,greenverival,p,44,26,Male,2021-03-02_08h26.36.734,exp11,2020.2.6,Win32,60,,,,,,,,,,,
,,,,,,,,,,,,,,p,1,0.449465,space,0.16723,0,130,130,15,1,0_dist_green/trial16.png,,,1,0,greenverival,p,44,26,Male,2021-03-02_08h26.36.734,exp11,2020.2.6,Win32,60,,,,,,,,,,,
,,,,,,,,,,,,,,p,1,0.526045,space,0.183985,0,131,131,68,1,9_dist_green/trial19.png,,,1,9,greenverival,p,44,26,Male,2021-03-02_08h26.36.734,exp11,2020.2.6,Win32,60,,,,,,,,,,,
,,,,,,,,,,,,,,a,1,0.515565,space,0.21825,0,132,132,103,1,0_targ_1_dist_green/trial4.png,,,0,1,greenverival,a,44,26,Male,2021-03-02_08h26.36.734,exp11,2020.2.6,Win32,60,,,,,,,,,,,
,,,,,,,,,,,,,,a,1,0.61222,space,0.1679,0,133,133,117,1,0_targ_1_dist_green/trial18.png,,,0,1,greenverival,a,44,26,Male,2021-03-02_08h26.36.734,exp11,2020.2.6,Win32,60,,,,,,,,,,,
,,,,,,,,,,,,,,p,1,0.616885,space,0.24049,0,134,134,29,1,3_dist_green/trial5.png,,,1,3,greenverival,p,44,26,Male,2021-03-02_08h26.36.734,exp11,2020.2.6,Win32,60,,,,,,,,,,,
,,,,,,,,,,,,,,p,1,0.524155,space,0.190285,0,135,135,34,1,3_dist_green/trial10.png,,,1,3,greenverival,p,44,26,Male,2021-03-02_08h26.36.734,exp11,2020.2.6,Win32,60,,,,,,,,,,,
,,,,,,,,,,,,,,a,1,0.747405,space,0.503965,0,136,136,192,1,0_targ_16_dist_green/trial18.png,,,0,16,greenverival,a,44,26,Male,2021-03-02_08h26.36.734,exp11,2020.2.6,Win32,60,,,,,,,,,,,
,,,,,,,,,,,,,,a,1,0.49737,space,0.20463,0,137,137,104,1,0_targ_1_dist_green/trial5.png,,,0,1,greenverival,a,44,26,Male,2021-03-02_08h26.36.734,exp11,2020.2.6,Win32,60,,,,,,,,,,,
,,,,,,,,,,,,,,a,1,0.48387,space,0.20644,0,138,138,100,1,0_targ_1_dist_green/trial1.png,,,0,1,greenverival,a,44,26,Male,2021-03-02_08h26.36.734,exp11,2020.2.6,Win32,60,,,,,,,,,,,
,,,,,,,,,,,,,,a,1,0.582935,space,0.18843,0,139,139,123,1,0_targ_1_dist_green/trial24.png,,,0,1,greenverival,a,44,26,Male,2021-03-02_08h26.36.734,exp11,2020.2.6,Win32,60,,,,,,,,,,,
,,,,,,,,,,,,,,a,1,0.46756,space,0.167435,0,140,140,111,1,0_targ_1_dist_green/trial12.png,,,0,1,greenverival,a,44,26,Male,2021-03-02_08h26.36.734,exp11,2020.2.6,Win32,60,,,,,,,,,,,
,,,,,,,,,,,,,,p,1,0.53621,space,0.224795,0,141,141,32,1,3_dist_green/trial8.png,,,1,3,greenverival,p,44,26,Male,2021-03-02_08h26.36.734,exp11,2020.2.6,Win32,60,,,,,,,,,,,
,,,,,,,,,,,,,,a,1,0.60337,space,0.174655,0,142,142,169,1,0_targ_10_dist_green/trial20.png,,,0,10,greenverival,a,44,26,Male,2021-03-02_08h26.36.734,exp11,2020.2.6,Win32,60,,,,,,,,,,,
,,,,,,,,,,,,,,a,1,0.58591,space,0.317895,0,143,143,151,1,0_targ_10_dist_green/trial2.png,,,0,10,greenverival,a,44,26,Male,2021-03-02_08h26.36.734,exp11,2020.2.6,Win32,60,,,,,,,,,,,
,,,,,,,,,,,,,,a,1,0.57368,space,0.116715,0,144,144,188,1,0_targ_16_dist_green/trial14.png,,,0,16,greenverival,a,44,26,Male,2021-03-02_08h26.36.734,exp11,2020.2.6,Win32,60,,,,,,,,,,,
,,,,,,,,,,,,,,a,1,0.49771,space,0.203405,0,145,145,129,1,0_targ_4_dist_green/trial5.png,,,0,4,greenverival,a,44,26,Male,2021-03-02_08h26.36.734,exp11,2020.2.6,Win32,60,,,,,,,,,,,
,,,,,,,,,,,,,,p,1,0.50938,space,0.170645,0,146,146,44,1,3_dist_green/trial20.png,,,1,3,greenverival,p,44,26,Male,2021-03-02_08h26.36.734,exp11,2020.2.6,Win32,60,,,,,,,,,,,
,,,,,,,,,,,,,,a,1,0.84403,space,0.182275,0,147,147,149,1,0_targ_4_dist_green/trial25.png,,,0,4,greenverival,a,44,26,Male,2021-03-02_08h26.36.734,exp11,2020.2.6,Win32,60,,,,,,,,,,,
,,,,,,,,,,,,,,a,1,0.44397,space,0.18097,0,148,148,130,1,0_targ_4_dist_green/trial6.png,,,0,4,greenverival,a,44,26,Male,2021-03-02_08h26.36.734,exp11,2020.2.6,Win32,60,,,,,,,,,,,
,,,,,,,,,,,,,,p,1,0.55401,space,0.2504,0,149,149,94,1,15_dist_green/trial20.png,,,1,15,greenverival,p,44,26,Male,2021-03-02_08h26.36.734,exp11,2020.2.6,Win32,60,,,,,,,,,,,
,,,,,,,,,,,,,,p,1,0.51301,space,0.200315,0,150,150,17,1,0_dist_green/trial18.png,,,1,0,greenverival,p,44,26,Male,2021-03-02_08h26.36.734,exp11,2020.2.6,Win32,60,,,,,,,,,,,
,,,,,,,,,,,,,,a,1,0.60879,space,0.13148,0,151,151,158,1,0_targ_10_dist_green/trial9.png,,,0,10,greenverival,a,44,26,Male,2021-03-02_08h26.36.734,exp11,2020.2.6,Win32,60,,,,,,,,,,,
,,,,,,,,,,,,,,p,1,0.96277,space,0.233855,0,152,152,80,1,15_dist_green/trial6.png,,,1,15,greenverival,p,44,26,Male,2021-03-02_08h26.36.734,exp11,2020.2.6,Win32,60,,,,,,,,,,,
,,,,,,,,,,,,,,p,1,0.67539,space,0.14063,0,153,153,66,1,9_dist_green/trial17.png,,,1,9,greenverival,p,44,26,Male,2021-03-02_08h26.36.734,exp11,2020.2.6,Win32,60,,,,,,,,,,,
,,,,,,,,,,,,,,a,1,0.57747,space,0.16761,0,154,154,156,1,0_targ_10_dist_green/trial7.png,,,0,10,greenverival,a,44,26,Male,2021-03-02_08h26.36.734,exp11,2020.2.6,Win32,60,,,,,,,,,,,
,,,,,,,,,,,,,,a,1,0.860505,space,0.131335,0,155,155,113,1,0_targ_1_dist_green/trial14.png,,,0,1,greenverival,a,44,26,Male,2021-03-02_08h26.36.734,exp11,2020.2.6,Win32,60,,,,,,,,,,,
,,,,,,,,,,,,,,a,1,0.73877,space,0.192675,0,156,156,139,1,0_targ_4_dist_green/trial15.png,,,0,4,greenverival,a,44,26,Male,2021-03-02_08h26.36.734,exp11,2020.2.6,Win32,60,,,,,,,,,,,
,,,,,,,,,,,,,,a,1,0.731175,space,0.13438,0,157,157,122,1,0_targ_1_dist_green/trial23.png,,,0,1,greenverival,a,44,26,Male,2021-03-02_08h26.36.734,exp11,2020.2.6,Win32,60,,,,,,,,,,,
,,,,,,,,,,,,,,a,1,0.669425,space,0.135955,0,158,158,154,1,0_targ_10_dist_green/trial5.png,,,0,10,greenverival,a,44,26,Male,2021-03-02_08h26.36.734,exp11,2020.2.6,Win32,60,,,,,,,,,,,
,,,,,,,,,,,,,,p,1,0.65523,space,0.286705,0,159,159,48,1,3_dist_green/trial24.png,,,1,3,greenverival,p,44,26,Male,2021-03-02_08h26.36.734,exp11,2020.2.6,Win32,60,,,,,,,,,,,
,,,,,,,,,,,,,,a,1,0.5126,space,0.13503,0,160,160,147,1,0_targ_4_dist_green/trial23.png,,,0,4,greenverival,a,44,26,Male,2021-03-02_08h26.36.734,exp11,2020.2.6,Win32,60,,,,,,,,,,,
,,,,,,,,,,,,,,p,1,0.57352,space,0.168245,0,161,161,33,1,3_dist_green/trial9.png,,,1,3,greenverival,p,44,26,Male,2021-03-02_08h26.36.734,exp11,2020.2.6,Win32,60,,,,,,,,,,,
,,,,,,,,,,,,,,a,1,0.8433,space,0.13391,0,162,162,135,1,0_targ_4_dist_green/trial11.png,,,0,4,greenverival,a,44,26,Male,2021-03-02_08h26.36.734,exp11,2020.2.6,Win32,60,,,,,,,,,,,
,,,,,,,,,,,,,,p,1,0.79404,space,0.101135,0,163,163,98,1,15_dist_green/trial24.png,,,1,15,greenverival,p,44,26,Male,2021-03-02_08h26.36.734,exp11,2020.2.6,Win32,60,,,,,,,,,,,
,,,,,,,,,,,,,,a,1,0.65736,space,0.138045,0,164,164,112,1,0_targ_1_dist_green/trial13.png,,,0,1,greenverival,a,44,26,Male,2021-03-02_08h26.36.734,exp11,2020.2.6,Win32,60,,,,,,,,,,,
,,,,,,,,,,,,,,p,1,0.78787,space,0.133,0,165,165,27,1,3_dist_green/trial3.png,,,1,3,greenverival,p,44,26,Male,2021-03-02_08h26.36.734,exp11,2020.2.6,Win32,60,,,,,,,,,,,
,,,,,,,,,,,,,,p,1,0.72131,space,0.13388,0,166,166,63,1,9_dist_green/trial14.png,,,1,9,greenverival,p,44,26,Male,2021-03-02_08h26.36.734,exp11,2020.2.6,Win32,60,,,,,,,,,,,
,,,,,,,,,,,,,,a,1,0.538985,space,0.11903,0,167,167,106,1,0_targ_1_dist_green/trial7.png,,,0,1,greenverival,a,44,26,Male,2021-03-02_08h26.36.734,exp11,2020.2.6,Win32,60,,,,,,,,,,,
,,,,,,,,,,,,,,p,1,0.72661,space,0.100135,0,168,168,72,1,9_dist_green/trial23.png,,,1,9,greenverival,p,44,26,Male,2021-03-02_08h26.36.734,exp11,2020.2.6,Win32,60,,,,,,,,,,,
,,,,,,,,,,,,,,a,1,0.675105,space,0.168325,0,169,169,175,1,0_targ_16_dist_green/trial1.png,,,0,16,greenverival,a,44,26,Male,2021-03-02_08h26.36.734,exp11,2020.2.6,Win32,60,,,,,,,,,,,
,,,,,,,,,,,,,,a,1,0.73659,space,0.13272,0,170,170,170,1,0_targ_10_dist_green/trial21.png,,,0,10,greenverival,a,44,26,Male,2021-03-02_08h26.36.734,exp11,2020.2.6,Win32,60,,,,,,,,,,,
,,,,,,,,,,,,,,p,1,0.544115,space,0.13466,0,171,171,21,1,0_dist_green/trial22.png,,,1,0,greenverival,p,44,26,Male,2021-03-02_08h26.36.734,exp11,2020.2.6,Win32,60,,,,,,,,,,,
,,,,,,,,,,,,,,p,1,0.6027,space,0.137735,0,172,172,45,1,3_dist_green/trial21.png,,,1,3,greenverival,p,44,26,Male,2021-03-02_08h26.36.734,exp11,2020.2.6,Win32,60,,,,,,,,,,,
,,,,,,,,,,,,,,a,0,0.726855,space,0.833955,0,173,173,93,1,15_dist_green/trial19.png,,,1,15,greenverival,p,44,26,Male,2021-03-02_08h26.36.734,exp11,2020.2.6,Win32,60,,,,,,,,,,,
,,,,,,,,,,,,,,p,1,0.818835,space,0.33515,0,174,174,82,1,15_dist_green/trial8.png,,,1,15,greenverival,p,44,26,Male,2021-03-02_08h26.36.734,exp11,2020.2.6,Win32,60,,,,,,,,,,,
,,,,,,,,,,,,,,a,1,0.603825,space,0.134665,0,175,175,125,1,0_targ_4_dist_green/trial1.png,,,0,4,greenverival,a,44,26,Male,2021-03-02_08h26.36.734,exp11,2020.2.6,Win32,60,,,,,,,,,,,
,,,,,,,,,,,,,,a,1,1.110055,space,0.084515,0,176,176,181,1,0_targ_16_dist_green/trial7.png,,,0,16,greenverival,a,44,26,Male,2021-03-02_08h26.36.734,exp11,2020.2.6,Win32,60,,,,,,,,,,,
,,,,,,,,,,,,,,p,1,0.638015,space,0.06726,0,177,177,92,1,15_dist_green/trial18.png,,,1,15,greenverival,p,44,26,Male,2021-03-02_08h26.36.734,exp11,2020.2.6,Win32,60,,,,,,,,,,,
,,,,,,,,,,,,,,a,1,0.95398,space,0.07282,0,178,178,108,1,0_targ_1_dist_green/trial9.png,,,0,1,greenverival,a,44,26,Male,2021-03-02_08h26.36.734,exp11,2020.2.6,Win32,60,,,,,,,,,,,
,,,,,,,,,,,,,,a,1,0.882675,space,0.13441,0,179,179,197,1,0_targ_16_dist_green/trial23.png,,,0,16,greenverival,a,44,26,Male,2021-03-02_08h26.36.734,exp11,2020.2.6,Win32,60,,,,,,,,,,,
,,,,,,,,,,,,,,a,1,0.574755,space,0.134935,0,180,180,144,1,0_targ_4_dist_green/trial20.png,,,0,4,greenverival,a,44,26,Male,2021-03-02_08h26.36.734,exp11,2020.2.6,Win32,60,,,,,,,,,,,
,,,,,,,,,,,,,,a,1,0.5291,space,0.100875,0,181,181,114,1,0_targ_1_dist_green/trial15.png,,,0,1,greenverival,a,44,26,Male,2021-03-02_08h26.36.734,exp11,2020.2.6,Win32,60,,,,,,,,,,,
,,,,,,,,,,,,,,a,1,0.4947,space,0.137965,0,182,182,120,1,0_targ_1_dist_green/trial21.png,,,0,1,greenverival,a,44,26,Male,2021-03-02_08h26.36.734,exp11,2020.2.6,Win32,60,,,,,,,,,,,
,,,,,,,,,,,,,,p,1,0.67528,space,0.15015,0,183,183,57,1,9_dist_green/trial8.png,,,1,9,greenverival,p,44,26,Male,2021-03-02_08h26.36.734,exp11,2020.2.6,Win32,60,,,,,,,,,,,
,,,,,,,,,,,,,,p,1,0.54077,space,0.119675,0,184,184,43,1,3_dist_green/trial19.png,,,1,3,greenverival,p,44,26,Male,2021-03-02_08h26.36.734,exp11,2020.2.6,Win32,60,,,,,,,,,,,
,,,,,,,,,,,,,,p,1,0.543125,space,0.13549,0,185,185,49,1,3_dist_green/trial25.png,,,1,3,greenverival,p,44,26,Male,2021-03-02_08h26.36.734,exp11,2020.2.6,Win32,60,,,,,,,,,,,
,,,,,,,,,,,,,,a,1,0.492725,space,0.152735,0,186,186,124,1,0_targ_1_dist_green/trial25.png,,,0,1,greenverival,a,44,26,Male,2021-03-02_08h26.36.734,exp11,2020.2.6,Win32,60,,,,,,,,,,,
,,,,,,,,,,,,,,p,1,0.560595,space,0.083775,0,187,187,81,1,15_dist_green/trial7.png,,,1,15,greenverival,p,44,26,Male,2021-03-02_08h26.36.734,exp11,2020.2.6,Win32,60,,,,,,,,,,,
,,,,,,,,,,,,,,a,1,0.5933,space,0.134605,0,188,188,115,1,0_targ_1_dist_green/trial6.png,,,0,1,greenverival,a,44,26,Male,2021-03-02_08h26.36.734,exp11,2020.2.6,Win32,60,,,,,,,,,,,
,,,,,,,,,,,,,,p,1,0.629825,space,0.134285,0,189,189,88,1,15_dist_green/trial14.png,,,1,15,greenverival,p,44,26,Male,2021-03-02_08h26.36.734,exp11,2020.2.6,Win32,60,,,,,,,,,,,
,,,,,,,,,,,,,,a,1,0.91346,space,0.06615,0,190,190,179,1,0_targ_16_dist_green/trial5.png,,,0,16,greenverival,a,44,26,Male,2021-03-02_08h26.36.734,exp11,2020.2.6,Win32,60,,,,,,,,,,,
,,,,,,,,,,,,,,p,1,0.673645,space,0.136475,0,191,191,19,1,0_dist_green/trial20.png,,,1,0,greenverival,p,44,26,Male,2021-03-02_08h26.36.734,exp11,2020.2.6,Win32,60,,,,,,,,,,,
,,,,,,,,,,,,,,a,1,0.76228,space,0.117555,0,192,192,133,1,0_targ_4_dist_green/trial9.png,,,0,4,greenverival,a,44,26,Male,2021-03-02_08h26.36.734,exp11,2020.2.6,Win32,60,,,,,,,,,,,
,,,,,,,,,,,,,,p,1,0.6977,space,0.158475,0,193,193,6,1,0_dist_green/trial7.png,,,1,0,greenverival,p,44,26,Male,2021-03-02_08h26.36.734,exp11,2020.2.6,Win32,60,,,,,,,,,,,
,,,,,,,,,,,,,,p,1,0.71194,space,0.13792,0,194,194,56,1,9_dist_green/trial7.png,,,1,9,greenverival,p,44,26,Male,2021-03-02_08h26.36.734,exp11,2020.2.6,Win32,60,,,,,,,,,,,
,,,,,,,,,,,,,,p,1,0.859995,space,0.111065,0,195,195,52,1,9_dist_green/trial3.png,,,1,9,greenverival,p,44,26,Male,2021-03-02_08h26.36.734,exp11,2020.2.6,Win32,60,,,,,,,,,,,
,,,,,,,,,,,,,,p,1,0.64655,space,0.067065,0,196,196,55,1,9_dist_green/trial6.png,,,1,9,greenverival,p,44,26,Male,2021-03-02_08h26.36.734,exp11,2020.2.6,Win32,60,,,,,,,,,,,
,,,,,,,,,,,,,,a,1,0.80574,space,0.086445,0,197,197,168,1,0_targ_10_dist_green/trial19.png,,,0,10,greenverival,a,44,26,Male,2021-03-02_08h26.36.734,exp11,2020.2.6,Win32,60,,,,,,,,,,,
,,,,,,,,,,,,,,a,1,0.931415,space,0.06804,0,198,198,194,1,0_targ_16_dist_green/trial20.png,,,0,16,greenverival,a,44,26,Male,2021-03-02_08h26.36.734,exp11,2020.2.6,Win32,60,,,,,,,,,,,
,,,,,,,,,,,,,,p,1,0.711095,space,0.10564,0,199,199,69,1,9_dist_green/trial20.png,,,1,9,greenverival,p,44,26,Male,2021-03-02_08h26.36.734,exp11,2020.2.6,Win32,60,,,,,,,,,,,
,,,,,,,,,,,,,,,,,,,,,,,,,,,,,,,44,26,Male,2021-03-02_08h26.36.734,exp11,2020.2.6,Win32,60,0,1,1,0,1,conGreen.xlsx,green vertical,Look for green vertical bar (target) and indicate if it is present or absent in the array. If green vertical target is present press 'p' and if absent press 'a'. Press SPACE to start.,,,
