key_resp_6.keys,key_resp_6.rt,key_resp_7.keys,key_resp_7.rt,key_resp_8.keys,key_resp_8.rt,key_resp_10.keys,key_resp_10.rt,key_resp_9.keys,key_resp_9.rt,key_resp_3.keys,key_resp_3.rt,key_resp_5.keys,key_resp_5.rt,key_resp.keys,key_resp.corr,key_resp.rt,key_resp_4.keys,key_resp_4.rt,trials.thisRepN,trials.thisTrialN,trials.thisN,trials.thisIndex,trials.ran,ImageFile,tarPos,tarSize,targPres,numDist,targetName,correctAns,participant,age,sex,date,expName,psychopyVersion,OS,frameRate,trials_2.thisRepN,trials_2.thisTrialN,trials_2.thisN,trials_2.thisIndex,trials_2.ran,condsFile,targName,instructionText,colTarget,sizeTarg,posit
space,6.034495,space,10.72142,space,3.49886,space,15.52701,space,5.09341,space,26.159155,space,4.14466,a,1,1.749005,space,3.662985,0,0,0,150,1,0_targ_10_dist_red/trial1.png,,,0,10,redHorizontal,a,49 ,24,Male,2021-03-02_12h56.19.296,exp11,2020.2.6,Win32,60,,,,,,,,,,,
,,,,,,,,,,,,,,a,1,1.504525,space,1.0212,0,1,1,192,1,0_targ_16_dist_red/trial18.png,,,0,16,redHorizontal,a,49 ,24,Male,2021-03-02_12h56.19.296,exp11,2020.2.6,Win32,60,,,,,,,,,,,
,,,,,,,,,,,,,,a,1,0.715095,space,0.430215,0,2,2,102,1,0_targ_1_dist_red/trial3.png,,,0,1,redHorizontal,a,49 ,24,Male,2021-03-02_12h56.19.296,exp11,2020.2.6,Win32,60,,,,,,,,,,,
,,,,,,,,,,,,,,p,1,0.84953,space,0.465205,0,3,3,23,1,0_dist_red/trial24.png,,,1,0,redHorizontal,p,49 ,24,Male,2021-03-02_12h56.19.296,exp11,2020.2.6,Win32,60,,,,,,,,,,,
,,,,,,,,,,,,,,a,1,0.93328,space,0.450275,0,4,4,199,1,0_targ_16_dist_red/trial25.png,,,0,16,redHorizontal,a,49 ,24,Male,2021-03-02_12h56.19.296,exp11,2020.2.6,Win32,60,,,,,,,,,,,
,,,,,,,,,,,,,,a,1,0.822245,space,0.45392,0,5,5,191,1,0_targ_16_dist_red/trial17.png,,,0,16,redHorizontal,a,49 ,24,Male,2021-03-02_12h56.19.296,exp11,2020.2.6,Win32,60,,,,,,,,,,,
,,,,,,,,,,,,,,p,1,0.679675,space,0.836955,0,6,6,58,1,9_dist_red/trial9.png,,,1,9,redHorizontal,p,49 ,24,Male,2021-03-02_12h56.19.296,exp11,2020.2.6,Win32,60,,,,,,,,,,,
,,,,,,,,,,,,,,p,1,1.20854,space,0.42655,0,7,7,85,1,15_dist_red/trial11.png,,,1,15,redHorizontal,p,49 ,24,Male,2021-03-02_12h56.19.296,exp11,2020.2.6,Win32,60,,,,,,,,,,,
,,,,,,,,,,,,,,a,1,0.804835,space,0.40919,0,8,8,109,1,0_targ_1_dist_red/trial10.png,,,0,1,redHorizontal,a,49 ,24,Male,2021-03-02_12h56.19.296,exp11,2020.2.6,Win32,60,,,,,,,,,,,
,,,,,,,,,,,,,,p,1,0.657745,space,0.35464,0,9,9,37,1,3_dist_red/trial13.png,,,1,3,redHorizontal,p,49 ,24,Male,2021-03-02_12h56.19.296,exp11,2020.2.6,Win32,60,,,,,,,,,,,
,,,,,,,,,,,,,,p,1,0.9445,space,0.50471,0,10,10,71,1,9_dist_red/trial22.png,,,1,9,redHorizontal,p,49 ,24,Male,2021-03-02_12h56.19.296,exp11,2020.2.6,Win32,60,,,,,,,,,,,
,,,,,,,,,,,,,,p,1,0.895055,space,0.350095,0,11,11,99,1,15_dist_red/trial25.png,,,1,15,redHorizontal,p,49 ,24,Male,2021-03-02_12h56.19.296,exp11,2020.2.6,Win32,60,,,,,,,,,,,
,,,,,,,,,,,,,,p,1,0.71179,space,0.30923,0,12,12,66,1,9_dist_red/trial17.png,,,1,9,redHorizontal,p,49 ,24,Male,2021-03-02_12h56.19.296,exp11,2020.2.6,Win32,60,,,,,,,,,,,
,,,,,,,,,,,,,,a,1,0.71739,space,0.366925,0,13,13,128,1,0_targ_4_dist_red/trial4.png,,,0,4,redHorizontal,a,49 ,24,Male,2021-03-02_12h56.19.296,exp11,2020.2.6,Win32,60,,,,,,,,,,,
,,,,,,,,,,,,,,a,1,1.30837,space,0.33637,0,14,14,151,1,0_targ_10_dist_red/trial2.png,,,0,10,redHorizontal,a,49 ,24,Male,2021-03-02_12h56.19.296,exp11,2020.2.6,Win32,60,,,,,,,,,,,
,,,,,,,,,,,,,,p,1,0.63287,space,0.3189,0,15,15,31,1,3_dist_red/trial7.png,,,1,3,redHorizontal,p,49 ,24,Male,2021-03-02_12h56.19.296,exp11,2020.2.6,Win32,60,,,,,,,,,,,
,,,,,,,,,,,,,,a,1,1.31117,space,0.40303,0,16,16,120,1,0_targ_1_dist_red/trial21.png,,,0,1,redHorizontal,a,49 ,24,Male,2021-03-02_12h56.19.296,exp11,2020.2.6,Win32,60,,,,,,,,,,,
,,,,,,,,,,,,,,p,1,0.778425,space,0.300655,0,17,17,27,1,3_dist_red/trial3.png,,,1,3,redHorizontal,p,49 ,24,Male,2021-03-02_12h56.19.296,exp11,2020.2.6,Win32,60,,,,,,,,,,,
,,,,,,,,,,,,,,p,1,0.68019,space,0.2446,0,18,18,75,1,15_dist_red/trial1.png,,,1,15,redHorizontal,p,49 ,24,Male,2021-03-02_12h56.19.296,exp11,2020.2.6,Win32,60,,,,,,,,,,,
,,,,,,,,,,,,,,a,1,0.91949,space,0.26941,0,19,19,161,1,0_targ_10_dist_red/trial12.png,,,0,10,redHorizontal,a,49 ,24,Male,2021-03-02_12h56.19.296,exp11,2020.2.6,Win32,60,,,,,,,,,,,
,,,,,,,,,,,,,,a,1,1.02886,space,0.25309,0,20,20,124,1,0_targ_1_dist_red/trial25.png,,,0,1,redHorizontal,a,49 ,24,Male,2021-03-02_12h56.19.296,exp11,2020.2.6,Win32,60,,,,,,,,,,,
,,,,,,,,,,,,,,a,1,0.79653,space,0.25485,0,21,21,197,1,0_targ_16_dist_red/trial23.png,,,0,16,redHorizontal,a,49 ,24,Male,2021-03-02_12h56.19.296,exp11,2020.2.6,Win32,60,,,,,,,,,,,
,,,,,,,,,,,,,,p,1,0.670745,space,0.237785,0,22,22,76,1,15_dist_red/trial2.png,,,1,15,redHorizontal,p,49 ,24,Male,2021-03-02_12h56.19.296,exp11,2020.2.6,Win32,60,,,,,,,,,,,
,,,,,,,,,,,,,,a,1,0.81266,space,0.251395,0,23,23,113,1,0_targ_1_dist_red/trial14.png,,,0,1,redHorizontal,a,49 ,24,Male,2021-03-02_12h56.19.296,exp11,2020.2.6,Win32,60,,,,,,,,,,,
,,,,,,,,,,,,,,p,1,0.68066,space,0.40948,0,24,24,56,1,9_dist_red/trial7.png,,,1,9,redHorizontal,p,49 ,24,Male,2021-03-02_12h56.19.296,exp11,2020.2.6,Win32,60,,,,,,,,,,,
,,,,,,,,,,,,,,a,1,0.79767,space,0.241415,0,25,25,180,1,0_targ_16_dist_red/trial6.png,,,0,16,redHorizontal,a,49 ,24,Male,2021-03-02_12h56.19.296,exp11,2020.2.6,Win32,60,,,,,,,,,,,
,,,,,,,,,,,,,,p,1,1.143975,space,0.237115,0,26,26,59,1,9_dist_red/trial10.png,,,1,9,redHorizontal,p,49 ,24,Male,2021-03-02_12h56.19.296,exp11,2020.2.6,Win32,60,,,,,,,,,,,
,,,,,,,,,,,,,,a,1,0.768935,space,0.205455,0,27,27,160,1,0_targ_10_dist_red/trial11.png,,,0,10,redHorizontal,a,49 ,24,Male,2021-03-02_12h56.19.296,exp11,2020.2.6,Win32,60,,,,,,,,,,,
,,,,,,,,,,,,,,p,1,0.81077,space,0.238715,0,28,28,81,1,15_dist_red/trial7.png,,,1,15,redHorizontal,p,49 ,24,Male,2021-03-02_12h56.19.296,exp11,2020.2.6,Win32,60,,,,,,,,,,,
,,,,,,,,,,,,,,p,1,1.89829,space,0.288275,0,29,29,67,1,9_dist_red/trial18.png,,,1,9,redHorizontal,p,49 ,24,Male,2021-03-02_12h56.19.296,exp11,2020.2.6,Win32,60,,,,,,,,,,,
,,,,,,,,,,,,,,p,1,0.539875,space,0.266525,0,30,30,62,1,9_dist_red/trial13.png,,,1,9,redHorizontal,p,49 ,24,Male,2021-03-02_12h56.19.296,exp11,2020.2.6,Win32,60,,,,,,,,,,,
,,,,,,,,,,,,,,a,1,0.72284,space,0.221125,0,31,31,184,1,0_targ_16_dist_red/trial10.png,,,0,16,redHorizontal,a,49 ,24,Male,2021-03-02_12h56.19.296,exp11,2020.2.6,Win32,60,,,,,,,,,,,
,,,,,,,,,,,,,,a,1,1.611305,space,0.24368,0,32,32,154,1,0_targ_10_dist_red/trial5.png,,,0,10,redHorizontal,a,49 ,24,Male,2021-03-02_12h56.19.296,exp11,2020.2.6,Win32,60,,,,,,,,,,,
,,,,,,,,,,,,,,a,1,0.447935,space,0.19156,0,33,33,100,1,0_targ_1_dist_red/trial1.png,,,0,1,redHorizontal,a,49 ,24,Male,2021-03-02_12h56.19.296,exp11,2020.2.6,Win32,60,,,,,,,,,,,
,,,,,,,,,,,,,,p,1,0.911015,space,0.19654,0,34,34,65,1,9_dist_red/trial16.png,,,1,9,redHorizontal,p,49 ,24,Male,2021-03-02_12h56.19.296,exp11,2020.2.6,Win32,60,,,,,,,,,,,
,,,,,,,,,,,,,,a,1,0.61536,space,0.337575,0,35,35,164,1,0_targ_10_dist_red/trial15.png,,,0,10,redHorizontal,a,49 ,24,Male,2021-03-02_12h56.19.296,exp11,2020.2.6,Win32,60,,,,,,,,,,,
,,,,,,,,,,,,,,p,1,0.88691,space,0.2157,0,36,36,13,1,0_dist_red/trial14.png,,,1,0,redHorizontal,p,49 ,24,Male,2021-03-02_12h56.19.296,exp11,2020.2.6,Win32,60,,,,,,,,,,,
,,,,,,,,,,,,,,p,1,1.16043,space,0.416745,0,37,37,89,1,15_dist_red/trial15.png,,,1,15,redHorizontal,p,49 ,24,Male,2021-03-02_12h56.19.296,exp11,2020.2.6,Win32,60,,,,,,,,,,,
,,,,,,,,,,,,,,a,1,0.68594,space,0.187965,0,38,38,172,1,0_targ_10_dist_red/trial23.png,,,0,10,redHorizontal,a,49 ,24,Male,2021-03-02_12h56.19.296,exp11,2020.2.6,Win32,60,,,,,,,,,,,
,,,,,,,,,,,,,,p,1,0.779735,space,0.241895,0,39,39,91,1,15_dist_red/trial17.png,,,1,15,redHorizontal,p,49 ,24,Male,2021-03-02_12h56.19.296,exp11,2020.2.6,Win32,60,,,,,,,,,,,
,,,,,,,,,,,,,,p,1,0.77128,space,0.17264,0,40,40,44,1,3_dist_red/trial20.png,,,1,3,redHorizontal,p,49 ,24,Male,2021-03-02_12h56.19.296,exp11,2020.2.6,Win32,60,,,,,,,,,,,
,,,,,,,,,,,,,,a,1,0.65999,space,0.27061,0,41,41,167,1,0_targ_10_dist_red/trial18.png,,,0,10,redHorizontal,a,49 ,24,Male,2021-03-02_12h56.19.296,exp11,2020.2.6,Win32,60,,,,,,,,,,,
,,,,,,,,,,,,,,p,1,1.14427,space,0.18465,0,42,42,50,1,9_dist_red/trial1.png,,,1,9,redHorizontal,p,49 ,24,Male,2021-03-02_12h56.19.296,exp11,2020.2.6,Win32,60,,,,,,,,,,,
,,,,,,,,,,,,,,a,1,0.72933,space,0.138915,0,43,43,193,1,0_targ_16_dist_red/trial19.png,,,0,16,redHorizontal,a,49 ,24,Male,2021-03-02_12h56.19.296,exp11,2020.2.6,Win32,60,,,,,,,,,,,
,,,,,,,,,,,,,,a,1,0.69437,space,0.17045,0,44,44,162,1,0_targ_10_dist_red/trial13.png,,,0,10,redHorizontal,a,49 ,24,Male,2021-03-02_12h56.19.296,exp11,2020.2.6,Win32,60,,,,,,,,,,,
,,,,,,,,,,,,,,a,1,0.6804,space,0.174375,0,45,45,178,1,0_targ_16_dist_red/trial4.png,,,0,16,redHorizontal,a,49 ,24,Male,2021-03-02_12h56.19.296,exp11,2020.2.6,Win32,60,,,,,,,,,,,
,,,,,,,,,,,,,,p,1,0.712585,space,0.11796,0,46,46,47,1,3_dist_red/trial23.png,,,1,3,redHorizontal,p,49 ,24,Male,2021-03-02_12h56.19.296,exp11,2020.2.6,Win32,60,,,,,,,,,,,
,,,,,,,,,,,,,,a,0,0.71383,space,0.6221,0,47,47,25,1,3_dist_red/trial1.png,,,1,3,redHorizontal,p,49 ,24,Male,2021-03-02_12h56.19.296,exp11,2020.2.6,Win32,60,,,,,,,,,,,
,,,,,,,,,,,,,,p,1,1.074525,space,0.795625,0,48,48,14,1,0_dist_red/trial15.png,,,1,0,redHorizontal,p,49 ,24,Male,2021-03-02_12h56.19.296,exp11,2020.2.6,Win32,60,,,,,,,,,,,
,,,,,,,,,,,,,,p,1,1.572125,space,0.181935,0,49,49,63,1,9_dist_red/trial14.png,,,1,9,redHorizontal,p,49 ,24,Male,2021-03-02_12h56.19.296,exp11,2020.2.6,Win32,60,,,,,,,,,,,
,,,,,,,,,,,,,,a,1,0.811415,space,0.3543,0,50,50,173,1,0_targ_10_dist_red/trial24.png,,,0,10,redHorizontal,a,49 ,24,Male,2021-03-02_12h56.19.296,exp11,2020.2.6,Win32,60,,,,,,,,,,,
,,,,,,,,,,,,,,a,1,1.001315,space,0.18424,0,51,51,134,1,0_targ_4_dist_red/trial10.png,,,0,4,redHorizontal,a,49 ,24,Male,2021-03-02_12h56.19.296,exp11,2020.2.6,Win32,60,,,,,,,,,,,
,,,,,,,,,,,,,,a,1,0.62805,space,0.21822,0,52,52,142,1,0_targ_4_dist_red/trial18.png,,,0,4,redHorizontal,a,49 ,24,Male,2021-03-02_12h56.19.296,exp11,2020.2.6,Win32,60,,,,,,,,,,,
,,,,,,,,,,,,,,p,1,0.590325,space,0.224295,0,53,53,22,1,0_dist_red/trial23.png,,,1,0,redHorizontal,p,49 ,24,Male,2021-03-02_12h56.19.296,exp11,2020.2.6,Win32,60,,,,,,,,,,,
,,,,,,,,,,,,,,a,1,0.906535,space,0.21644,0,54,54,114,1,0_targ_1_dist_red/trial15.png,,,0,1,redHorizontal,a,49 ,24,Male,2021-03-02_12h56.19.296,exp11,2020.2.6,Win32,60,,,,,,,,,,,
,,,,,,,,,,,,,,a,1,1.940815,space,0.23244,0,55,55,181,1,0_targ_16_dist_red/trial7.png,,,0,16,redHorizontal,a,49 ,24,Male,2021-03-02_12h56.19.296,exp11,2020.2.6,Win32,60,,,,,,,,,,,
,,,,,,,,,,,,,,a,1,0.59668,space,0.211955,0,56,56,130,1,0_targ_4_dist_red/trial6.png,,,0,4,redHorizontal,a,49 ,24,Male,2021-03-02_12h56.19.296,exp11,2020.2.6,Win32,60,,,,,,,,,,,
,,,,,,,,,,,,,,p,1,1.01517,space,0.185675,0,57,57,43,1,3_dist_red/trial19.png,,,1,3,redHorizontal,p,49 ,24,Male,2021-03-02_12h56.19.296,exp11,2020.2.6,Win32,60,,,,,,,,,,,
,,,,,,,,,,,,,,a,1,0.717025,space,0.42019,0,58,58,171,1,0_targ_10_dist_red/trial22.png,,,0,10,redHorizontal,a,49 ,24,Male,2021-03-02_12h56.19.296,exp11,2020.2.6,Win32,60,,,,,,,,,,,
,,,,,,,,,,,,,,p,1,0.75587,space,0.220815,0,59,59,54,1,9_dist_red/trial5.png,,,1,9,redHorizontal,p,49 ,24,Male,2021-03-02_12h56.19.296,exp11,2020.2.6,Win32,60,,,,,,,,,,,
,,,,,,,,,,,,,,a,1,1.39442,space,0.232975,0,60,60,157,1,0_targ_10_dist_red/trial8.png,,,0,10,redHorizontal,a,49 ,24,Male,2021-03-02_12h56.19.296,exp11,2020.2.6,Win32,60,,,,,,,,,,,
,,,,,,,,,,,,,,a,0,0.711605,space,0.124315,0,61,61,95,1,15_dist_red/trial21.png,,,1,15,redHorizontal,p,49 ,24,Male,2021-03-02_12h56.19.296,exp11,2020.2.6,Win32,60,,,,,,,,,,,
,,,,,,,,,,,,,,p,1,1.29094,space,0.20672,0,62,62,5,1,0_dist_red/trial6.png,,,1,0,redHorizontal,p,49 ,24,Male,2021-03-02_12h56.19.296,exp11,2020.2.6,Win32,60,,,,,,,,,,,
,,,,,,,,,,,,,,p,1,0.718665,space,0.211575,0,63,63,35,1,3_dist_red/trial11.png,,,1,3,redHorizontal,p,49 ,24,Male,2021-03-02_12h56.19.296,exp11,2020.2.6,Win32,60,,,,,,,,,,,
,,,,,,,,,,,,,,p,1,1.661895,space,0.25526,0,64,64,4,1,0_dist_red/trial5.png,,,1,0,redHorizontal,p,49 ,24,Male,2021-03-02_12h56.19.296,exp11,2020.2.6,Win32,60,,,,,,,,,,,
,,,,,,,,,,,,,,a,1,1.07003,space,0.203655,0,65,65,116,1,0_targ_1_dist_red/trial17.png,,,0,1,redHorizontal,a,49 ,24,Male,2021-03-02_12h56.19.296,exp11,2020.2.6,Win32,60,,,,,,,,,,,
,,,,,,,,,,,,,,a,1,1.22088,space,0.199525,0,66,66,169,1,0_targ_10_dist_red/trial20.png,,,0,10,redHorizontal,a,49 ,24,Male,2021-03-02_12h56.19.296,exp11,2020.2.6,Win32,60,,,,,,,,,,,
,,,,,,,,,,,,,,a,1,0.69003,space,0.17304,0,67,67,152,1,0_targ_10_dist_red/trial3.png,,,0,10,redHorizontal,a,49 ,24,Male,2021-03-02_12h56.19.296,exp11,2020.2.6,Win32,60,,,,,,,,,,,
,,,,,,,,,,,,,,p,1,0.790855,space,0.201355,0,68,68,39,1,3_dist_red/trial15.png,,,1,3,redHorizontal,p,49 ,24,Male,2021-03-02_12h56.19.296,exp11,2020.2.6,Win32,60,,,,,,,,,,,
,,,,,,,,,,,,,,p,1,0.884605,space,0.179155,0,69,69,69,1,9_dist_red/trial20.png,,,1,9,redHorizontal,p,49 ,24,Male,2021-03-02_12h56.19.296,exp11,2020.2.6,Win32,60,,,,,,,,,,,
,,,,,,,,,,,,,,a,0,0.6403,space,3.11414,0,70,70,57,1,9_dist_red/trial8.png,,,1,9,redHorizontal,p,49 ,24,Male,2021-03-02_12h56.19.296,exp11,2020.2.6,Win32,60,,,,,,,,,,,
,,,,,,,,,,,,,,a,1,1.540255,space,0.25302,0,71,71,103,1,0_targ_1_dist_red/trial4.png,,,0,1,redHorizontal,a,49 ,24,Male,2021-03-02_12h56.19.296,exp11,2020.2.6,Win32,60,,,,,,,,,,,
,,,,,,,,,,,,,,p,1,1.033,space,0.203735,0,72,72,84,1,15_dist_red/trial10.png,,,1,15,redHorizontal,p,49 ,24,Male,2021-03-02_12h56.19.296,exp11,2020.2.6,Win32,60,,,,,,,,,,,
,,,,,,,,,,,,,,a,1,1.07573,space,0.184625,0,73,73,119,1,0_targ_1_dist_red/trial20.png,,,0,1,redHorizontal,a,49 ,24,Male,2021-03-02_12h56.19.296,exp11,2020.2.6,Win32,60,,,,,,,,,,,
,,,,,,,,,,,,,,a,1,1.01933,space,0.20139,0,74,74,185,1,0_targ_16_dist_red/trial11.png,,,0,16,redHorizontal,a,49 ,24,Male,2021-03-02_12h56.19.296,exp11,2020.2.6,Win32,60,,,,,,,,,,,
,,,,,,,,,,,,,,a,1,0.768665,space,0.169155,0,75,75,166,1,0_targ_10_dist_red/trial17.png,,,0,10,redHorizontal,a,49 ,24,Male,2021-03-02_12h56.19.296,exp11,2020.2.6,Win32,60,,,,,,,,,,,
,,,,,,,,,,,,,,p,1,1.12704,space,0.22151,0,76,76,82,1,15_dist_red/trial8.png,,,1,15,redHorizontal,p,49 ,24,Male,2021-03-02_12h56.19.296,exp11,2020.2.6,Win32,60,,,,,,,,,,,
,,,,,,,,,,,,,,p,1,0.616825,space,0.1848,0,77,77,16,1,0_dist_red/trial17.png,,,1,0,redHorizontal,p,49 ,24,Male,2021-03-02_12h56.19.296,exp11,2020.2.6,Win32,60,,,,,,,,,,,
,,,,,,,,,,,,,,a,1,0.745865,space,0.158475,0,78,78,101,1,0_targ_1_dist_red/trial2.png,,,0,1,redHorizontal,a,49 ,24,Male,2021-03-02_12h56.19.296,exp11,2020.2.6,Win32,60,,,,,,,,,,,
,,,,,,,,,,,,,,a,0,0.74151,space,3.52279,0,79,79,2,1,0_dist_red/trial3.png,,,1,0,redHorizontal,p,49 ,24,Male,2021-03-02_12h56.19.296,exp11,2020.2.6,Win32,60,,,,,,,,,,,
,,,,,,,,,,,,,,p,1,0.648885,space,0.281285,0,80,80,8,1,0_dist_red/trial9.png,,,1,0,redHorizontal,p,49 ,24,Male,2021-03-02_12h56.19.296,exp11,2020.2.6,Win32,60,,,,,,,,,,,
,,,,,,,,,,,,,,p,1,0.840735,space,0.25806,0,81,81,1,1,0_dist_red/trial2.png,,,1,0,redHorizontal,p,49 ,24,Male,2021-03-02_12h56.19.296,exp11,2020.2.6,Win32,60,,,,,,,,,,,
,,,,,,,,,,,,,,a,1,0.87439,space,0.25117,0,82,82,182,1,0_targ_16_dist_red/trial8.png,,,0,16,redHorizontal,a,49 ,24,Male,2021-03-02_12h56.19.296,exp11,2020.2.6,Win32,60,,,,,,,,,,,
,,,,,,,,,,,,,,a,1,1.54314,space,0.367615,0,83,83,179,1,0_targ_16_dist_red/trial5.png,,,0,16,redHorizontal,a,49 ,24,Male,2021-03-02_12h56.19.296,exp11,2020.2.6,Win32,60,,,,,,,,,,,
,,,,,,,,,,,,,,p,1,0.69771,space,0.35099,0,84,84,17,1,0_dist_red/trial18.png,,,1,0,redHorizontal,p,49 ,24,Male,2021-03-02_12h56.19.296,exp11,2020.2.6,Win32,60,,,,,,,,,,,
,,,,,,,,,,,,,,a,1,0.876935,space,0.29189,0,85,85,198,1,0_targ_16_dist_red/trial24.png,,,0,16,redHorizontal,a,49 ,24,Male,2021-03-02_12h56.19.296,exp11,2020.2.6,Win32,60,,,,,,,,,,,
,,,,,,,,,,,,,,p,1,1.659135,space,0.271855,0,86,86,64,1,9_dist_red/trial15.png,,,1,9,redHorizontal,p,49 ,24,Male,2021-03-02_12h56.19.296,exp11,2020.2.6,Win32,60,,,,,,,,,,,
,,,,,,,,,,,,,,p,1,0.7545,space,0.23473,0,87,87,94,1,15_dist_red/trial20.png,,,1,15,redHorizontal,p,49 ,24,Male,2021-03-02_12h56.19.296,exp11,2020.2.6,Win32,60,,,,,,,,,,,
,,,,,,,,,,,,,,p,1,0.84304,space,0.25152,0,88,88,88,1,15_dist_red/trial14.png,,,1,15,redHorizontal,p,49 ,24,Male,2021-03-02_12h56.19.296,exp11,2020.2.6,Win32,60,,,,,,,,,,,
,,,,,,,,,,,,,,a,1,1.177165,space,0.28455,0,89,89,195,1,0_targ_16_dist_red/trial21.png,,,0,16,redHorizontal,a,49 ,24,Male,2021-03-02_12h56.19.296,exp11,2020.2.6,Win32,60,,,,,,,,,,,
,,,,,,,,,,,,,,p,0,0.78601,space,1.381735,0,90,90,106,1,0_targ_1_dist_red/trial7.png,,,0,1,redHorizontal,a,49 ,24,Male,2021-03-02_12h56.19.296,exp11,2020.2.6,Win32,60,,,,,,,,,,,
,,,,,,,,,,,,,,p,1,1.15353,space,0.24991,0,91,91,33,1,3_dist_red/trial9.png,,,1,3,redHorizontal,p,49 ,24,Male,2021-03-02_12h56.19.296,exp11,2020.2.6,Win32,60,,,,,,,,,,,
,,,,,,,,,,,,,,a,1,0.70422,space,0.331905,0,92,92,145,1,0_targ_4_dist_red/trial21.png,,,0,4,redHorizontal,a,49 ,24,Male,2021-03-02_12h56.19.296,exp11,2020.2.6,Win32,60,,,,,,,,,,,
,,,,,,,,,,,,,,a,1,0.927885,space,0.20105,0,93,93,118,1,0_targ_1_dist_red/trial19.png,,,0,1,redHorizontal,a,49 ,24,Male,2021-03-02_12h56.19.296,exp11,2020.2.6,Win32,60,,,,,,,,,,,
,,,,,,,,,,,,,,p,1,0.62908,space,0.28616,0,94,94,21,1,0_dist_red/trial22.png,,,1,0,redHorizontal,p,49 ,24,Male,2021-03-02_12h56.19.296,exp11,2020.2.6,Win32,60,,,,,,,,,,,
,,,,,,,,,,,,,,a,1,1.287045,space,0.17543,0,95,95,187,1,0_targ_16_dist_red/trial13.png,,,0,16,redHorizontal,a,49 ,24,Male,2021-03-02_12h56.19.296,exp11,2020.2.6,Win32,60,,,,,,,,,,,
,,,,,,,,,,,,,,a,1,0.6649,space,0.20713,0,96,96,125,1,0_targ_4_dist_red/trial1.png,,,0,4,redHorizontal,a,49 ,24,Male,2021-03-02_12h56.19.296,exp11,2020.2.6,Win32,60,,,,,,,,,,,
,,,,,,,,,,,,,,a,1,0.629255,space,0.20465,0,97,97,127,1,0_targ_4_dist_red/trial3.png,,,0,4,redHorizontal,a,49 ,24,Male,2021-03-02_12h56.19.296,exp11,2020.2.6,Win32,60,,,,,,,,,,,
,,,,,,,,,,,,,,a,1,0.733095,space,0.193475,0,98,98,121,1,0_targ_1_dist_red/trial22.png,,,0,1,redHorizontal,a,49 ,24,Male,2021-03-02_12h56.19.296,exp11,2020.2.6,Win32,60,,,,,,,,,,,
,,,,,,,,,,,,,,a,0,0.584975,space,0.437975,0,99,99,70,1,9_dist_red/trial21.png,,,1,9,redHorizontal,p,49 ,24,Male,2021-03-02_12h56.19.296,exp11,2020.2.6,Win32,60,,,,,,,,,,,
,,,,,,,,,,,,,,a,1,1.155465,space,0.21744,0,100,100,110,1,0_targ_1_dist_red/trial11.png,,,0,1,redHorizontal,a,49 ,24,Male,2021-03-02_12h56.19.296,exp11,2020.2.6,Win32,60,,,,,,,,,,,
,,,,,,,,,,,,,,a,1,1.14476,space,0.250885,0,101,101,117,1,0_targ_1_dist_red/trial18.png,,,0,1,redHorizontal,a,49 ,24,Male,2021-03-02_12h56.19.296,exp11,2020.2.6,Win32,60,,,,,,,,,,,
,,,,,,,,,,,,,,a,1,0.5698,space,0.24703,0,102,102,123,1,0_targ_1_dist_red/trial24.png,,,0,1,redHorizontal,a,49 ,24,Male,2021-03-02_12h56.19.296,exp11,2020.2.6,Win32,60,,,,,,,,,,,
,,,,,,,,,,,,,,p,1,1.210925,space,0.1848,0,103,103,93,1,15_dist_red/trial19.png,,,1,15,redHorizontal,p,49 ,24,Male,2021-03-02_12h56.19.296,exp11,2020.2.6,Win32,60,,,,,,,,,,,
,,,,,,,,,,,,,,a,1,0.69055,space,0.18593,0,104,104,175,1,0_targ_16_dist_red/trial1.png,,,0,16,redHorizontal,a,49 ,24,Male,2021-03-02_12h56.19.296,exp11,2020.2.6,Win32,60,,,,,,,,,,,
,,,,,,,,,,,,,,a,1,0.553405,space,0.19269,0,105,105,107,1,0_targ_1_dist_red/trial8.png,,,0,1,redHorizontal,a,49 ,24,Male,2021-03-02_12h56.19.296,exp11,2020.2.6,Win32,60,,,,,,,,,,,
,,,,,,,,,,,,,,a,1,0.541475,space,0.1991,0,106,106,122,1,0_targ_1_dist_red/trial23.png,,,0,1,redHorizontal,a,49 ,24,Male,2021-03-02_12h56.19.296,exp11,2020.2.6,Win32,60,,,,,,,,,,,
,,,,,,,,,,,,,,p,1,0.611505,space,0.2051,0,107,107,24,1,0_dist_red/trial25.png,,,1,0,redHorizontal,p,49 ,24,Male,2021-03-02_12h56.19.296,exp11,2020.2.6,Win32,60,,,,,,,,,,,
,,,,,,,,,,,,,,a,1,0.647925,space,0.18474,0,108,108,149,1,0_targ_4_dist_red/trial25.png,,,0,4,redHorizontal,a,49 ,24,Male,2021-03-02_12h56.19.296,exp11,2020.2.6,Win32,60,,,,,,,,,,,
,,,,,,,,,,,,,,a,1,0.73307,space,0.17263,0,109,109,158,1,0_targ_10_dist_red/trial9.png,,,0,10,redHorizontal,a,49 ,24,Male,2021-03-02_12h56.19.296,exp11,2020.2.6,Win32,60,,,,,,,,,,,
,,,,,,,,,,,,,,a,1,0.6948,space,0.170975,0,110,110,190,1,0_targ_16_dist_red/trial16.png,,,0,16,redHorizontal,a,49 ,24,Male,2021-03-02_12h56.19.296,exp11,2020.2.6,Win32,60,,,,,,,,,,,
,,,,,,,,,,,,,,p,1,0.54381,space,0.203765,0,111,111,73,1,9_dist_red/trial24.png,,,1,9,redHorizontal,p,49 ,24,Male,2021-03-02_12h56.19.296,exp11,2020.2.6,Win32,60,,,,,,,,,,,
,,,,,,,,,,,,,,a,1,0.890575,space,0.169555,0,112,112,165,1,0_targ_10_dist_red/trial16.png,,,0,10,redHorizontal,a,49 ,24,Male,2021-03-02_12h56.19.296,exp11,2020.2.6,Win32,60,,,,,,,,,,,
,,,,,,,,,,,,,,p,1,0.5813,space,0.233305,0,113,113,77,1,15_dist_red/trial3.png,,,1,15,redHorizontal,p,49 ,24,Male,2021-03-02_12h56.19.296,exp11,2020.2.6,Win32,60,,,,,,,,,,,
,,,,,,,,,,,,,,a,1,1.15706,space,0.1872,0,114,114,131,1,0_targ_4_dist_red/trial7.png,,,0,4,redHorizontal,a,49 ,24,Male,2021-03-02_12h56.19.296,exp11,2020.2.6,Win32,60,,,,,,,,,,,
,,,,,,,,,,,,,,p,1,0.64058,space,0.20395,0,115,115,30,1,3_dist_red/trial6.png,,,1,3,redHorizontal,p,49 ,24,Male,2021-03-02_12h56.19.296,exp11,2020.2.6,Win32,60,,,,,,,,,,,
,,,,,,,,,,,,,,a,1,0.81366,space,0.15574,0,116,116,146,1,0_targ_4_dist_red/trial22.png,,,0,4,redHorizontal,a,49 ,24,Male,2021-03-02_12h56.19.296,exp11,2020.2.6,Win32,60,,,,,,,,,,,
,,,,,,,,,,,,,,a,1,0.694695,space,0.145755,0,117,117,183,1,0_targ_16_dist_red/trial9.png,,,0,16,redHorizontal,a,49 ,24,Male,2021-03-02_12h56.19.296,exp11,2020.2.6,Win32,60,,,,,,,,,,,
,,,,,,,,,,,,,,a,1,0.64509,space,0.154205,0,118,118,170,1,0_targ_10_dist_red/trial21.png,,,0,10,redHorizontal,a,49 ,24,Male,2021-03-02_12h56.19.296,exp11,2020.2.6,Win32,60,,,,,,,,,,,
,,,,,,,,,,,,,,a,1,0.65611,space,0.155005,0,119,119,141,1,0_targ_4_dist_red/trial17.png,,,0,4,redHorizontal,a,49 ,24,Male,2021-03-02_12h56.19.296,exp11,2020.2.6,Win32,60,,,,,,,,,,,
,,,,,,,,,,,,,,a,1,0.80496,space,0.173255,0,120,120,196,1,0_targ_16_dist_red/trial22.png,,,0,16,redHorizontal,a,49 ,24,Male,2021-03-02_12h56.19.296,exp11,2020.2.6,Win32,60,,,,,,,,,,,
,,,,,,,,,,,,,,a,1,0.54507,space,0.186845,0,121,121,126,1,0_targ_4_dist_red/trial2.png,,,0,4,redHorizontal,a,49 ,24,Male,2021-03-02_12h56.19.296,exp11,2020.2.6,Win32,60,,,,,,,,,,,
,,,,,,,,,,,,,,p,1,0.62617,space,0.18874,0,122,122,46,1,3_dist_red/trial22.png,,,1,3,redHorizontal,p,49 ,24,Male,2021-03-02_12h56.19.296,exp11,2020.2.6,Win32,60,,,,,,,,,,,
,,,,,,,,,,,,,,a,1,0.562115,space,0.13585,0,123,123,174,1,0_targ_10_dist_red/trial25.png,,,0,10,redHorizontal,a,49 ,24,Male,2021-03-02_12h56.19.296,exp11,2020.2.6,Win32,60,,,,,,,,,,,
,,,,,,,,,,,,,,p,1,0.59459,space,0.13434,0,124,124,10,1,0_dist_red/trial11.png,,,1,0,redHorizontal,p,49 ,24,Male,2021-03-02_12h56.19.296,exp11,2020.2.6,Win32,60,,,,,,,,,,,
,,,,,,,,,,,,,,a,0,0.61451,space,0.972945,0,125,125,40,1,3_dist_red/trial16.png,,,1,3,redHorizontal,p,49 ,24,Male,2021-03-02_12h56.19.296,exp11,2020.2.6,Win32,60,,,,,,,,,,,
,,,,,,,,,,,,,,p,1,1.643955,space,0.195315,0,126,126,45,1,3_dist_red/trial21.png,,,1,3,redHorizontal,p,49 ,24,Male,2021-03-02_12h56.19.296,exp11,2020.2.6,Win32,60,,,,,,,,,,,
,,,,,,,,,,,,,,p,1,0.795075,space,0.18547,0,127,127,34,1,3_dist_red/trial10.png,,,1,3,redHorizontal,p,49 ,24,Male,2021-03-02_12h56.19.296,exp11,2020.2.6,Win32,60,,,,,,,,,,,
,,,,,,,,,,,,,,p,1,0.941865,space,0.138565,0,128,128,52,1,9_dist_red/trial3.png,,,1,9,redHorizontal,p,49 ,24,Male,2021-03-02_12h56.19.296,exp11,2020.2.6,Win32,60,,,,,,,,,,,
,,,,,,,,,,,,,,p,1,0.78415,space,0.164865,0,129,129,48,1,3_dist_red/trial24.png,,,1,3,redHorizontal,p,49 ,24,Male,2021-03-02_12h56.19.296,exp11,2020.2.6,Win32,60,,,,,,,,,,,
,,,,,,,,,,,,,,p,1,1.733105,space,0.106215,0,130,130,61,1,9_dist_red/trial12.png,,,1,9,redHorizontal,p,49 ,24,Male,2021-03-02_12h56.19.296,exp11,2020.2.6,Win32,60,,,,,,,,,,,
,,,,,,,,,,,,,,p,1,0.78455,space,0.08421,0,131,131,97,1,15_dist_red/trial23.png,,,1,15,redHorizontal,p,49 ,24,Male,2021-03-02_12h56.19.296,exp11,2020.2.6,Win32,60,,,,,,,,,,,
,,,,,,,,,,,,,,p,1,0.66059,space,0.119435,0,132,132,53,1,9_dist_red/trial4.png,,,1,9,redHorizontal,p,49 ,24,Male,2021-03-02_12h56.19.296,exp11,2020.2.6,Win32,60,,,,,,,,,,,
,,,,,,,,,,,,,,a,1,0.77286,space,0.15658,0,133,133,108,1,0_targ_1_dist_red/trial9.png,,,0,1,redHorizontal,a,49 ,24,Male,2021-03-02_12h56.19.296,exp11,2020.2.6,Win32,60,,,,,,,,,,,
,,,,,,,,,,,,,,a,1,0.583875,space,0.139415,0,134,134,104,1,0_targ_1_dist_red/trial5.png,,,0,1,redHorizontal,a,49 ,24,Male,2021-03-02_12h56.19.296,exp11,2020.2.6,Win32,60,,,,,,,,,,,
,,,,,,,,,,,,,,p,1,0.72927,space,0.140535,0,135,135,68,1,9_dist_red/trial19.png,,,1,9,redHorizontal,p,49 ,24,Male,2021-03-02_12h56.19.296,exp11,2020.2.6,Win32,60,,,,,,,,,,,
,,,,,,,,,,,,,,p,1,0.910445,space,0.1162,0,136,136,20,1,0_dist_red/trial21.png,,,1,0,redHorizontal,p,49 ,24,Male,2021-03-02_12h56.19.296,exp11,2020.2.6,Win32,60,,,,,,,,,,,
,,,,,,,,,,,,,,a,1,1.155765,space,0.150385,0,137,137,129,1,0_targ_4_dist_red/trial5.png,,,0,4,redHorizontal,a,49 ,24,Male,2021-03-02_12h56.19.296,exp11,2020.2.6,Win32,60,,,,,,,,,,,
,,,,,,,,,,,,,,p,1,1.3959,space,0.17119,0,138,138,55,1,9_dist_red/trial6.png,,,1,9,redHorizontal,p,49 ,24,Male,2021-03-02_12h56.19.296,exp11,2020.2.6,Win32,60,,,,,,,,,,,
,,,,,,,,,,,,,,p,1,1.255225,space,0.103775,0,139,139,38,1,3_dist_red/trial14.png,,,1,3,redHorizontal,p,49 ,24,Male,2021-03-02_12h56.19.296,exp11,2020.2.6,Win32,60,,,,,,,,,,,
,,,,,,,,,,,,,,p,1,0.6865,space,0.088585,0,140,140,51,1,9_dist_red/trial2.png,,,1,9,redHorizontal,p,49 ,24,Male,2021-03-02_12h56.19.296,exp11,2020.2.6,Win32,60,,,,,,,,,,,
,,,,,,,,,,,,,,p,1,0.69888,space,0.105825,0,141,141,7,1,0_dist_red/trial8.png,,,1,0,redHorizontal,p,49 ,24,Male,2021-03-02_12h56.19.296,exp11,2020.2.6,Win32,60,,,,,,,,,,,
,,,,,,,,,,,,,,a,1,0.89753,space,0.137535,0,142,142,144,1,0_targ_4_dist_red/trial20.png,,,0,4,redHorizontal,a,49 ,24,Male,2021-03-02_12h56.19.296,exp11,2020.2.6,Win32,60,,,,,,,,,,,
,,,,,,,,,,,,,,p,1,0.642665,space,0.13911,0,143,143,29,1,3_dist_red/trial5.png,,,1,3,redHorizontal,p,49 ,24,Male,2021-03-02_12h56.19.296,exp11,2020.2.6,Win32,60,,,,,,,,,,,
,,,,,,,,,,,,,,a,1,1.28778,space,0.133465,0,144,144,189,1,0_targ_16_dist_red/trial15.png,,,0,16,redHorizontal,a,49 ,24,Male,2021-03-02_12h56.19.296,exp11,2020.2.6,Win32,60,,,,,,,,,,,
,,,,,,,,,,,,,,a,1,1.02618,space,0.08907,0,145,145,156,1,0_targ_10_dist_red/trial7.png,,,0,10,redHorizontal,a,49 ,24,Male,2021-03-02_12h56.19.296,exp11,2020.2.6,Win32,60,,,,,,,,,,,
,,,,,,,,,,,,,,p,1,0.52724,space,0.088065,0,146,146,83,1,15_dist_red/trial9.png,,,1,15,redHorizontal,p,49 ,24,Male,2021-03-02_12h56.19.296,exp11,2020.2.6,Win32,60,,,,,,,,,,,
,,,,,,,,,,,,,,p,1,0.780145,space,0.10347,0,147,147,11,1,0_dist_red/trial12.png,,,1,0,redHorizontal,p,49 ,24,Male,2021-03-02_12h56.19.296,exp11,2020.2.6,Win32,60,,,,,,,,,,,
,,,,,,,,,,,,,,p,1,0.594605,space,0.070855,0,148,148,19,1,0_dist_red/trial20.png,,,1,0,redHorizontal,p,49 ,24,Male,2021-03-02_12h56.19.296,exp11,2020.2.6,Win32,60,,,,,,,,,,,
,,,,,,,,,,,,,,a,0,0.800045,space,0.259495,0,149,149,87,1,15_dist_red/trial13.png,,,1,15,redHorizontal,p,49 ,24,Male,2021-03-02_12h56.19.296,exp11,2020.2.6,Win32,60,,,,,,,,,,,
,,,,,,,,,,,,,,p,1,1.458875,space,0.114055,0,150,150,80,1,15_dist_red/trial6.png,,,1,15,redHorizontal,p,49 ,24,Male,2021-03-02_12h56.19.296,exp11,2020.2.6,Win32,60,,,,,,,,,,,
,,,,,,,,,,,,,,a,1,1.08404,space,0.164355,0,151,151,155,1,0_targ_10_dist_red/trial6.png,,,0,10,redHorizontal,a,49 ,24,Male,2021-03-02_12h56.19.296,exp11,2020.2.6,Win32,60,,,,,,,,,,,
,,,,,,,,,,,,,,p,1,0.56456,space,0.1542,0,152,152,92,1,15_dist_red/trial18.png,,,1,15,redHorizontal,p,49 ,24,Male,2021-03-02_12h56.19.296,exp11,2020.2.6,Win32,60,,,,,,,,,,,
,,,,,,,,,,,,,,p,0,0.661,space,0.83948,0,153,153,132,1,0_targ_4_dist_red/trial8.png,,,0,4,redHorizontal,a,49 ,24,Male,2021-03-02_12h56.19.296,exp11,2020.2.6,Win32,60,,,,,,,,,,,
,,,,,,,,,,,,,,p,1,0.846135,space,0.208805,0,154,154,98,1,15_dist_red/trial24.png,,,1,15,redHorizontal,p,49 ,24,Male,2021-03-02_12h56.19.296,exp11,2020.2.6,Win32,60,,,,,,,,,,,
,,,,,,,,,,,,,,a,1,1.443585,space,0.207105,0,155,155,137,1,0_targ_4_dist_red/trial13.png,,,0,4,redHorizontal,a,49 ,24,Male,2021-03-02_12h56.19.296,exp11,2020.2.6,Win32,60,,,,,,,,,,,
,,,,,,,,,,,,,,a,1,0.892965,space,0.21841,0,156,156,186,1,0_targ_16_dist_red/trial12.png,,,0,16,redHorizontal,a,49 ,24,Male,2021-03-02_12h56.19.296,exp11,2020.2.6,Win32,60,,,,,,,,,,,
,,,,,,,,,,,,,,p,1,1.03937,space,0.1676,0,157,157,3,1,0_dist_red/trial4.png,,,1,0,redHorizontal,p,49 ,24,Male,2021-03-02_12h56.19.296,exp11,2020.2.6,Win32,60,,,,,,,,,,,
,,,,,,,,,,,,,,p,1,1.367775,space,0.144555,0,158,158,6,1,0_dist_red/trial7.png,,,1,0,redHorizontal,p,49 ,24,Male,2021-03-02_12h56.19.296,exp11,2020.2.6,Win32,60,,,,,,,,,,,
,,,,,,,,,,,,,,a,1,0.690635,space,0.17004,0,159,159,135,1,0_targ_4_dist_red/trial11.png,,,0,4,redHorizontal,a,49 ,24,Male,2021-03-02_12h56.19.296,exp11,2020.2.6,Win32,60,,,,,,,,,,,
,,,,,,,,,,,,,,a,1,1.325275,space,0.171615,0,160,160,133,1,0_targ_4_dist_red/trial9.png,,,0,4,redHorizontal,a,49 ,24,Male,2021-03-02_12h56.19.296,exp11,2020.2.6,Win32,60,,,,,,,,,,,
,,,,,,,,,,,,,,a,1,1.40458,space,0.2209,0,161,161,163,1,0_targ_10_dist_red/trial14.png,,,0,10,redHorizontal,a,49 ,24,Male,2021-03-02_12h56.19.296,exp11,2020.2.6,Win32,60,,,,,,,,,,,
,,,,,,,,,,,,,,p,1,0.692095,space,0.40279,0,162,162,28,1,3_dist_red/trial4.png,,,1,3,redHorizontal,p,49 ,24,Male,2021-03-02_12h56.19.296,exp11,2020.2.6,Win32,60,,,,,,,,,,,
,,,,,,,,,,,,,,a,1,1.302745,space,0.205535,0,163,163,153,1,0_targ_10_dist_red/trial4.png,,,0,10,redHorizontal,a,49 ,24,Male,2021-03-02_12h56.19.296,exp11,2020.2.6,Win32,60,,,,,,,,,,,
,,,,,,,,,,,,,,p,1,0.931825,space,0.23614,0,164,164,72,1,9_dist_red/trial23.png,,,1,9,redHorizontal,p,49 ,24,Male,2021-03-02_12h56.19.296,exp11,2020.2.6,Win32,60,,,,,,,,,,,
,,,,,,,,,,,,,,a,1,0.92354,space,0.357845,0,165,165,159,1,0_targ_10_dist_red/trial10.png,,,0,10,redHorizontal,a,49 ,24,Male,2021-03-02_12h56.19.296,exp11,2020.2.6,Win32,60,,,,,,,,,,,
,,,,,,,,,,,,,,p,1,0.781635,space,0.381945,0,166,166,78,1,15_dist_red/trial4.png,,,1,15,redHorizontal,p,49 ,24,Male,2021-03-02_12h56.19.296,exp11,2020.2.6,Win32,60,,,,,,,,,,,
,,,,,,,,,,,,,,p,1,1.16109,space,0.209635,0,167,167,79,1,15_dist_red/trial5.png,,,1,15,redHorizontal,p,49 ,24,Male,2021-03-02_12h56.19.296,exp11,2020.2.6,Win32,60,,,,,,,,,,,
,,,,,,,,,,,,,,a,1,0.62561,space,0.247625,0,168,168,168,1,0_targ_10_dist_red/trial19.png,,,0,10,redHorizontal,a,49 ,24,Male,2021-03-02_12h56.19.296,exp11,2020.2.6,Win32,60,,,,,,,,,,,
,,,,,,,,,,,,,,p,1,0.692655,space,0.266395,0,169,169,0,1,0_dist_red/trial1.png,,,1,0,redHorizontal,p,49 ,24,Male,2021-03-02_12h56.19.296,exp11,2020.2.6,Win32,60,,,,,,,,,,,
,,,,,,,,,,,,,,a,0,0.95797,space,0.17701,0,170,170,41,1,3_dist_red/trial17.png,,,1,3,redHorizontal,p,49 ,24,Male,2021-03-02_12h56.19.296,exp11,2020.2.6,Win32,60,,,,,,,,,,,
,,,,,,,,,,,,,,a,1,0.958735,space,0.20735,0,171,171,112,1,0_targ_1_dist_red/trial13.png,,,0,1,redHorizontal,a,49 ,24,Male,2021-03-02_12h56.19.296,exp11,2020.2.6,Win32,60,,,,,,,,,,,
,,,,,,,,,,,,,,p,1,0.567685,space,0.20806,0,172,172,32,1,3_dist_red/trial8.png,,,1,3,redHorizontal,p,49 ,24,Male,2021-03-02_12h56.19.296,exp11,2020.2.6,Win32,60,,,,,,,,,,,
,,,,,,,,,,,,,,p,1,1.08016,space,0.13815,0,173,173,9,1,0_dist_red/trial10.png,,,1,0,redHorizontal,p,49 ,24,Male,2021-03-02_12h56.19.296,exp11,2020.2.6,Win32,60,,,,,,,,,,,
,,,,,,,,,,,,,,a,1,0.927375,space,0.266325,0,174,174,188,1,0_targ_16_dist_red/trial14.png,,,0,16,redHorizontal,a,49 ,24,Male,2021-03-02_12h56.19.296,exp11,2020.2.6,Win32,60,,,,,,,,,,,
,,,,,,,,,,,,,,p,1,0.792245,space,0.41949,0,175,175,86,1,15_dist_red/trial12.png,,,1,15,redHorizontal,p,49 ,24,Male,2021-03-02_12h56.19.296,exp11,2020.2.6,Win32,60,,,,,,,,,,,
,,,,,,,,,,,,,,a,1,0.830235,space,0.2875,0,176,176,136,1,0_targ_4_dist_red/trial12.png,,,0,4,redHorizontal,a,49 ,24,Male,2021-03-02_12h56.19.296,exp11,2020.2.6,Win32,60,,,,,,,,,,,
,,,,,,,,,,,,,,a,1,1.163475,space,0.1877,0,177,177,148,1,0_targ_4_dist_red/trial24.png,,,0,4,redHorizontal,a,49 ,24,Male,2021-03-02_12h56.19.296,exp11,2020.2.6,Win32,60,,,,,,,,,,,
,,,,,,,,,,,,,,a,1,0.73842,space,0.204015,0,178,178,194,1,0_targ_16_dist_red/trial20.png,,,0,16,redHorizontal,a,49 ,24,Male,2021-03-02_12h56.19.296,exp11,2020.2.6,Win32,60,,,,,,,,,,,
,,,,,,,,,,,,,,p,1,0.659225,space,0.189575,0,179,179,26,1,3_dist_red/trial2.png,,,1,3,redHorizontal,p,49 ,24,Male,2021-03-02_12h56.19.296,exp11,2020.2.6,Win32,60,,,,,,,,,,,
,,,,,,,,,,,,,,a,1,0.839365,space,0.236255,0,180,180,177,1,0_targ_16_dist_red/trial3.png,,,0,16,redHorizontal,a,49 ,24,Male,2021-03-02_12h56.19.296,exp11,2020.2.6,Win32,60,,,,,,,,,,,
,,,,,,,,,,,,,,p,1,0.73466,space,0.227805,0,181,181,18,1,0_dist_red/trial19.png,,,1,0,redHorizontal,p,49 ,24,Male,2021-03-02_12h56.19.296,exp11,2020.2.6,Win32,60,,,,,,,,,,,
,,,,,,,,,,,,,,p,1,0.8969,space,0.155495,0,182,182,96,1,15_dist_red/trial22.png,,,1,15,redHorizontal,p,49 ,24,Male,2021-03-02_12h56.19.296,exp11,2020.2.6,Win32,60,,,,,,,,,,,
,,,,,,,,,,,,,,a,1,0.786855,space,0.171275,0,183,183,111,1,0_targ_1_dist_red/trial12.png,,,0,1,redHorizontal,a,49 ,24,Male,2021-03-02_12h56.19.296,exp11,2020.2.6,Win32,60,,,,,,,,,,,
,,,,,,,,,,,,,,p,1,0.59142,space,0.18576,0,184,184,36,1,3_dist_red/trial12.png,,,1,3,redHorizontal,p,49 ,24,Male,2021-03-02_12h56.19.296,exp11,2020.2.6,Win32,60,,,,,,,,,,,
,,,,,,,,,,,,,,a,1,0.89607,space,0.237295,0,185,185,143,1,0_targ_4_dist_red/trial19.png,,,0,4,redHorizontal,a,49 ,24,Male,2021-03-02_12h56.19.296,exp11,2020.2.6,Win32,60,,,,,,,,,,,
,,,,,,,,,,,,,,p,1,0.579675,space,0.233325,0,186,186,12,1,0_dist_red/trial13.png,,,1,0,redHorizontal,p,49 ,24,Male,2021-03-02_12h56.19.296,exp11,2020.2.6,Win32,60,,,,,,,,,,,
,,,,,,,,,,,,,,p,1,0.652685,space,0.17124,0,187,187,49,1,3_dist_red/trial25.png,,,1,3,redHorizontal,p,49 ,24,Male,2021-03-02_12h56.19.296,exp11,2020.2.6,Win32,60,,,,,,,,,,,
,,,,,,,,,,,,,,a,1,0.591295,space,0.21788,0,188,188,147,1,0_targ_4_dist_red/trial23.png,,,0,4,redHorizontal,a,49 ,24,Male,2021-03-02_12h56.19.296,exp11,2020.2.6,Win32,60,,,,,,,,,,,
,,,,,,,,,,,,,,p,1,1.04002,space,0.19187,0,189,189,90,1,15_dist_red/trial16.png,,,1,15,redHorizontal,p,49 ,24,Male,2021-03-02_12h56.19.296,exp11,2020.2.6,Win32,60,,,,,,,,,,,
,,,,,,,,,,,,,,a,1,0.81232,space,0.21783,0,190,190,105,1,0_targ_1_dist_red/trial6.png,,,0,1,redHorizontal,a,49 ,24,Male,2021-03-02_12h56.19.296,exp11,2020.2.6,Win32,60,,,,,,,,,,,
,,,,,,,,,,,,,,a,1,0.74471,space,0.198625,0,191,191,140,1,0_targ_4_dist_red/trial6.png,,,0,4,redHorizontal,a,49 ,24,Male,2021-03-02_12h56.19.296,exp11,2020.2.6,Win32,60,,,,,,,,,,,
,,,,,,,,,,,,,,a,1,0.57477,space,0.18576,0,192,192,139,1,0_targ_4_dist_red/trial15.png,,,0,4,redHorizontal,a,49 ,24,Male,2021-03-02_12h56.19.296,exp11,2020.2.6,Win32,60,,,,,,,,,,,
,,,,,,,,,,,,,,a,1,0.488935,space,0.20027,0,193,193,115,1,0_targ_1_dist_red/trial6.png,,,0,1,redHorizontal,a,49 ,24,Male,2021-03-02_12h56.19.296,exp11,2020.2.6,Win32,60,,,,,,,,,,,
,,,,,,,,,,,,,,a,1,0.665605,space,0.215715,0,194,194,138,1,0_targ_4_dist_red/trial14.png,,,0,4,redHorizontal,a,49 ,24,Male,2021-03-02_12h56.19.296,exp11,2020.2.6,Win32,60,,,,,,,,,,,
,,,,,,,,,,,,,,a,1,0.643755,space,0.186115,0,195,195,176,1,0_targ_16_dist_red/trial2.png,,,0,16,redHorizontal,a,49 ,24,Male,2021-03-02_12h56.19.296,exp11,2020.2.6,Win32,60,,,,,,,,,,,
,,,,,,,,,,,,,,p,1,0.69026,space,0.338275,0,196,196,74,1,9_dist_red/trial25.png,,,1,9,redHorizontal,p,49 ,24,Male,2021-03-02_12h56.19.296,exp11,2020.2.6,Win32,60,,,,,,,,,,,
,,,,,,,,,,,,,,a,0,0.725945,space,0.18211,0,197,197,60,1,9_dist_red/trial11.png,,,1,9,redHorizontal,p,49 ,24,Male,2021-03-02_12h56.19.296,exp11,2020.2.6,Win32,60,,,,,,,,,,,
,,,,,,,,,,,,,,p,1,0.657115,space,0.140735,0,198,198,42,1,3_dist_red/trial18.png,,,1,3,redHorizontal,p,49 ,24,Male,2021-03-02_12h56.19.296,exp11,2020.2.6,Win32,60,,,,,,,,,,,
,,,,,,,,,,,,,,p,1,0.75797,space,0.168995,0,199,199,15,1,0_dist_red/trial16.png,,,1,0,redHorizontal,p,49 ,24,Male,2021-03-02_12h56.19.296,exp11,2020.2.6,Win32,60,,,,,,,,,,,
,,,,,,,,,,,,,,,,,,,,,,,,,,,,,,,49 ,24,Male,2021-03-02_12h56.19.296,exp11,2020.2.6,Win32,60,0,0,0,1,1,conRed.xlsx,red horizontal,Look for red horizontal bar (target) and indicate if it is present or absent in the array. If red horizontal target is present press 'p' and if absent press 'a'. Press SPACE to start.,,,
,,,,,,,,,,space,35.992245,space,31.879995,p,1,1.581415,space,0.37343,0,0,0,66,1,9_dist_green/trial17.png,,,1,9,greenverival,p,49 ,24,Male,2021-03-02_12h56.19.296,exp11,2020.2.6,Win32,60,,,,,,,,,,,
,,,,,,,,,,,,,,a,0,1.151255,space,0.52063,0,1,1,54,1,9_dist_green/trial5.png,,,1,9,greenverival,p,49 ,24,Male,2021-03-02_12h56.19.296,exp11,2020.2.6,Win32,60,,,,,,,,,,,
,,,,,,,,,,,,,,a,1,2.302635,space,0.63469,0,2,2,140,1,0_targ_4_dist_green/trial6.png,,,0,4,greenverival,a,49 ,24,Male,2021-03-02_12h56.19.296,exp11,2020.2.6,Win32,60,,,,,,,,,,,
,,,,,,,,,,,,,,a,1,1.04492,space,0.35424,0,3,3,188,1,0_targ_16_dist_green/trial14.png,,,0,16,greenverival,a,49 ,24,Male,2021-03-02_12h56.19.296,exp11,2020.2.6,Win32,60,,,,,,,,,,,
,,,,,,,,,,,,,,a,1,0.626305,space,0.235985,0,4,4,137,1,0_targ_4_dist_green/trial13.png,,,0,4,greenverival,a,49 ,24,Male,2021-03-02_12h56.19.296,exp11,2020.2.6,Win32,60,,,,,,,,,,,
,,,,,,,,,,,,,,a,1,0.573855,space,0.15294,0,5,5,175,1,0_targ_16_dist_green/trial1.png,,,0,16,greenverival,a,49 ,24,Male,2021-03-02_12h56.19.296,exp11,2020.2.6,Win32,60,,,,,,,,,,,
,,,,,,,,,,,,,,a,1,0.613455,space,0.13592,0,6,6,179,1,0_targ_16_dist_green/trial5.png,,,0,16,greenverival,a,49 ,24,Male,2021-03-02_12h56.19.296,exp11,2020.2.6,Win32,60,,,,,,,,,,,
,,,,,,,,,,,,,,a,1,0.455725,space,0.153585,0,7,7,133,1,0_targ_4_dist_green/trial9.png,,,0,4,greenverival,a,49 ,24,Male,2021-03-02_12h56.19.296,exp11,2020.2.6,Win32,60,,,,,,,,,,,
,,,,,,,,,,,,,,a,1,0.54338,space,0.15362,0,8,8,189,1,0_targ_16_dist_green/trial15.png,,,0,16,greenverival,a,49 ,24,Male,2021-03-02_12h56.19.296,exp11,2020.2.6,Win32,60,,,,,,,,,,,
,,,,,,,,,,,,,,p,1,0.57822,space,0.151395,0,9,9,44,1,3_dist_green/trial20.png,,,1,3,greenverival,p,49 ,24,Male,2021-03-02_12h56.19.296,exp11,2020.2.6,Win32,60,,,,,,,,,,,
,,,,,,,,,,,,,,p,1,0.89389,space,0.203835,0,10,10,88,1,15_dist_green/trial14.png,,,1,15,greenverival,p,49 ,24,Male,2021-03-02_12h56.19.296,exp11,2020.2.6,Win32,60,,,,,,,,,,,
,,,,,,,,,,,,,,p,1,0.706365,space,0.15179,0,11,11,77,1,15_dist_green/trial3.png,,,1,15,greenverival,p,49 ,24,Male,2021-03-02_12h56.19.296,exp11,2020.2.6,Win32,60,,,,,,,,,,,
,,,,,,,,,,,,,,p,1,0.6919,space,0.11797,0,12,12,16,1,0_dist_green/trial17.png,,,1,0,greenverival,p,49 ,24,Male,2021-03-02_12h56.19.296,exp11,2020.2.6,Win32,60,,,,,,,,,,,
,,,,,,,,,,,,,,p,1,0.65823,space,0.10852,0,13,13,43,1,3_dist_green/trial19.png,,,1,3,greenverival,p,49 ,24,Male,2021-03-02_12h56.19.296,exp11,2020.2.6,Win32,60,,,,,,,,,,,
,,,,,,,,,,,,,,p,1,0.797825,space,0.150405,0,14,14,98,1,15_dist_green/trial24.png,,,1,15,greenverival,p,49 ,24,Male,2021-03-02_12h56.19.296,exp11,2020.2.6,Win32,60,,,,,,,,,,,
,,,,,,,,,,,,,,p,1,0.644845,space,0.093385,0,15,15,6,1,0_dist_green/trial7.png,,,1,0,greenverival,p,49 ,24,Male,2021-03-02_12h56.19.296,exp11,2020.2.6,Win32,60,,,,,,,,,,,
,,,,,,,,,,,,,,p,1,0.67666,space,0.117335,0,16,16,73,1,9_dist_green/trial24.png,,,1,9,greenverival,p,49 ,24,Male,2021-03-02_12h56.19.296,exp11,2020.2.6,Win32,60,,,,,,,,,,,
,,,,,,,,,,,,,,p,1,0.680155,space,0.088505,0,17,17,93,1,15_dist_green/trial19.png,,,1,15,greenverival,p,49 ,24,Male,2021-03-02_12h56.19.296,exp11,2020.2.6,Win32,60,,,,,,,,,,,
,,,,,,,,,,,,,,p,1,0.580475,space,0.08903,0,18,18,29,1,3_dist_green/trial5.png,,,1,3,greenverival,p,49 ,24,Male,2021-03-02_12h56.19.296,exp11,2020.2.6,Win32,60,,,,,,,,,,,
,,,,,,,,,,,,,,p,1,0.69039,space,0.101845,0,19,19,25,1,3_dist_green/trial1.png,,,1,3,greenverival,p,49 ,24,Male,2021-03-02_12h56.19.296,exp11,2020.2.6,Win32,60,,,,,,,,,,,
,,,,,,,,,,,,,,p,1,0.48046,space,0.10249,0,20,20,26,1,3_dist_green/trial2.png,,,1,3,greenverival,p,49 ,24,Male,2021-03-02_12h56.19.296,exp11,2020.2.6,Win32,60,,,,,,,,,,,
,,,,,,,,,,,,,,a,1,0.842695,space,0.124555,0,21,21,145,1,0_targ_4_dist_green/trial21.png,,,0,4,greenverival,a,49 ,24,Male,2021-03-02_12h56.19.296,exp11,2020.2.6,Win32,60,,,,,,,,,,,
,,,,,,,,,,,,,,a,1,0.87654,space,0.135245,0,22,22,196,1,0_targ_16_dist_green/trial22.png,,,0,16,greenverival,a,49 ,24,Male,2021-03-02_12h56.19.296,exp11,2020.2.6,Win32,60,,,,,,,,,,,
,,,,,,,,,,,,,,p,1,0.692565,space,0.11961,0,23,23,0,1,0_dist_green/trial1.png,,,1,0,greenverival,p,49 ,24,Male,2021-03-02_12h56.19.296,exp11,2020.2.6,Win32,60,,,,,,,,,,,
,,,,,,,,,,,,,,a,0,0.659655,space,0.02162,0,24,24,47,1,3_dist_green/trial23.png,,,1,3,greenverival,p,49 ,24,Male,2021-03-02_12h56.19.296,exp11,2020.2.6,Win32,60,,,,,,,,,,,
,,,,,,,,,,,,,,a,1,1.34668,space,0.15842,0,25,25,115,1,0_targ_1_dist_green/trial6.png,,,0,1,greenverival,a,49 ,24,Male,2021-03-02_12h56.19.296,exp11,2020.2.6,Win32,60,,,,,,,,,,,
,,,,,,,,,,,,,,p,1,0.859405,space,0.12607,0,26,26,14,1,0_dist_green/trial15.png,,,1,0,greenverival,p,49 ,24,Male,2021-03-02_12h56.19.296,exp11,2020.2.6,Win32,60,,,,,,,,,,,
,,,,,,,,,,,,,,a,1,1.52248,space,0.158495,0,27,27,124,1,0_targ_1_dist_green/trial25.png,,,0,1,greenverival,a,49 ,24,Male,2021-03-02_12h56.19.296,exp11,2020.2.6,Win32,60,,,,,,,,,,,
,,,,,,,,,,,,,,a,1,1.31127,space,0.20264,0,28,28,155,1,0_targ_10_dist_green/trial6.png,,,0,10,greenverival,a,49 ,24,Male,2021-03-02_12h56.19.296,exp11,2020.2.6,Win32,60,,,,,,,,,,,
,,,,,,,,,,,,,,p,1,0.60573,space,0.12001,0,29,29,11,1,0_dist_green/trial12.png,,,1,0,greenverival,p,49 ,24,Male,2021-03-02_12h56.19.296,exp11,2020.2.6,Win32,60,,,,,,,,,,,
,,,,,,,,,,,,,,a,1,0.91088,space,0.132865,0,30,30,186,1,0_targ_16_dist_green/trial12.png,,,0,16,greenverival,a,49 ,24,Male,2021-03-02_12h56.19.296,exp11,2020.2.6,Win32,60,,,,,,,,,,,
,,,,,,,,,,,,,,p,1,1.0429,space,0.149675,0,31,31,64,1,9_dist_green/trial15.png,,,1,9,greenverival,p,49 ,24,Male,2021-03-02_12h56.19.296,exp11,2020.2.6,Win32,60,,,,,,,,,,,
,,,,,,,,,,,,,,a,1,0.68061,space,0.16979,0,32,32,107,1,0_targ_1_dist_green/trial8.png,,,0,1,greenverival,a,49 ,24,Male,2021-03-02_12h56.19.296,exp11,2020.2.6,Win32,60,,,,,,,,,,,
,,,,,,,,,,,,,,p,1,1.693725,space,0.086495,0,33,33,21,1,0_dist_green/trial22.png,,,1,0,greenverival,p,49 ,24,Male,2021-03-02_12h56.19.296,exp11,2020.2.6,Win32,60,,,,,,,,,,,
,,,,,,,,,,,,,,a,1,0.814235,space,0.13766,0,34,34,159,1,0_targ_10_dist_green/trial10.png,,,0,10,greenverival,a,49 ,24,Male,2021-03-02_12h56.19.296,exp11,2020.2.6,Win32,60,,,,,,,,,,,
,,,,,,,,,,,,,,p,1,0.581755,space,0.1351,0,35,35,1,1,0_dist_green/trial2.png,,,1,0,greenverival,p,49 ,24,Male,2021-03-02_12h56.19.296,exp11,2020.2.6,Win32,60,,,,,,,,,,,
,,,,,,,,,,,,,,a,1,0.895945,space,0.207,0,36,36,193,1,0_targ_16_dist_green/trial19.png,,,0,16,greenverival,a,49 ,24,Male,2021-03-02_12h56.19.296,exp11,2020.2.6,Win32,60,,,,,,,,,,,
,,,,,,,,,,,,,,p,1,0.75994,space,0.14998,0,37,37,96,1,15_dist_green/trial22.png,,,1,15,greenverival,p,49 ,24,Male,2021-03-02_12h56.19.296,exp11,2020.2.6,Win32,60,,,,,,,,,,,
,,,,,,,,,,,,,,p,1,0.707245,space,0.108,0,38,38,65,1,9_dist_green/trial16.png,,,1,9,greenverival,p,49 ,24,Male,2021-03-02_12h56.19.296,exp11,2020.2.6,Win32,60,,,,,,,,,,,
,,,,,,,,,,,,,,a,1,1.39589,space,0.166045,0,39,39,108,1,0_targ_1_dist_green/trial9.png,,,0,1,greenverival,a,49 ,24,Male,2021-03-02_12h56.19.296,exp11,2020.2.6,Win32,60,,,,,,,,,,,
,,,,,,,,,,,,,,p,1,0.66361,space,0.075735,0,40,40,60,1,9_dist_green/trial11.png,,,1,9,greenverival,p,49 ,24,Male,2021-03-02_12h56.19.296,exp11,2020.2.6,Win32,60,,,,,,,,,,,
,,,,,,,,,,,,,,p,1,0.66938,space,0.088475,0,41,41,69,1,9_dist_green/trial20.png,,,1,9,greenverival,p,49 ,24,Male,2021-03-02_12h56.19.296,exp11,2020.2.6,Win32,60,,,,,,,,,,,
,,,,,,,,,,,,,,p,1,0.68276,space,0.086845,0,42,42,59,1,9_dist_green/trial10.png,,,1,9,greenverival,p,49 ,24,Male,2021-03-02_12h56.19.296,exp11,2020.2.6,Win32,60,,,,,,,,,,,
,,,,,,,,,,,,,,a,1,0.684665,space,0.15135,0,43,43,172,1,0_targ_10_dist_green/trial23.png,,,0,10,greenverival,a,49 ,24,Male,2021-03-02_12h56.19.296,exp11,2020.2.6,Win32,60,,,,,,,,,,,
,,,,,,,,,,,,,,p,1,0.917955,space,0.13601,0,44,44,95,1,15_dist_green/trial21.png,,,1,15,greenverival,p,49 ,24,Male,2021-03-02_12h56.19.296,exp11,2020.2.6,Win32,60,,,,,,,,,,,
,,,,,,,,,,,,,,a,1,1.015365,space,0.08574,0,45,45,194,1,0_targ_16_dist_green/trial20.png,,,0,16,greenverival,a,49 ,24,Male,2021-03-02_12h56.19.296,exp11,2020.2.6,Win32,60,,,,,,,,,,,
,,,,,,,,,,,,,,p,1,0.74668,space,0.04689,0,46,46,78,1,15_dist_green/trial4.png,,,1,15,greenverival,p,49 ,24,Male,2021-03-02_12h56.19.296,exp11,2020.2.6,Win32,60,,,,,,,,,,,
,,,,,,,,,,,,,,a,1,0.799035,space,0.13325,0,47,47,164,1,0_targ_10_dist_green/trial15.png,,,0,10,greenverival,a,49 ,24,Male,2021-03-02_12h56.19.296,exp11,2020.2.6,Win32,60,,,,,,,,,,,
,,,,,,,,,,,,,,a,1,0.989785,space,0.088395,0,48,48,117,1,0_targ_1_dist_green/trial18.png,,,0,1,greenverival,a,49 ,24,Male,2021-03-02_12h56.19.296,exp11,2020.2.6,Win32,60,,,,,,,,,,,
,,,,,,,,,,,,,,a,1,0.70996,space,0.053225,0,49,49,167,1,0_targ_10_dist_green/trial18.png,,,0,10,greenverival,a,49 ,24,Male,2021-03-02_12h56.19.296,exp11,2020.2.6,Win32,60,,,,,,,,,,,
,,,,,,,,,,,,,,p,1,0.720315,space,0.10144,0,50,50,92,1,15_dist_green/trial18.png,,,1,15,greenverival,p,49 ,24,Male,2021-03-02_12h56.19.296,exp11,2020.2.6,Win32,60,,,,,,,,,,,
,,,,,,,,,,,,,,p,1,1.194045,space,0.084025,0,51,51,30,1,3_dist_green/trial6.png,,,1,3,greenverival,p,49 ,24,Male,2021-03-02_12h56.19.296,exp11,2020.2.6,Win32,60,,,,,,,,,,,
,,,,,,,,,,,,,,p,1,0.65743,space,0.06518,0,52,52,31,1,3_dist_green/trial7.png,,,1,3,greenverival,p,49 ,24,Male,2021-03-02_12h56.19.296,exp11,2020.2.6,Win32,60,,,,,,,,,,,
,,,,,,,,,,,,,,p,1,1.05875,space,0.09277,0,53,53,70,1,9_dist_green/trial21.png,,,1,9,greenverival,p,49 ,24,Male,2021-03-02_12h56.19.296,exp11,2020.2.6,Win32,60,,,,,,,,,,,
,,,,,,,,,,,,,,p,1,0.67155,space,0.08725,0,54,54,35,1,3_dist_green/trial11.png,,,1,3,greenverival,p,49 ,24,Male,2021-03-02_12h56.19.296,exp11,2020.2.6,Win32,60,,,,,,,,,,,
,,,,,,,,,,,,,,a,1,0.75709,space,0.12552,0,55,55,174,1,0_targ_10_dist_green/trial25.png,,,0,10,greenverival,a,49 ,24,Male,2021-03-02_12h56.19.296,exp11,2020.2.6,Win32,60,,,,,,,,,,,
,,,,,,,,,,,,,,a,1,0.54995,space,0.083605,0,56,56,152,1,0_targ_10_dist_green/trial3.png,,,0,10,greenverival,a,49 ,24,Male,2021-03-02_12h56.19.296,exp11,2020.2.6,Win32,60,,,,,,,,,,,
,,,,,,,,,,,,,,p,1,0.67505,space,0.13582,0,57,57,61,1,9_dist_green/trial12.png,,,1,9,greenverival,p,49 ,24,Male,2021-03-02_12h56.19.296,exp11,2020.2.6,Win32,60,,,,,,,,,,,
,,,,,,,,,,,,,,a,0,0.560525,space,0.480205,0,58,58,37,1,3_dist_green/trial13.png,,,1,3,greenverival,p,49 ,24,Male,2021-03-02_12h56.19.296,exp11,2020.2.6,Win32,60,,,,,,,,,,,
,,,,,,,,,,,,,,a,1,0.865505,space,0.12184,0,59,59,126,1,0_targ_4_dist_green/trial2.png,,,0,4,greenverival,a,49 ,24,Male,2021-03-02_12h56.19.296,exp11,2020.2.6,Win32,60,,,,,,,,,,,
,,,,,,,,,,,,,,a,1,0.64096,space,0.151675,0,60,60,161,1,0_targ_10_dist_green/trial12.png,,,0,10,greenverival,a,49 ,24,Male,2021-03-02_12h56.19.296,exp11,2020.2.6,Win32,60,,,,,,,,,,,
,,,,,,,,,,,,,,a,1,0.64266,space,0.203195,0,61,61,144,1,0_targ_4_dist_green/trial20.png,,,0,4,greenverival,a,49 ,24,Male,2021-03-02_12h56.19.296,exp11,2020.2.6,Win32,60,,,,,,,,,,,
,,,,,,,,,,,,,,a,1,0.88191,space,0.15157,0,62,62,116,1,0_targ_1_dist_green/trial17.png,,,0,1,greenverival,a,49 ,24,Male,2021-03-02_12h56.19.296,exp11,2020.2.6,Win32,60,,,,,,,,,,,
,,,,,,,,,,,,,,p,1,0.679005,space,0.10633,0,63,63,42,1,3_dist_green/trial18.png,,,1,3,greenverival,p,49 ,24,Male,2021-03-02_12h56.19.296,exp11,2020.2.6,Win32,60,,,,,,,,,,,
,,,,,,,,,,,,,,a,1,1.63948,space,0.14206,0,64,64,195,1,0_targ_16_dist_green/trial21.png,,,0,16,greenverival,a,49 ,24,Male,2021-03-02_12h56.19.296,exp11,2020.2.6,Win32,60,,,,,,,,,,,
,,,,,,,,,,,,,,p,1,0.6733,space,0.102955,0,65,65,49,1,3_dist_green/trial25.png,,,1,3,greenverival,p,49 ,24,Male,2021-03-02_12h56.19.296,exp11,2020.2.6,Win32,60,,,,,,,,,,,
,,,,,,,,,,,,,,a,0,0.892385,space,0.22453,0,66,66,87,1,15_dist_green/trial13.png,,,1,15,greenverival,p,49 ,24,Male,2021-03-02_12h56.19.296,exp11,2020.2.6,Win32,60,,,,,,,,,,,
,,,,,,,,,,,,,,a,1,0.82993,space,0.079875,0,67,67,165,1,0_targ_10_dist_green/trial16.png,,,0,10,greenverival,a,49 ,24,Male,2021-03-02_12h56.19.296,exp11,2020.2.6,Win32,60,,,,,,,,,,,
,,,,,,,,,,,,,,p,1,0.675745,space,0.103775,0,68,68,45,1,3_dist_green/trial21.png,,,1,3,greenverival,p,49 ,24,Male,2021-03-02_12h56.19.296,exp11,2020.2.6,Win32,60,,,,,,,,,,,
,,,,,,,,,,,,,,p,1,0.667075,space,0.08842,0,69,69,13,1,0_dist_green/trial14.png,,,1,0,greenverival,p,49 ,24,Male,2021-03-02_12h56.19.296,exp11,2020.2.6,Win32,60,,,,,,,,,,,
,,,,,,,,,,,,,,a,1,0.84651,space,0.093455,0,70,70,142,1,0_targ_4_dist_green/trial18.png,,,0,4,greenverival,a,49 ,24,Male,2021-03-02_12h56.19.296,exp11,2020.2.6,Win32,60,,,,,,,,,,,
,,,,,,,,,,,,,,a,1,0.811755,space,0.13883,0,71,71,156,1,0_targ_10_dist_green/trial7.png,,,0,10,greenverival,a,49 ,24,Male,2021-03-02_12h56.19.296,exp11,2020.2.6,Win32,60,,,,,,,,,,,
,,,,,,,,,,,,,,a,1,0.935215,space,0.13617,0,72,72,185,1,0_targ_16_dist_green/trial11.png,,,0,16,greenverival,a,49 ,24,Male,2021-03-02_12h56.19.296,exp11,2020.2.6,Win32,60,,,,,,,,,,,
,,,,,,,,,,,,,,p,1,0.74146,space,0.10165,0,73,73,74,1,9_dist_green/trial25.png,,,1,9,greenverival,p,49 ,24,Male,2021-03-02_12h56.19.296,exp11,2020.2.6,Win32,60,,,,,,,,,,,
,,,,,,,,,,,,,,a,1,1.53287,space,0.077205,0,74,74,181,1,0_targ_16_dist_green/trial7.png,,,0,16,greenverival,a,49 ,24,Male,2021-03-02_12h56.19.296,exp11,2020.2.6,Win32,60,,,,,,,,,,,
,,,,,,,,,,,,,,a,1,0.65043,space,0.087735,0,75,75,178,1,0_targ_16_dist_green/trial4.png,,,0,16,greenverival,a,49 ,24,Male,2021-03-02_12h56.19.296,exp11,2020.2.6,Win32,60,,,,,,,,,,,
,,,,,,,,,,,,,,a,1,0.660035,space,0.10056,0,76,76,184,1,0_targ_16_dist_green/trial10.png,,,0,16,greenverival,a,49 ,24,Male,2021-03-02_12h56.19.296,exp11,2020.2.6,Win32,60,,,,,,,,,,,
,,,,,,,,,,,,,,p,1,0.644285,space,0.11,0,77,77,32,1,3_dist_green/trial8.png,,,1,3,greenverival,p,49 ,24,Male,2021-03-02_12h56.19.296,exp11,2020.2.6,Win32,60,,,,,,,,,,,
,,,,,,,,,,,,,,a,1,1.245025,space,0.134775,0,78,78,147,1,0_targ_4_dist_green/trial23.png,,,0,4,greenverival,a,49 ,24,Male,2021-03-02_12h56.19.296,exp11,2020.2.6,Win32,60,,,,,,,,,,,
,,,,,,,,,,,,,,a,1,1.24915,space,0.10166,0,79,79,177,1,0_targ_16_dist_green/trial3.png,,,0,16,greenverival,a,49 ,24,Male,2021-03-02_12h56.19.296,exp11,2020.2.6,Win32,60,,,,,,,,,,,
,,,,,,,,,,,,,,a,1,0.757115,space,0.119995,0,80,80,113,1,0_targ_1_dist_green/trial14.png,,,0,1,greenverival,a,49 ,24,Male,2021-03-02_12h56.19.296,exp11,2020.2.6,Win32,60,,,,,,,,,,,
,,,,,,,,,,,,,,p,1,0.49343,space,0.12622,0,81,81,38,1,3_dist_green/trial14.png,,,1,3,greenverival,p,49 ,24,Male,2021-03-02_12h56.19.296,exp11,2020.2.6,Win32,60,,,,,,,,,,,
,,,,,,,,,,,,,,a,1,0.831555,space,0.11855,0,82,82,143,1,0_targ_4_dist_green/trial19.png,,,0,4,greenverival,a,49 ,24,Male,2021-03-02_12h56.19.296,exp11,2020.2.6,Win32,60,,,,,,,,,,,
,,,,,,,,,,,,,,a,1,0.905685,space,0.104335,0,83,83,183,1,0_targ_16_dist_green/trial9.png,,,0,16,greenverival,a,49 ,24,Male,2021-03-02_12h56.19.296,exp11,2020.2.6,Win32,60,,,,,,,,,,,
,,,,,,,,,,,,,,a,1,0.693975,space,0.117205,0,84,84,122,1,0_targ_1_dist_green/trial23.png,,,0,1,greenverival,a,49 ,24,Male,2021-03-02_12h56.19.296,exp11,2020.2.6,Win32,60,,,,,,,,,,,
,,,,,,,,,,,,,,a,1,0.598045,space,0.12038,0,85,85,146,1,0_targ_4_dist_green/trial22.png,,,0,4,greenverival,a,49 ,24,Male,2021-03-02_12h56.19.296,exp11,2020.2.6,Win32,60,,,,,,,,,,,
,,,,,,,,,,,,,,a,1,0.578575,space,0.134455,0,86,86,162,1,0_targ_10_dist_green/trial13.png,,,0,10,greenverival,a,49 ,24,Male,2021-03-02_12h56.19.296,exp11,2020.2.6,Win32,60,,,,,,,,,,,
,,,,,,,,,,,,,,a,1,0.70506,space,0.1347,0,87,87,120,1,0_targ_1_dist_green/trial21.png,,,0,1,greenverival,a,49 ,24,Male,2021-03-02_12h56.19.296,exp11,2020.2.6,Win32,60,,,,,,,,,,,
,,,,,,,,,,,,,,a,1,0.61607,space,0.151135,0,88,88,104,1,0_targ_1_dist_green/trial5.png,,,0,1,greenverival,a,49 ,24,Male,2021-03-02_12h56.19.296,exp11,2020.2.6,Win32,60,,,,,,,,,,,
,,,,,,,,,,,,,,a,1,0.86094,space,0.117175,0,89,89,135,1,0_targ_4_dist_green/trial11.png,,,0,4,greenverival,a,49 ,24,Male,2021-03-02_12h56.19.296,exp11,2020.2.6,Win32,60,,,,,,,,,,,
,,,,,,,,,,,,,,a,1,0.574005,space,0.10228,0,90,90,173,1,0_targ_10_dist_green/trial24.png,,,0,10,greenverival,a,49 ,24,Male,2021-03-02_12h56.19.296,exp11,2020.2.6,Win32,60,,,,,,,,,,,
,,,,,,,,,,,,,,a,1,0.716315,space,0.037635,0,91,91,182,1,0_targ_16_dist_green/trial8.png,,,0,16,greenverival,a,49 ,24,Male,2021-03-02_12h56.19.296,exp11,2020.2.6,Win32,60,,,,,,,,,,,
,,,,,,,,,,,,,,a,1,0.696665,space,0.113635,0,92,92,187,1,0_targ_16_dist_green/trial13.png,,,0,16,greenverival,a,49 ,24,Male,2021-03-02_12h56.19.296,exp11,2020.2.6,Win32,60,,,,,,,,,,,
,,,,,,,,,,,,,,p,1,0.64145,space,0.112945,0,93,93,81,1,15_dist_green/trial7.png,,,1,15,greenverival,p,49 ,24,Male,2021-03-02_12h56.19.296,exp11,2020.2.6,Win32,60,,,,,,,,,,,
,,,,,,,,,,,,,,a,1,0.822835,space,0.08912,0,94,94,101,1,0_targ_1_dist_green/trial2.png,,,0,1,greenverival,a,49 ,24,Male,2021-03-02_12h56.19.296,exp11,2020.2.6,Win32,60,,,,,,,,,,,
,,,,,,,,,,,,,,p,1,0.63711,space,0.074855,0,95,95,83,1,15_dist_green/trial9.png,,,1,15,greenverival,p,49 ,24,Male,2021-03-02_12h56.19.296,exp11,2020.2.6,Win32,60,,,,,,,,,,,
,,,,,,,,,,,,,,p,1,1.16354,space,0.069295,0,96,96,34,1,3_dist_green/trial10.png,,,1,3,greenverival,p,49 ,24,Male,2021-03-02_12h56.19.296,exp11,2020.2.6,Win32,60,,,,,,,,,,,
,,,,,,,,,,,,,,a,1,0.717705,space,0.071425,0,97,97,109,1,0_targ_1_dist_green/trial10.png,,,0,1,greenverival,a,49 ,24,Male,2021-03-02_12h56.19.296,exp11,2020.2.6,Win32,60,,,,,,,,,,,
,,,,,,,,,,,,,,a,1,1.244865,space,0.01848,0,98,98,105,1,0_targ_1_dist_green/trial6.png,,,0,1,greenverival,a,49 ,24,Male,2021-03-02_12h56.19.296,exp11,2020.2.6,Win32,60,,,,,,,,,,,
,,,,,,,,,,,,,,a,0,0.64572,space,0.03819,0,99,99,7,1,0_dist_green/trial8.png,,,1,0,greenverival,p,49 ,24,Male,2021-03-02_12h56.19.296,exp11,2020.2.6,Win32,60,,,,,,,,,,,
,,,,,,,,,,,,,,a,1,1.70765,space,0.116245,0,100,100,171,1,0_targ_10_dist_green/trial22.png,,,0,10,greenverival,a,49 ,24,Male,2021-03-02_12h56.19.296,exp11,2020.2.6,Win32,60,,,,,,,,,,,
,,,,,,,,,,,,,,a,1,2.138115,space,0.064345,0,101,101,192,1,0_targ_16_dist_green/trial18.png,,,0,16,greenverival,a,49 ,24,Male,2021-03-02_12h56.19.296,exp11,2020.2.6,Win32,60,,,,,,,,,,,
,,,,,,,,,,,,,,a,1,0.93087,space,0.119725,0,102,102,114,1,0_targ_1_dist_green/trial15.png,,,0,1,greenverival,a,49 ,24,Male,2021-03-02_12h56.19.296,exp11,2020.2.6,Win32,60,,,,,,,,,,,
,,,,,,,,,,,,,,a,1,1.56888,space,0.106015,0,103,103,141,1,0_targ_4_dist_green/trial17.png,,,0,4,greenverival,a,49 ,24,Male,2021-03-02_12h56.19.296,exp11,2020.2.6,Win32,60,,,,,,,,,,,
,,,,,,,,,,,,,,p,1,0.87285,space,0.070275,0,104,104,72,1,9_dist_green/trial23.png,,,1,9,greenverival,p,49 ,24,Male,2021-03-02_12h56.19.296,exp11,2020.2.6,Win32,60,,,,,,,,,,,
,,,,,,,,,,,,,,a,1,0.97932,space,0.089405,0,105,105,149,1,0_targ_4_dist_green/trial25.png,,,0,4,greenverival,a,49 ,24,Male,2021-03-02_12h56.19.296,exp11,2020.2.6,Win32,60,,,,,,,,,,,
,,,,,,,,,,,,,,a,1,1.17752,space,0.050045,0,106,106,131,1,0_targ_4_dist_green/trial7.png,,,0,4,greenverival,a,49 ,24,Male,2021-03-02_12h56.19.296,exp11,2020.2.6,Win32,60,,,,,,,,,,,
,,,,,,,,,,,,,,p,1,0.964565,space,0.085055,0,107,107,67,1,9_dist_green/trial18.png,,,1,9,greenverival,p,49 ,24,Male,2021-03-02_12h56.19.296,exp11,2020.2.6,Win32,60,,,,,,,,,,,
,,,,,,,,,,,,,,p,1,0.65931,space,0.051435,0,108,108,19,1,0_dist_green/trial20.png,,,1,0,greenverival,p,49 ,24,Male,2021-03-02_12h56.19.296,exp11,2020.2.6,Win32,60,,,,,,,,,,,
,,,,,,,,,,,,,,a,1,0.6687,space,0.07255,0,109,109,138,1,0_targ_4_dist_green/trial14.png,,,0,4,greenverival,a,49 ,24,Male,2021-03-02_12h56.19.296,exp11,2020.2.6,Win32,60,,,,,,,,,,,
,,,,,,,,,,,,,,a,1,0.794685,space,0.052465,0,110,110,132,1,0_targ_4_dist_green/trial8.png,,,0,4,greenverival,a,49 ,24,Male,2021-03-02_12h56.19.296,exp11,2020.2.6,Win32,60,,,,,,,,,,,
,,,,,,,,,,,,,,p,1,0.88357,space,0.071405,0,111,111,18,1,0_dist_green/trial19.png,,,1,0,greenverival,p,49 ,24,Male,2021-03-02_12h56.19.296,exp11,2020.2.6,Win32,60,,,,,,,,,,,
,,,,,,,,,,,,,,a,1,1.508095,space,0.05412,0,112,112,191,1,0_targ_16_dist_green/trial17.png,,,0,16,greenverival,a,49 ,24,Male,2021-03-02_12h56.19.296,exp11,2020.2.6,Win32,60,,,,,,,,,,,
,,,,,,,,,,,,,,a,1,1.033285,space,0.040395,0,113,113,169,1,0_targ_10_dist_green/trial20.png,,,0,10,greenverival,a,49 ,24,Male,2021-03-02_12h56.19.296,exp11,2020.2.6,Win32,60,,,,,,,,,,,
,,,,,,,,,,,,,,p,1,0.85907,space,0.868785,0,114,114,23,1,0_dist_green/trial24.png,,,1,0,greenverival,p,49 ,24,Male,2021-03-02_12h56.19.296,exp11,2020.2.6,Win32,60,,,,,,,,,,,
,,,,,,,,,,,,,,p,1,1.256945,space,0.04853,0,115,115,63,1,9_dist_green/trial14.png,,,1,9,greenverival,p,49 ,24,Male,2021-03-02_12h56.19.296,exp11,2020.2.6,Win32,60,,,,,,,,,,,
,,,,,,,,,,,,,,p,1,0.742935,space,0.067755,0,116,116,17,1,0_dist_green/trial18.png,,,1,0,greenverival,p,49 ,24,Male,2021-03-02_12h56.19.296,exp11,2020.2.6,Win32,60,,,,,,,,,,,
,,,,,,,,,,,,,,a,1,0.694305,space,0.087445,0,117,117,153,1,0_targ_10_dist_green/trial4.png,,,0,10,greenverival,a,49 ,24,Male,2021-03-02_12h56.19.296,exp11,2020.2.6,Win32,60,,,,,,,,,,,
,,,,,,,,,,,,,,a,1,1.337785,space,0.085455,0,118,118,125,1,0_targ_4_dist_green/trial1.png,,,0,4,greenverival,a,49 ,24,Male,2021-03-02_12h56.19.296,exp11,2020.2.6,Win32,60,,,,,,,,,,,
,,,,,,,,,,,,,,a,1,0.66212,space,0.04924,0,119,119,151,1,0_targ_10_dist_green/trial2.png,,,0,10,greenverival,a,49 ,24,Male,2021-03-02_12h56.19.296,exp11,2020.2.6,Win32,60,,,,,,,,,,,
,,,,,,,,,,,,,,p,1,0.635645,space,0.07658,0,120,120,41,1,3_dist_green/trial17.png,,,1,3,greenverival,p,49 ,24,Male,2021-03-02_12h56.19.296,exp11,2020.2.6,Win32,60,,,,,,,,,,,
,,,,,,,,,,,,,,a,1,1.41124,space,0.071255,0,121,121,103,1,0_targ_1_dist_green/trial4.png,,,0,1,greenverival,a,49 ,24,Male,2021-03-02_12h56.19.296,exp11,2020.2.6,Win32,60,,,,,,,,,,,
,,,,,,,,,,,,,,a,1,0.653635,space,0.06779,0,122,122,180,1,0_targ_16_dist_green/trial6.png,,,0,16,greenverival,a,49 ,24,Male,2021-03-02_12h56.19.296,exp11,2020.2.6,Win32,60,,,,,,,,,,,
,,,,,,,,,,,,,,a,1,0.69685,space,0.08178,0,123,123,158,1,0_targ_10_dist_green/trial9.png,,,0,10,greenverival,a,49 ,24,Male,2021-03-02_12h56.19.296,exp11,2020.2.6,Win32,60,,,,,,,,,,,
,,,,,,,,,,,,,,a,1,0.64255,space,0.082255,0,124,124,154,1,0_targ_10_dist_green/trial5.png,,,0,10,greenverival,a,49 ,24,Male,2021-03-02_12h56.19.296,exp11,2020.2.6,Win32,60,,,,,,,,,,,
,,,,,,,,,,,,,,p,1,0.60062,space,0.05727,0,125,125,89,1,15_dist_green/trial15.png,,,1,15,greenverival,p,49 ,24,Male,2021-03-02_12h56.19.296,exp11,2020.2.6,Win32,60,,,,,,,,,,,
,,,,,,,,,,,,,,p,1,1.311895,space,0.07152,0,126,126,9,1,0_dist_green/trial10.png,,,1,0,greenverival,p,49 ,24,Male,2021-03-02_12h56.19.296,exp11,2020.2.6,Win32,60,,,,,,,,,,,
,,,,,,,,,,,,,,a,1,0.64579,space,0.110265,0,127,127,150,1,0_targ_10_dist_green/trial1.png,,,0,10,greenverival,a,49 ,24,Male,2021-03-02_12h56.19.296,exp11,2020.2.6,Win32,60,,,,,,,,,,,
,,,,,,,,,,,,,,p,1,0.660735,space,0.019725,0,128,128,90,1,15_dist_green/trial16.png,,,1,15,greenverival,p,49 ,24,Male,2021-03-02_12h56.19.296,exp11,2020.2.6,Win32,60,,,,,,,,,,,
,,,,,,,,,,,,,,a,1,0.72474,space,0.067275,0,129,129,136,1,0_targ_4_dist_green/trial12.png,,,0,4,greenverival,a,49 ,24,Male,2021-03-02_12h56.19.296,exp11,2020.2.6,Win32,60,,,,,,,,,,,
,,,,,,,,,,,,,,p,1,1.11479,space,0.02008,0,130,130,55,1,9_dist_green/trial6.png,,,1,9,greenverival,p,49 ,24,Male,2021-03-02_12h56.19.296,exp11,2020.2.6,Win32,60,,,,,,,,,,,
,,,,,,,,,,,,,,p,1,0.89138,space,0.00184,0,131,131,76,1,15_dist_green/trial2.png,,,1,15,greenverival,p,49 ,24,Male,2021-03-02_12h56.19.296,exp11,2020.2.6,Win32,60,,,,,,,,,,,
,,,,,,,,,,,,,,p,1,0.839165,space,1.00718,0,132,132,71,1,9_dist_green/trial22.png,,,1,9,greenverival,p,49 ,24,Male,2021-03-02_12h56.19.296,exp11,2020.2.6,Win32,60,,,,,,,,,,,
,,,,,,,,,,,,,,p,1,0.656145,space,0.017885,0,133,133,3,1,0_dist_green/trial4.png,,,1,0,greenverival,p,49 ,24,Male,2021-03-02_12h56.19.296,exp11,2020.2.6,Win32,60,,,,,,,,,,,
,,,,,,,,,,,,,,a,1,0.742605,space,0.084785,0,134,134,134,1,0_targ_4_dist_green/trial10.png,,,0,4,greenverival,a,49 ,24,Male,2021-03-02_12h56.19.296,exp11,2020.2.6,Win32,60,,,,,,,,,,,
,,,,,,,,,,,,,,a,1,0.735185,space,0.039025,0,135,135,199,1,0_targ_16_dist_green/trial25.png,,,0,16,greenverival,a,49 ,24,Male,2021-03-02_12h56.19.296,exp11,2020.2.6,Win32,60,,,,,,,,,,,
,,,,,,,,,,,,,,a,1,0.677295,space,0.069465,0,136,136,139,1,0_targ_4_dist_green/trial15.png,,,0,4,greenverival,a,49 ,24,Male,2021-03-02_12h56.19.296,exp11,2020.2.6,Win32,60,,,,,,,,,,,
,,,,,,,,,,,,,,p,1,0.566135,space,0.03787,0,137,137,10,1,0_dist_green/trial11.png,,,1,0,greenverival,p,49 ,24,Male,2021-03-02_12h56.19.296,exp11,2020.2.6,Win32,60,,,,,,,,,,,
,,,,,,,,,,,,,,a,1,0.676865,space,0.0687,0,138,138,110,1,0_targ_1_dist_green/trial11.png,,,0,1,greenverival,a,49 ,24,Male,2021-03-02_12h56.19.296,exp11,2020.2.6,Win32,60,,,,,,,,,,,
,,,,,,,,,,,,,,p,1,0.782085,space,0.75183,0,139,139,91,1,15_dist_green/trial17.png,,,1,15,greenverival,p,49 ,24,Male,2021-03-02_12h56.19.296,exp11,2020.2.6,Win32,60,,,,,,,,,,,
,,,,,,,,,,,,,,p,1,0.69137,space,0.002035,0,140,140,28,1,3_dist_green/trial4.png,,,1,3,greenverival,p,49 ,24,Male,2021-03-02_12h56.19.296,exp11,2020.2.6,Win32,60,,,,,,,,,,,
,,,,,,,,,,,,,,a,1,0.67795,space,0.02778,0,141,141,170,1,0_targ_10_dist_green/trial21.png,,,0,10,greenverival,a,49 ,24,Male,2021-03-02_12h56.19.296,exp11,2020.2.6,Win32,60,,,,,,,,,,,
,,,,,,,,,,,,,,p,1,0.66152,space,0.06895,0,142,142,39,1,3_dist_green/trial15.png,,,1,3,greenverival,p,49 ,24,Male,2021-03-02_12h56.19.296,exp11,2020.2.6,Win32,60,,,,,,,,,,,
,,,,,,,,,,,,,,a,1,1.043045,space,0.0186,0,143,143,198,1,0_targ_16_dist_green/trial24.png,,,0,16,greenverival,a,49 ,24,Male,2021-03-02_12h56.19.296,exp11,2020.2.6,Win32,60,,,,,,,,,,,
,,,,,,,,,,,,,,p,1,0.677845,space,0.55687,0,144,144,62,1,9_dist_green/trial13.png,,,1,9,greenverival,p,49 ,24,Male,2021-03-02_12h56.19.296,exp11,2020.2.6,Win32,60,,,,,,,,,,,
,,,,,,,,,,,,,,p,0,0.00123,space,0.73837,0,145,145,129,1,0_targ_4_dist_green/trial5.png,,,0,4,greenverival,a,49 ,24,Male,2021-03-02_12h56.19.296,exp11,2020.2.6,Win32,60,,,,,,,,,,,
,,,,,,,,,,,,,,a,1,1.174985,space,0.076895,0,146,146,157,1,0_targ_10_dist_green/trial8.png,,,0,10,greenverival,a,49 ,24,Male,2021-03-02_12h56.19.296,exp11,2020.2.6,Win32,60,,,,,,,,,,,
,,,,,,,,,,,,,,p,1,0.63582,space,0.07517,0,147,147,8,1,0_dist_green/trial9.png,,,1,0,greenverival,p,49 ,24,Male,2021-03-02_12h56.19.296,exp11,2020.2.6,Win32,60,,,,,,,,,,,
,,,,,,,,,,,,,,p,1,0.68215,space,0.03471,0,148,148,33,1,3_dist_green/trial9.png,,,1,3,greenverival,p,49 ,24,Male,2021-03-02_12h56.19.296,exp11,2020.2.6,Win32,60,,,,,,,,,,,
,,,,,,,,,,,,,,a,0,0.62431,space,0.028125,0,149,149,40,1,3_dist_green/trial16.png,,,1,3,greenverival,p,49 ,24,Male,2021-03-02_12h56.19.296,exp11,2020.2.6,Win32,60,,,,,,,,,,,
,,,,,,,,,,,,,,p,1,0.731675,space,0.066715,0,150,150,15,1,0_dist_green/trial16.png,,,1,0,greenverival,p,49 ,24,Male,2021-03-02_12h56.19.296,exp11,2020.2.6,Win32,60,,,,,,,,,,,
,,,,,,,,,,,,,,a,0,0.881885,space,0.12118,0,151,151,84,1,15_dist_green/trial10.png,,,1,15,greenverival,p,49 ,24,Male,2021-03-02_12h56.19.296,exp11,2020.2.6,Win32,60,,,,,,,,,,,
,,,,,,,,,,,,,,a,1,0.72462,space,0.064115,0,152,152,166,1,0_targ_10_dist_green/trial17.png,,,0,10,greenverival,a,49 ,24,Male,2021-03-02_12h56.19.296,exp11,2020.2.6,Win32,60,,,,,,,,,,,
,,,,,,,,,,,,,,p,1,1.03697,space,0.08458,0,153,153,46,1,3_dist_green/trial22.png,,,1,3,greenverival,p,49 ,24,Male,2021-03-02_12h56.19.296,exp11,2020.2.6,Win32,60,,,,,,,,,,,
,,,,,,,,,,,,,,a,1,1.70596,space,0.074825,0,154,154,100,1,0_targ_1_dist_green/trial1.png,,,0,1,greenverival,a,49 ,24,Male,2021-03-02_12h56.19.296,exp11,2020.2.6,Win32,60,,,,,,,,,,,
,,,,,,,,,,,,,,p,1,0.68859,space,0.072215,0,155,155,20,1,0_dist_green/trial21.png,,,1,0,greenverival,p,49 ,24,Male,2021-03-02_12h56.19.296,exp11,2020.2.6,Win32,60,,,,,,,,,,,
,,,,,,,,,,,,,,a,0,0.68654,space,0.11662,0,156,156,82,1,15_dist_green/trial8.png,,,1,15,greenverival,p,49 ,24,Male,2021-03-02_12h56.19.296,exp11,2020.2.6,Win32,60,,,,,,,,,,,
,,,,,,,,,,,,,,a,1,2.047275,space,0.11685,0,157,157,160,1,0_targ_10_dist_green/trial11.png,,,0,10,greenverival,a,49 ,24,Male,2021-03-02_12h56.19.296,exp11,2020.2.6,Win32,60,,,,,,,,,,,
,,,,,,,,,,,,,,p,1,1.368255,space,0.07803,0,158,158,36,1,3_dist_green/trial12.png,,,1,3,greenverival,p,49 ,24,Male,2021-03-02_12h56.19.296,exp11,2020.2.6,Win32,60,,,,,,,,,,,
,,,,,,,,,,,,,,p,1,0.731935,space,0.069785,0,159,159,68,1,9_dist_green/trial19.png,,,1,9,greenverival,p,49 ,24,Male,2021-03-02_12h56.19.296,exp11,2020.2.6,Win32,60,,,,,,,,,,,
,,,,,,,,,,,,,,a,0,0.74109,space,0.18931,0,160,160,52,1,9_dist_green/trial3.png,,,1,9,greenverival,p,49 ,24,Male,2021-03-02_12h56.19.296,exp11,2020.2.6,Win32,60,,,,,,,,,,,
,,,,,,,,,,,,,,p,1,0.763935,space,0.026615,0,161,161,86,1,15_dist_green/trial12.png,,,1,15,greenverival,p,49 ,24,Male,2021-03-02_12h56.19.296,exp11,2020.2.6,Win32,60,,,,,,,,,,,
,,,,,,,,,,,,,,p,1,0.59327,space,0.066955,0,162,162,51,1,9_dist_green/trial2.png,,,1,9,greenverival,p,49 ,24,Male,2021-03-02_12h56.19.296,exp11,2020.2.6,Win32,60,,,,,,,,,,,
,,,,,,,,,,,,,,p,1,0.62866,space,0.051695,0,163,163,50,1,9_dist_green/trial1.png,,,1,9,greenverival,p,49 ,24,Male,2021-03-02_12h56.19.296,exp11,2020.2.6,Win32,60,,,,,,,,,,,
,,,,,,,,,,,,,,a,1,0.79471,space,0.08028,0,164,164,163,1,0_targ_10_dist_green/trial14.png,,,0,10,greenverival,a,49 ,24,Male,2021-03-02_12h56.19.296,exp11,2020.2.6,Win32,60,,,,,,,,,,,
,,,,,,,,,,,,,,p,1,0.742535,space,0.104195,0,165,165,22,1,0_dist_green/trial23.png,,,1,0,greenverival,p,49 ,24,Male,2021-03-02_12h56.19.296,exp11,2020.2.6,Win32,60,,,,,,,,,,,
,,,,,,,,,,,,,,p,1,0.679135,space,0.066865,0,166,166,27,1,3_dist_green/trial3.png,,,1,3,greenverival,p,49 ,24,Male,2021-03-02_12h56.19.296,exp11,2020.2.6,Win32,60,,,,,,,,,,,
,,,,,,,,,,,,,,p,1,1.32711,space,0.053215,0,167,167,97,1,15_dist_green/trial23.png,,,1,15,greenverival,p,49 ,24,Male,2021-03-02_12h56.19.296,exp11,2020.2.6,Win32,60,,,,,,,,,,,
,,,,,,,,,,,,,,p,1,0.576975,space,0.03554,0,168,168,48,1,3_dist_green/trial24.png,,,1,3,greenverival,p,49 ,24,Male,2021-03-02_12h56.19.296,exp11,2020.2.6,Win32,60,,,,,,,,,,,
,,,,,,,,,,,,,,p,1,0.495965,space,0.101105,0,169,169,24,1,0_dist_green/trial25.png,,,1,0,greenverival,p,49 ,24,Male,2021-03-02_12h56.19.296,exp11,2020.2.6,Win32,60,,,,,,,,,,,
,,,,,,,,,,,,,,p,1,0.795025,space,0.100935,0,170,170,75,1,15_dist_green/trial1.png,,,1,15,greenverival,p,49 ,24,Male,2021-03-02_12h56.19.296,exp11,2020.2.6,Win32,60,,,,,,,,,,,
,,,,,,,,,,,,,,p,1,0.576985,space,0.08484,0,171,171,5,1,0_dist_green/trial6.png,,,1,0,greenverival,p,49 ,24,Male,2021-03-02_12h56.19.296,exp11,2020.2.6,Win32,60,,,,,,,,,,,
,,,,,,,,,,,,,,a,1,0.97445,space,0.06877,0,172,172,112,1,0_targ_1_dist_green/trial13.png,,,0,1,greenverival,a,49 ,24,Male,2021-03-02_12h56.19.296,exp11,2020.2.6,Win32,60,,,,,,,,,,,
,,,,,,,,,,,,,,a,1,0.89314,space,0.088005,0,173,173,168,1,0_targ_10_dist_green/trial19.png,,,0,10,greenverival,a,49 ,24,Male,2021-03-02_12h56.19.296,exp11,2020.2.6,Win32,60,,,,,,,,,,,
,,,,,,,,,,,,,,a,1,0.824285,space,0.036185,0,174,174,123,1,0_targ_1_dist_green/trial24.png,,,0,1,greenverival,a,49 ,24,Male,2021-03-02_12h56.19.296,exp11,2020.2.6,Win32,60,,,,,,,,,,,
,,,,,,,,,,,,,,p,1,0.645215,space,0.058595,0,175,175,57,1,9_dist_green/trial8.png,,,1,9,greenverival,p,49 ,24,Male,2021-03-02_12h56.19.296,exp11,2020.2.6,Win32,60,,,,,,,,,,,
,,,,,,,,,,,,,,p,1,1.006245,space,0.002895,0,176,176,12,1,0_dist_green/trial13.png,,,1,0,greenverival,p,49 ,24,Male,2021-03-02_12h56.19.296,exp11,2020.2.6,Win32,60,,,,,,,,,,,
,,,,,,,,,,,,,,a,1,0.67616,space,0.087865,0,177,177,128,1,0_targ_4_dist_green/trial4.png,,,0,4,greenverival,a,49 ,24,Male,2021-03-02_12h56.19.296,exp11,2020.2.6,Win32,60,,,,,,,,,,,
,,,,,,,,,,,,,,a,1,0.62663,space,0.03346,0,178,178,148,1,0_targ_4_dist_green/trial24.png,,,0,4,greenverival,a,49 ,24,Male,2021-03-02_12h56.19.296,exp11,2020.2.6,Win32,60,,,,,,,,,,,
,,,,,,,,,,,,,,p,1,0.62229,space,0.01979,0,179,179,99,1,15_dist_green/trial25.png,,,1,15,greenverival,p,49 ,24,Male,2021-03-02_12h56.19.296,exp11,2020.2.6,Win32,60,,,,,,,,,,,
,,,,,,,,,,,,,,a,1,0.750485,space,0.106005,0,180,180,127,1,0_targ_4_dist_green/trial3.png,,,0,4,greenverival,a,49 ,24,Male,2021-03-02_12h56.19.296,exp11,2020.2.6,Win32,60,,,,,,,,,,,
,,,,,,,,,,,,,,a,1,0.615315,space,0.062535,0,181,181,190,1,0_targ_16_dist_green/trial16.png,,,0,16,greenverival,a,49 ,24,Male,2021-03-02_12h56.19.296,exp11,2020.2.6,Win32,60,,,,,,,,,,,
,,,,,,,,,,,,,,a,1,0.529895,space,0.04412,0,182,182,119,1,0_targ_1_dist_green/trial20.png,,,0,1,greenverival,a,49 ,24,Male,2021-03-02_12h56.19.296,exp11,2020.2.6,Win32,60,,,,,,,,,,,
,,,,,,,,,,,,,,a,1,0.86202,space,0.619445,0,183,183,197,1,0_targ_16_dist_green/trial23.png,,,0,16,greenverival,a,49 ,24,Male,2021-03-02_12h56.19.296,exp11,2020.2.6,Win32,60,,,,,,,,,,,
,,,,,,,,,,,,,,a,1,0.508705,space,0.03564,0,184,184,130,1,0_targ_4_dist_green/trial6.png,,,0,4,greenverival,a,49 ,24,Male,2021-03-02_12h56.19.296,exp11,2020.2.6,Win32,60,,,,,,,,,,,
,,,,,,,,,,,,,,p,1,0.68893,space,0.122755,0,185,185,4,1,0_dist_green/trial5.png,,,1,0,greenverival,p,49 ,24,Male,2021-03-02_12h56.19.296,exp11,2020.2.6,Win32,60,,,,,,,,,,,
,,,,,,,,,,,,,,a,1,1.045515,space,0.11836,0,186,186,121,1,0_targ_1_dist_green/trial22.png,,,0,1,greenverival,a,49 ,24,Male,2021-03-02_12h56.19.296,exp11,2020.2.6,Win32,60,,,,,,,,,,,
,,,,,,,,,,,,,,a,1,0.703695,space,0.0447,0,187,187,111,1,0_targ_1_dist_green/trial12.png,,,0,1,greenverival,a,49 ,24,Male,2021-03-02_12h56.19.296,exp11,2020.2.6,Win32,60,,,,,,,,,,,
,,,,,,,,,,,,,,p,1,0.76263,space,0.020605,0,188,188,85,1,15_dist_green/trial11.png,,,1,15,greenverival,p,49 ,24,Male,2021-03-02_12h56.19.296,exp11,2020.2.6,Win32,60,,,,,,,,,,,
,,,,,,,,,,,,,,p,1,0.944475,space,0.00429,0,189,189,80,1,15_dist_green/trial6.png,,,1,15,greenverival,p,49 ,24,Male,2021-03-02_12h56.19.296,exp11,2020.2.6,Win32,60,,,,,,,,,,,
,,,,,,,,,,,,,,a,1,0.612855,space,0.03901,0,190,190,176,1,0_targ_16_dist_green/trial2.png,,,0,16,greenverival,a,49 ,24,Male,2021-03-02_12h56.19.296,exp11,2020.2.6,Win32,60,,,,,,,,,,,
,,,,,,,,,,,,,,p,1,0.665225,space,0.002655,0,191,191,2,1,0_dist_green/trial3.png,,,1,0,greenverival,p,49 ,24,Male,2021-03-02_12h56.19.296,exp11,2020.2.6,Win32,60,,,,,,,,,,,
,,,,,,,,,,,,,,a,1,0.96052,space,0.00714,0,192,192,106,1,0_targ_1_dist_green/trial7.png,,,0,1,greenverival,a,49 ,24,Male,2021-03-02_12h56.19.296,exp11,2020.2.6,Win32,60,,,,,,,,,,,
,,,,,,,,,,,,,,a,1,0.706065,space,0.001405,0,193,193,118,1,0_targ_1_dist_green/trial19.png,,,0,1,greenverival,a,49 ,24,Male,2021-03-02_12h56.19.296,exp11,2020.2.6,Win32,60,,,,,,,,,,,
,,,,,,,,,,,,,,p,1,0.812555,space,0.043755,0,194,194,56,1,9_dist_green/trial7.png,,,1,9,greenverival,p,49 ,24,Male,2021-03-02_12h56.19.296,exp11,2020.2.6,Win32,60,,,,,,,,,,,
,,,,,,,,,,,,,,p,1,1.01289,space,0.03242,0,195,195,94,1,15_dist_green/trial20.png,,,1,15,greenverival,p,49 ,24,Male,2021-03-02_12h56.19.296,exp11,2020.2.6,Win32,60,,,,,,,,,,,
,,,,,,,,,,,,,,a,1,0.661145,space,0.05905,0,196,196,102,1,0_targ_1_dist_green/trial3.png,,,0,1,greenverival,a,49 ,24,Male,2021-03-02_12h56.19.296,exp11,2020.2.6,Win32,60,,,,,,,,,,,
,,,,,,,,,,,,,,p,1,0.853765,space,0.037985,0,197,197,79,1,15_dist_green/trial5.png,,,1,15,greenverival,p,49 ,24,Male,2021-03-02_12h56.19.296,exp11,2020.2.6,Win32,60,,,,,,,,,,,
,,,,,,,,,,,,,,p,1,0.66076,space,0.070525,0,198,198,58,1,9_dist_green/trial9.png,,,1,9,greenverival,p,49 ,24,Male,2021-03-02_12h56.19.296,exp11,2020.2.6,Win32,60,,,,,,,,,,,
,,,,,,,,,,,,,,p,1,0.69122,space,0.001875,0,199,199,53,1,9_dist_green/trial4.png,,,1,9,greenverival,p,49 ,24,Male,2021-03-02_12h56.19.296,exp11,2020.2.6,Win32,60,,,,,,,,,,,
,,,,,,,,,,,,,,,,,,,,,,,,,,,,,,,49 ,24,Male,2021-03-02_12h56.19.296,exp11,2020.2.6,Win32,60,0,1,1,0,1,conGreen.xlsx,green vertical,Look for green vertical bar (target) and indicate if it is present or absent in the array. If green vertical target is present press 'p' and if absent press 'a'. Press SPACE to start.,,,
