key_resp_6.keys,key_resp_6.rt,key_resp_7.keys,key_resp_7.rt,key_resp_8.keys,key_resp_8.rt,key_resp_10.keys,key_resp_10.rt,key_resp_9.keys,key_resp_9.rt,key_resp_3.keys,key_resp_3.rt,key_resp_5.keys,key_resp_5.rt,key_resp.keys,key_resp.corr,key_resp.rt,key_resp_4.keys,key_resp_4.rt,trials.thisRepN,trials.thisTrialN,trials.thisN,trials.thisIndex,trials.ran,ImageFile,tarPos,tarSize,targPres,numDist,targetName,correctAns,participant,age,sex,date,expName,psychopyVersion,OS,frameRate,trials_2.thisRepN,trials_2.thisTrialN,trials_2.thisN,trials_2.thisIndex,trials_2.ran,condsFile,targName,instructionText,colTarget,sizeTarg,posit
space,2.816,space,14.359,space,5.871,space,17.212,space,4.401,space,17.817,space,5.252,a,1,1.584,space,3.589,0,0,0,160,1,0_targ_10_dist_green/trial11.png,,,0,10,greenverival,a,51,21,female,2021-02-23_15h52.37.669,exp11,2020.2.6,MacIntel,60,,,,,,,,,,,
,,,,,,,,,,,,,,a,1,1.163,space,0.601,0,1,1,191,1,0_targ_16_dist_green/trial17.png,,,0,16,greenverival,a,51,21,female,2021-02-23_15h52.37.669,exp11,2020.2.6,MacIntel,60,,,,,,,,,,,
,,,,,,,,,,,,,,a,1,0.807,space,0.235,0,2,2,143,1,0_targ_4_dist_green/trial19.png,,,0,4,greenverival,a,51,21,female,2021-02-23_15h52.37.669,exp11,2020.2.6,MacIntel,60,,,,,,,,,,,
,,,,,,,,,,,,,,p,1,0.679,space,0.361,0,3,3,27,1,3_dist_green/trial3.png,,,1,3,greenverival,p,51,21,female,2021-02-23_15h52.37.669,exp11,2020.2.6,MacIntel,60,,,,,,,,,,,
,,,,,,,,,,,,,,a,1,0.738,space,0.192,0,4,4,142,1,0_targ_4_dist_green/trial18.png,,,0,4,greenverival,a,51,21,female,2021-02-23_15h52.37.669,exp11,2020.2.6,MacIntel,60,,,,,,,,,,,
,,,,,,,,,,,,,,p,1,0.631,space,0.292,0,5,5,42,1,3_dist_green/trial18.png,,,1,3,greenverival,p,51,21,female,2021-02-23_15h52.37.669,exp11,2020.2.6,MacIntel,60,,,,,,,,,,,
,,,,,,,,,,,,,,p,1,0.728,space,0.223,0,6,6,29,1,3_dist_green/trial5.png,,,1,3,greenverival,p,51,21,female,2021-02-23_15h52.37.669,exp11,2020.2.6,MacIntel,60,,,,,,,,,,,
,,,,,,,,,,,,,,a,1,0.943,space,0.274,0,7,7,170,1,0_targ_10_dist_green/trial21.png,,,0,10,greenverival,a,51,21,female,2021-02-23_15h52.37.669,exp11,2020.2.6,MacIntel,60,,,,,,,,,,,
,,,,,,,,,,,,,,p,1,1.042,space,0.227,0,8,8,22,1,0_dist_green/trial23.png,,,1,0,greenverival,p,51,21,female,2021-02-23_15h52.37.669,exp11,2020.2.6,MacIntel,60,,,,,,,,,,,
,,,,,,,,,,,,,,a,1,0.781,space,0.243,0,9,9,147,1,0_targ_4_dist_green/trial23.png,,,0,4,greenverival,a,51,21,female,2021-02-23_15h52.37.669,exp11,2020.2.6,MacIntel,60,,,,,,,,,,,
,,,,,,,,,,,,,,a,1,1.411,space,0.39,0,10,10,197,1,0_targ_16_dist_green/trial23.png,,,0,16,greenverival,a,51,21,female,2021-02-23_15h52.37.669,exp11,2020.2.6,MacIntel,60,,,,,,,,,,,
,,,,,,,,,,,,,,a,1,0.879,space,0.601,0,11,11,175,1,0_targ_16_dist_green/trial1.png,,,0,16,greenverival,a,51,21,female,2021-02-23_15h52.37.669,exp11,2020.2.6,MacIntel,60,,,,,,,,,,,
,,,,,,,,,,,,,,a,1,0.609,space,0.842,0,12,12,107,1,0_targ_1_dist_green/trial8.png,,,0,1,greenverival,a,51,21,female,2021-02-23_15h52.37.669,exp11,2020.2.6,MacIntel,60,,,,,,,,,,,
,,,,,,,,,,,,,,p,1,0.866,space,0.259,0,13,13,83,1,15_dist_green/trial9.png,,,1,15,greenverival,p,51,21,female,2021-02-23_15h52.37.669,exp11,2020.2.6,MacIntel,60,,,,,,,,,,,
,,,,,,,,,,,,,,a,1,0.95,space,0.258,0,14,14,140,1,0_targ_4_dist_green/trial6.png,,,0,4,greenverival,a,51,21,female,2021-02-23_15h52.37.669,exp11,2020.2.6,MacIntel,60,,,,,,,,,,,
,,,,,,,,,,,,,,a,1,1.028,space,0.26,0,15,15,192,1,0_targ_16_dist_green/trial18.png,,,0,16,greenverival,a,51,21,female,2021-02-23_15h52.37.669,exp11,2020.2.6,MacIntel,60,,,,,,,,,,,
,,,,,,,,,,,,,,a,1,0.846,space,0.285,0,16,16,152,1,0_targ_10_dist_green/trial3.png,,,0,10,greenverival,a,51,21,female,2021-02-23_15h52.37.669,exp11,2020.2.6,MacIntel,60,,,,,,,,,,,
,,,,,,,,,,,,,,p,1,0.707,space,0.351,0,17,17,64,1,9_dist_green/trial15.png,,,1,9,greenverival,p,51,21,female,2021-02-23_15h52.37.669,exp11,2020.2.6,MacIntel,60,,,,,,,,,,,
,,,,,,,,,,,,,,p,1,0.982,space,0.375,0,18,18,61,1,9_dist_green/trial12.png,,,1,9,greenverival,p,51,21,female,2021-02-23_15h52.37.669,exp11,2020.2.6,MacIntel,60,,,,,,,,,,,
,,,,,,,,,,,,,,a,1,0.758,space,0.339,0,19,19,119,1,0_targ_1_dist_green/trial20.png,,,0,1,greenverival,a,51,21,female,2021-02-23_15h52.37.669,exp11,2020.2.6,MacIntel,60,,,,,,,,,,,
,,,,,,,,,,,,,,a,1,0.892,space,0.275,0,20,20,133,1,0_targ_4_dist_green/trial9.png,,,0,4,greenverival,a,51,21,female,2021-02-23_15h52.37.669,exp11,2020.2.6,MacIntel,60,,,,,,,,,,,
,,,,,,,,,,,,,,a,1,1.212,space,0.256,0,21,21,182,1,0_targ_16_dist_green/trial8.png,,,0,16,greenverival,a,51,21,female,2021-02-23_15h52.37.669,exp11,2020.2.6,MacIntel,60,,,,,,,,,,,
,,,,,,,,,,,,,,p,1,0.696,space,0.234,0,22,22,31,1,3_dist_green/trial7.png,,,1,3,greenverival,p,51,21,female,2021-02-23_15h52.37.669,exp11,2020.2.6,MacIntel,60,,,,,,,,,,,
,,,,,,,,,,,,,,p,1,0.606,space,0.21,0,23,23,36,1,3_dist_green/trial12.png,,,1,3,greenverival,p,51,21,female,2021-02-23_15h52.37.669,exp11,2020.2.6,MacIntel,60,,,,,,,,,,,
,,,,,,,,,,,,,,a,1,0.911,space,0.286,0,24,24,155,1,0_targ_10_dist_green/trial6.png,,,0,10,greenverival,a,51,21,female,2021-02-23_15h52.37.669,exp11,2020.2.6,MacIntel,60,,,,,,,,,,,
,,,,,,,,,,,,,,p,1,0.491,space,0.258,0,25,25,44,1,3_dist_green/trial20.png,,,1,3,greenverival,p,51,21,female,2021-02-23_15h52.37.669,exp11,2020.2.6,MacIntel,60,,,,,,,,,,,
,,,,,,,,,,,,,,a,1,1.023,space,0.235,0,26,26,188,1,0_targ_16_dist_green/trial14.png,,,0,16,greenverival,a,51,21,female,2021-02-23_15h52.37.669,exp11,2020.2.6,MacIntel,60,,,,,,,,,,,
,,,,,,,,,,,,,,p,1,0.515,space,0.243,0,27,27,3,1,0_dist_green/trial4.png,,,1,0,greenverival,p,51,21,female,2021-02-23_15h52.37.669,exp11,2020.2.6,MacIntel,60,,,,,,,,,,,
,,,,,,,,,,,,,,p,1,0.708,space,0.351,0,28,28,40,1,3_dist_green/trial16.png,,,1,3,greenverival,p,51,21,female,2021-02-23_15h52.37.669,exp11,2020.2.6,MacIntel,60,,,,,,,,,,,
,,,,,,,,,,,,,,p,1,0.563,space,0.328,0,29,29,72,1,9_dist_green/trial23.png,,,1,9,greenverival,p,51,21,female,2021-02-23_15h52.37.669,exp11,2020.2.6,MacIntel,60,,,,,,,,,,,
,,,,,,,,,,,,,,p,1,0.832,space,0.195,0,30,30,54,1,9_dist_green/trial5.png,,,1,9,greenverival,p,51,21,female,2021-02-23_15h52.37.669,exp11,2020.2.6,MacIntel,60,,,,,,,,,,,
,,,,,,,,,,,,,,a,1,0.691,space,0.34,0,31,31,165,1,0_targ_10_dist_green/trial16.png,,,0,10,greenverival,a,51,21,female,2021-02-23_15h52.37.669,exp11,2020.2.6,MacIntel,60,,,,,,,,,,,
,,,,,,,,,,,,,,p,1,0.758,space,0.4,0,32,32,5,1,0_dist_green/trial6.png,,,1,0,greenverival,p,51,21,female,2021-02-23_15h52.37.669,exp11,2020.2.6,MacIntel,60,,,,,,,,,,,
,,,,,,,,,,,,,,a,1,0.949,space,0.318,0,33,33,117,1,0_targ_1_dist_green/trial18.png,,,0,1,greenverival,a,51,21,female,2021-02-23_15h52.37.669,exp11,2020.2.6,MacIntel,60,,,,,,,,,,,
,,,,,,,,,,,,,,a,1,1.056,space,0.289,0,34,34,129,1,0_targ_4_dist_green/trial5.png,,,0,4,greenverival,a,51,21,female,2021-02-23_15h52.37.669,exp11,2020.2.6,MacIntel,60,,,,,,,,,,,
,,,,,,,,,,,,,,a,1,0.89,space,0.218,0,35,35,195,1,0_targ_16_dist_green/trial21.png,,,0,16,greenverival,a,51,21,female,2021-02-23_15h52.37.669,exp11,2020.2.6,MacIntel,60,,,,,,,,,,,
,,,,,,,,,,,,,,a,1,0.877,space,0.236,0,36,36,146,1,0_targ_4_dist_green/trial22.png,,,0,4,greenverival,a,51,21,female,2021-02-23_15h52.37.669,exp11,2020.2.6,MacIntel,60,,,,,,,,,,,
,,,,,,,,,,,,,,a,1,0.625,space,0.384,0,37,37,135,1,0_targ_4_dist_green/trial11.png,,,0,4,greenverival,a,51,21,female,2021-02-23_15h52.37.669,exp11,2020.2.6,MacIntel,60,,,,,,,,,,,
,,,,,,,,,,,,,,p,1,0.964,space,0.186,0,38,38,33,1,3_dist_green/trial9.png,,,1,3,greenverival,p,51,21,female,2021-02-23_15h52.37.669,exp11,2020.2.6,MacIntel,60,,,,,,,,,,,
,,,,,,,,,,,,,,a,1,0.823,space,0.234,0,39,39,183,1,0_targ_16_dist_green/trial9.png,,,0,16,greenverival,a,51,21,female,2021-02-23_15h52.37.669,exp11,2020.2.6,MacIntel,60,,,,,,,,,,,
,,,,,,,,,,,,,,a,1,0.629,space,0.211,0,40,40,101,1,0_targ_1_dist_green/trial2.png,,,0,1,greenverival,a,51,21,female,2021-02-23_15h52.37.669,exp11,2020.2.6,MacIntel,60,,,,,,,,,,,
,,,,,,,,,,,,,,a,1,1.311,space,0.285,0,41,41,108,1,0_targ_1_dist_green/trial9.png,,,0,1,greenverival,a,51,21,female,2021-02-23_15h52.37.669,exp11,2020.2.6,MacIntel,60,,,,,,,,,,,
,,,,,,,,,,,,,,p,1,0.675,space,0.317,0,42,42,1,1,0_dist_green/trial2.png,,,1,0,greenverival,p,51,21,female,2021-02-23_15h52.37.669,exp11,2020.2.6,MacIntel,60,,,,,,,,,,,
,,,,,,,,,,,,,,a,1,0.722,space,0.32,0,43,43,169,1,0_targ_10_dist_green/trial20.png,,,0,10,greenverival,a,51,21,female,2021-02-23_15h52.37.669,exp11,2020.2.6,MacIntel,60,,,,,,,,,,,
,,,,,,,,,,,,,,a,1,0.608,space,0.308,0,44,44,109,1,0_targ_1_dist_green/trial10.png,,,0,1,greenverival,a,51,21,female,2021-02-23_15h52.37.669,exp11,2020.2.6,MacIntel,60,,,,,,,,,,,
,,,,,,,,,,,,,,a,1,0.696,space,0.269,0,45,45,173,1,0_targ_10_dist_green/trial24.png,,,0,10,greenverival,a,51,21,female,2021-02-23_15h52.37.669,exp11,2020.2.6,MacIntel,60,,,,,,,,,,,
,,,,,,,,,,,,,,p,1,0.682,space,0.209,0,46,46,35,1,3_dist_green/trial11.png,,,1,3,greenverival,p,51,21,female,2021-02-23_15h52.37.669,exp11,2020.2.6,MacIntel,60,,,,,,,,,,,
,,,,,,,,,,,,,,a,1,0.775,space,0.25,0,47,47,180,1,0_targ_16_dist_green/trial6.png,,,0,16,greenverival,a,51,21,female,2021-02-23_15h52.37.669,exp11,2020.2.6,MacIntel,60,,,,,,,,,,,
,,,,,,,,,,,,,,p,1,0.948,space,0.257,0,48,48,75,1,15_dist_green/trial1.png,,,1,15,greenverival,p,51,21,female,2021-02-23_15h52.37.669,exp11,2020.2.6,MacIntel,60,,,,,,,,,,,
,,,,,,,,,,,,,,p,0,1.477,space,0.429,0,49,49,168,1,0_targ_10_dist_green/trial19.png,,,0,10,greenverival,a,51,21,female,2021-02-23_15h52.37.669,exp11,2020.2.6,MacIntel,60,,,,,,,,,,,
,,,,,,,,,,,,,,p,1,0.865,space,0.539,0,50,50,89,1,15_dist_green/trial15.png,,,1,15,greenverival,p,51,21,female,2021-02-23_15h52.37.669,exp11,2020.2.6,MacIntel,60,,,,,,,,,,,
,,,,,,,,,,,,,,p,1,0.895,space,0.27,0,51,51,25,1,3_dist_green/trial1.png,,,1,3,greenverival,p,51,21,female,2021-02-23_15h52.37.669,exp11,2020.2.6,MacIntel,60,,,,,,,,,,,
,,,,,,,,,,,,,,a,1,0.856,space,0.219,0,52,52,193,1,0_targ_16_dist_green/trial19.png,,,0,16,greenverival,a,51,21,female,2021-02-23_15h52.37.669,exp11,2020.2.6,MacIntel,60,,,,,,,,,,,
,,,,,,,,,,,,,,p,1,0.592,space,0.175,0,53,53,16,1,0_dist_green/trial17.png,,,1,0,greenverival,p,51,21,female,2021-02-23_15h52.37.669,exp11,2020.2.6,MacIntel,60,,,,,,,,,,,
,,,,,,,,,,,,,,p,1,1.027,space,0.244,0,54,54,86,1,15_dist_green/trial12.png,,,1,15,greenverival,p,51,21,female,2021-02-23_15h52.37.669,exp11,2020.2.6,MacIntel,60,,,,,,,,,,,
,,,,,,,,,,,,,,p,1,0.76,space,0.202,0,55,55,84,1,15_dist_green/trial10.png,,,1,15,greenverival,p,51,21,female,2021-02-23_15h52.37.669,exp11,2020.2.6,MacIntel,60,,,,,,,,,,,
,,,,,,,,,,,,,,a,1,0.656,space,0.238,0,56,56,136,1,0_targ_4_dist_green/trial12.png,,,0,4,greenverival,a,51,21,female,2021-02-23_15h52.37.669,exp11,2020.2.6,MacIntel,60,,,,,,,,,,,
,,,,,,,,,,,,,,p,1,0.948,space,0.301,0,57,57,81,1,15_dist_green/trial7.png,,,1,15,greenverival,p,51,21,female,2021-02-23_15h52.37.669,exp11,2020.2.6,MacIntel,60,,,,,,,,,,,
,,,,,,,,,,,,,,p,1,0.596,space,0.289,0,58,58,46,1,3_dist_green/trial22.png,,,1,3,greenverival,p,51,21,female,2021-02-23_15h52.37.669,exp11,2020.2.6,MacIntel,60,,,,,,,,,,,
,,,,,,,,,,,,,,a,1,0.595,space,0.267,0,59,59,120,1,0_targ_1_dist_green/trial21.png,,,0,1,greenverival,a,51,21,female,2021-02-23_15h52.37.669,exp11,2020.2.6,MacIntel,60,,,,,,,,,,,
,,,,,,,,,,,,,,p,1,0.907,space,0.226,0,60,60,76,1,15_dist_green/trial2.png,,,1,15,greenverival,p,51,21,female,2021-02-23_15h52.37.669,exp11,2020.2.6,MacIntel,60,,,,,,,,,,,
,,,,,,,,,,,,,,p,1,0.68,space,0.194,0,61,61,65,1,9_dist_green/trial16.png,,,1,9,greenverival,p,51,21,female,2021-02-23_15h52.37.669,exp11,2020.2.6,MacIntel,60,,,,,,,,,,,
,,,,,,,,,,,,,,p,1,1.027,space,0.206,0,62,62,70,1,9_dist_green/trial21.png,,,1,9,greenverival,p,51,21,female,2021-02-23_15h52.37.669,exp11,2020.2.6,MacIntel,60,,,,,,,,,,,
,,,,,,,,,,,,,,a,1,1.058,space,0.236,0,63,63,159,1,0_targ_10_dist_green/trial10.png,,,0,10,greenverival,a,51,21,female,2021-02-23_15h52.37.669,exp11,2020.2.6,MacIntel,60,,,,,,,,,,,
,,,,,,,,,,,,,,a,1,0.75,space,0.323,0,64,64,163,1,0_targ_10_dist_green/trial14.png,,,0,10,greenverival,a,51,21,female,2021-02-23_15h52.37.669,exp11,2020.2.6,MacIntel,60,,,,,,,,,,,
,,,,,,,,,,,,,,p,1,0.465,space,0.226,0,65,65,18,1,0_dist_green/trial19.png,,,1,0,greenverival,p,51,21,female,2021-02-23_15h52.37.669,exp11,2020.2.6,MacIntel,60,,,,,,,,,,,
,,,,,,,,,,,,,,p,0,0.526,space,4.134,0,66,66,112,1,0_targ_1_dist_green/trial13.png,,,0,1,greenverival,a,51,21,female,2021-02-23_15h52.37.669,exp11,2020.2.6,MacIntel,60,,,,,,,,,,,
,,,,,,,,,,,,,,p,1,0.888,space,0.27,0,67,67,59,1,9_dist_green/trial10.png,,,1,9,greenverival,p,51,21,female,2021-02-23_15h52.37.669,exp11,2020.2.6,MacIntel,60,,,,,,,,,,,
,,,,,,,,,,,,,,a,1,0.54,space,0.234,0,68,68,106,1,0_targ_1_dist_green/trial7.png,,,0,1,greenverival,a,51,21,female,2021-02-23_15h52.37.669,exp11,2020.2.6,MacIntel,60,,,,,,,,,,,
,,,,,,,,,,,,,,p,1,0.576,space,0.168,0,69,69,43,1,3_dist_green/trial19.png,,,1,3,greenverival,p,51,21,female,2021-02-23_15h52.37.669,exp11,2020.2.6,MacIntel,60,,,,,,,,,,,
,,,,,,,,,,,,,,a,1,0.791,space,0.384,0,70,70,172,1,0_targ_10_dist_green/trial23.png,,,0,10,greenverival,a,51,21,female,2021-02-23_15h52.37.669,exp11,2020.2.6,MacIntel,60,,,,,,,,,,,
,,,,,,,,,,,,,,p,1,0.913,space,0.307,0,71,71,60,1,9_dist_green/trial11.png,,,1,9,greenverival,p,51,21,female,2021-02-23_15h52.37.669,exp11,2020.2.6,MacIntel,60,,,,,,,,,,,
,,,,,,,,,,,,,,p,1,0.546,space,0.176,0,72,72,41,1,3_dist_green/trial17.png,,,1,3,greenverival,p,51,21,female,2021-02-23_15h52.37.669,exp11,2020.2.6,MacIntel,60,,,,,,,,,,,
,,,,,,,,,,,,,,a,1,0.866,space,0.293,0,73,73,177,1,0_targ_16_dist_green/trial3.png,,,0,16,greenverival,a,51,21,female,2021-02-23_15h52.37.669,exp11,2020.2.6,MacIntel,60,,,,,,,,,,,
,,,,,,,,,,,,,,p,1,0.444,space,0.251,0,74,74,17,1,0_dist_green/trial18.png,,,1,0,greenverival,p,51,21,female,2021-02-23_15h52.37.669,exp11,2020.2.6,MacIntel,60,,,,,,,,,,,
,,,,,,,,,,,,,,p,1,1.026,space,0.259,0,75,75,51,1,9_dist_green/trial2.png,,,1,9,greenverival,p,51,21,female,2021-02-23_15h52.37.669,exp11,2020.2.6,MacIntel,60,,,,,,,,,,,
,,,,,,,,,,,,,,a,1,0.559,space,0.403,0,76,76,100,1,0_targ_1_dist_green/trial1.png,,,0,1,greenverival,a,51,21,female,2021-02-23_15h52.37.669,exp11,2020.2.6,MacIntel,60,,,,,,,,,,,
,,,,,,,,,,,,,,a,1,0.627,space,0.336,0,77,77,124,1,0_targ_1_dist_green/trial25.png,,,0,1,greenverival,a,51,21,female,2021-02-23_15h52.37.669,exp11,2020.2.6,MacIntel,60,,,,,,,,,,,
,,,,,,,,,,,,,,a,1,0.678,space,0.302,0,78,78,144,1,0_targ_4_dist_green/trial20.png,,,0,4,greenverival,a,51,21,female,2021-02-23_15h52.37.669,exp11,2020.2.6,MacIntel,60,,,,,,,,,,,
,,,,,,,,,,,,,,a,1,0.573,space,0.276,0,79,79,130,1,0_targ_4_dist_green/trial6.png,,,0,4,greenverival,a,51,21,female,2021-02-23_15h52.37.669,exp11,2020.2.6,MacIntel,60,,,,,,,,,,,
,,,,,,,,,,,,,,a,1,0.844,space,0.269,0,80,80,156,1,0_targ_10_dist_green/trial7.png,,,0,10,greenverival,a,51,21,female,2021-02-23_15h52.37.669,exp11,2020.2.6,MacIntel,60,,,,,,,,,,,
,,,,,,,,,,,,,,a,1,0.747,space,0.3,0,81,81,174,1,0_targ_10_dist_green/trial25.png,,,0,10,greenverival,a,51,21,female,2021-02-23_15h52.37.669,exp11,2020.2.6,MacIntel,60,,,,,,,,,,,
,,,,,,,,,,,,,,a,1,0.606,space,0.267,0,82,82,151,1,0_targ_10_dist_green/trial2.png,,,0,10,greenverival,a,51,21,female,2021-02-23_15h52.37.669,exp11,2020.2.6,MacIntel,60,,,,,,,,,,,
,,,,,,,,,,,,,,p,1,1.206,space,0.334,0,83,83,77,1,15_dist_green/trial3.png,,,1,15,greenverival,p,51,21,female,2021-02-23_15h52.37.669,exp11,2020.2.6,MacIntel,60,,,,,,,,,,,
,,,,,,,,,,,,,,p,1,0.63,space,0.317,0,84,84,45,1,3_dist_green/trial21.png,,,1,3,greenverival,p,51,21,female,2021-02-23_15h52.37.669,exp11,2020.2.6,MacIntel,60,,,,,,,,,,,
,,,,,,,,,,,,,,a,1,0.773,space,0.273,0,85,85,171,1,0_targ_10_dist_green/trial22.png,,,0,10,greenverival,a,51,21,female,2021-02-23_15h52.37.669,exp11,2020.2.6,MacIntel,60,,,,,,,,,,,
,,,,,,,,,,,,,,a,1,0.739,space,0.258,0,86,86,148,1,0_targ_4_dist_green/trial24.png,,,0,4,greenverival,a,51,21,female,2021-02-23_15h52.37.669,exp11,2020.2.6,MacIntel,60,,,,,,,,,,,
,,,,,,,,,,,,,,p,1,0.946,space,0.257,0,87,87,28,1,3_dist_green/trial4.png,,,1,3,greenverival,p,51,21,female,2021-02-23_15h52.37.669,exp11,2020.2.6,MacIntel,60,,,,,,,,,,,
,,,,,,,,,,,,,,a,1,2.061,space,0.286,0,88,88,194,1,0_targ_16_dist_green/trial20.png,,,0,16,greenverival,a,51,21,female,2021-02-23_15h52.37.669,exp11,2020.2.6,MacIntel,60,,,,,,,,,,,
,,,,,,,,,,,,,,p,1,0.855,space,0.234,0,89,89,82,1,15_dist_green/trial8.png,,,1,15,greenverival,p,51,21,female,2021-02-23_15h52.37.669,exp11,2020.2.6,MacIntel,60,,,,,,,,,,,
,,,,,,,,,,,,,,p,1,0.858,space,0.174,0,90,90,85,1,15_dist_green/trial11.png,,,1,15,greenverival,p,51,21,female,2021-02-23_15h52.37.669,exp11,2020.2.6,MacIntel,60,,,,,,,,,,,
,,,,,,,,,,,,,,a,1,0.625,space,0.251,0,91,91,118,1,0_targ_1_dist_green/trial19.png,,,0,1,greenverival,a,51,21,female,2021-02-23_15h52.37.669,exp11,2020.2.6,MacIntel,60,,,,,,,,,,,
,,,,,,,,,,,,,,p,1,0.627,space,0.117,0,92,92,52,1,9_dist_green/trial3.png,,,1,9,greenverival,p,51,21,female,2021-02-23_15h52.37.669,exp11,2020.2.6,MacIntel,60,,,,,,,,,,,
,,,,,,,,,,,,,,p,1,0.739,space,0.093,0,93,93,53,1,9_dist_green/trial4.png,,,1,9,greenverival,p,51,21,female,2021-02-23_15h52.37.669,exp11,2020.2.6,MacIntel,60,,,,,,,,,,,
,,,,,,,,,,,,,,p,1,0.88,space,0.073,0,94,94,96,1,15_dist_green/trial22.png,,,1,15,greenverival,p,51,21,female,2021-02-23_15h52.37.669,exp11,2020.2.6,MacIntel,60,,,,,,,,,,,
,,,,,,,,,,,,,,a,1,0.964,space,0.261,0,95,95,153,1,0_targ_10_dist_green/trial4.png,,,0,10,greenverival,a,51,21,female,2021-02-23_15h52.37.669,exp11,2020.2.6,MacIntel,60,,,,,,,,,,,
,,,,,,,,,,,,,,p,1,0.949,space,0.126,0,96,96,79,1,15_dist_green/trial5.png,,,1,15,greenverival,p,51,21,female,2021-02-23_15h52.37.669,exp11,2020.2.6,MacIntel,60,,,,,,,,,,,
,,,,,,,,,,,,,,p,1,0.658,space,0.34,0,97,97,26,1,3_dist_green/trial2.png,,,1,3,greenverival,p,51,21,female,2021-02-23_15h52.37.669,exp11,2020.2.6,MacIntel,60,,,,,,,,,,,
,,,,,,,,,,,,,,a,1,0.834,space,0.486,0,98,98,137,1,0_targ_4_dist_green/trial13.png,,,0,4,greenverival,a,51,21,female,2021-02-23_15h52.37.669,exp11,2020.2.6,MacIntel,60,,,,,,,,,,,
,,,,,,,,,,,,,,a,1,0.993,space,0.252,0,99,99,196,1,0_targ_16_dist_green/trial22.png,,,0,16,greenverival,a,51,21,female,2021-02-23_15h52.37.669,exp11,2020.2.6,MacIntel,60,,,,,,,,,,,
,,,,,,,,,,,,,,a,1,0.774,space,0.21,0,100,100,161,1,0_targ_10_dist_green/trial12.png,,,0,10,greenverival,a,51,21,female,2021-02-23_15h52.37.669,exp11,2020.2.6,MacIntel,60,,,,,,,,,,,
,,,,,,,,,,,,,,p,1,0.644,space,0.158,0,101,101,94,1,15_dist_green/trial20.png,,,1,15,greenverival,p,51,21,female,2021-02-23_15h52.37.669,exp11,2020.2.6,MacIntel,60,,,,,,,,,,,
,,,,,,,,,,,,,,p,1,0.613,space,0.142,0,102,102,0,1,0_dist_green/trial1.png,,,1,0,greenverival,p,51,21,female,2021-02-23_15h52.37.669,exp11,2020.2.6,MacIntel,60,,,,,,,,,,,
,,,,,,,,,,,,,,a,1,0.681,space,0.237,0,103,103,104,1,0_targ_1_dist_green/trial5.png,,,0,1,greenverival,a,51,21,female,2021-02-23_15h52.37.669,exp11,2020.2.6,MacIntel,60,,,,,,,,,,,
,,,,,,,,,,,,,,a,1,1.782,space,0.319,0,104,104,157,1,0_targ_10_dist_green/trial8.png,,,0,10,greenverival,a,51,21,female,2021-02-23_15h52.37.669,exp11,2020.2.6,MacIntel,60,,,,,,,,,,,
,,,,,,,,,,,,,,p,1,0.613,space,0.218,0,105,105,32,1,3_dist_green/trial8.png,,,1,3,greenverival,p,51,21,female,2021-02-23_15h52.37.669,exp11,2020.2.6,MacIntel,60,,,,,,,,,,,
,,,,,,,,,,,,,,a,1,0.645,space,0.242,0,106,106,115,1,0_targ_1_dist_green/trial6.png,,,0,1,greenverival,a,51,21,female,2021-02-23_15h52.37.669,exp11,2020.2.6,MacIntel,60,,,,,,,,,,,
,,,,,,,,,,,,,,p,1,0.631,space,0.202,0,107,107,50,1,9_dist_green/trial1.png,,,1,9,greenverival,p,51,21,female,2021-02-23_15h52.37.669,exp11,2020.2.6,MacIntel,60,,,,,,,,,,,
,,,,,,,,,,,,,,p,1,0.529,space,0.245,0,108,108,4,1,0_dist_green/trial5.png,,,1,0,greenverival,p,51,21,female,2021-02-23_15h52.37.669,exp11,2020.2.6,MacIntel,60,,,,,,,,,,,
,,,,,,,,,,,,,,a,1,0.907,space,0.323,0,109,109,164,1,0_targ_10_dist_green/trial15.png,,,0,10,greenverival,a,51,21,female,2021-02-23_15h52.37.669,exp11,2020.2.6,MacIntel,60,,,,,,,,,,,
,,,,,,,,,,,,,,a,1,0.82,space,0.3,0,110,110,111,1,0_targ_1_dist_green/trial12.png,,,0,1,greenverival,a,51,21,female,2021-02-23_15h52.37.669,exp11,2020.2.6,MacIntel,60,,,,,,,,,,,
,,,,,,,,,,,,,,p,1,0.679,space,0.24,0,111,111,66,1,9_dist_green/trial17.png,,,1,9,greenverival,p,51,21,female,2021-02-23_15h52.37.669,exp11,2020.2.6,MacIntel,60,,,,,,,,,,,
,,,,,,,,,,,,,,a,1,0.806,space,0.284,0,112,112,154,1,0_targ_10_dist_green/trial5.png,,,0,10,greenverival,a,51,21,female,2021-02-23_15h52.37.669,exp11,2020.2.6,MacIntel,60,,,,,,,,,,,
,,,,,,,,,,,,,,p,1,1.049,space,0.201,0,113,113,73,1,9_dist_green/trial24.png,,,1,9,greenverival,p,51,21,female,2021-02-23_15h52.37.669,exp11,2020.2.6,MacIntel,60,,,,,,,,,,,
,,,,,,,,,,,,,,p,1,1.362,space,0.976,0,114,114,56,1,9_dist_green/trial7.png,,,1,9,greenverival,p,51,21,female,2021-02-23_15h52.37.669,exp11,2020.2.6,MacIntel,60,,,,,,,,,,,
,,,,,,,,,,,,,,p,1,0.539,space,0.153,0,115,115,87,1,15_dist_green/trial13.png,,,1,15,greenverival,p,51,21,female,2021-02-23_15h52.37.669,exp11,2020.2.6,MacIntel,60,,,,,,,,,,,
,,,,,,,,,,,,,,p,1,0.793,space,0.174,0,116,116,78,1,15_dist_green/trial4.png,,,1,15,greenverival,p,51,21,female,2021-02-23_15h52.37.669,exp11,2020.2.6,MacIntel,60,,,,,,,,,,,
,,,,,,,,,,,,,,p,1,0.476,space,0.194,0,117,117,20,1,0_dist_green/trial21.png,,,1,0,greenverival,p,51,21,female,2021-02-23_15h52.37.669,exp11,2020.2.6,MacIntel,60,,,,,,,,,,,
,,,,,,,,,,,,,,p,1,0.592,space,0.201,0,118,118,74,1,9_dist_green/trial25.png,,,1,9,greenverival,p,51,21,female,2021-02-23_15h52.37.669,exp11,2020.2.6,MacIntel,60,,,,,,,,,,,
,,,,,,,,,,,,,,p,1,0.514,space,0.224,0,119,119,88,1,15_dist_green/trial14.png,,,1,15,greenverival,p,51,21,female,2021-02-23_15h52.37.669,exp11,2020.2.6,MacIntel,60,,,,,,,,,,,
,,,,,,,,,,,,,,a,1,0.828,space,0.268,0,120,120,190,1,0_targ_16_dist_green/trial16.png,,,0,16,greenverival,a,51,21,female,2021-02-23_15h52.37.669,exp11,2020.2.6,MacIntel,60,,,,,,,,,,,
,,,,,,,,,,,,,,a,1,0.821,space,0.29,0,121,121,178,1,0_targ_16_dist_green/trial4.png,,,0,16,greenverival,a,51,21,female,2021-02-23_15h52.37.669,exp11,2020.2.6,MacIntel,60,,,,,,,,,,,
,,,,,,,,,,,,,,p,1,0.593,space,0.309,0,122,122,97,1,15_dist_green/trial23.png,,,1,15,greenverival,p,51,21,female,2021-02-23_15h52.37.669,exp11,2020.2.6,MacIntel,60,,,,,,,,,,,
,,,,,,,,,,,,,,a,1,0.69,space,0.249,0,123,123,103,1,0_targ_1_dist_green/trial4.png,,,0,1,greenverival,a,51,21,female,2021-02-23_15h52.37.669,exp11,2020.2.6,MacIntel,60,,,,,,,,,,,
,,,,,,,,,,,,,,p,1,0.577,space,0.268,0,124,124,47,1,3_dist_green/trial23.png,,,1,3,greenverival,p,51,21,female,2021-02-23_15h52.37.669,exp11,2020.2.6,MacIntel,60,,,,,,,,,,,
,,,,,,,,,,,,,,p,1,0.95,space,0.291,0,125,125,63,1,9_dist_green/trial14.png,,,1,9,greenverival,p,51,21,female,2021-02-23_15h52.37.669,exp11,2020.2.6,MacIntel,60,,,,,,,,,,,
,,,,,,,,,,,,,,p,1,0.459,space,0.218,0,126,126,14,1,0_dist_green/trial15.png,,,1,0,greenverival,p,51,21,female,2021-02-23_15h52.37.669,exp11,2020.2.6,MacIntel,60,,,,,,,,,,,
,,,,,,,,,,,,,,p,1,0.394,space,0.285,0,127,127,24,1,0_dist_green/trial25.png,,,1,0,greenverival,p,51,21,female,2021-02-23_15h52.37.669,exp11,2020.2.6,MacIntel,60,,,,,,,,,,,
,,,,,,,,,,,,,,a,1,0.514,space,0.31,0,128,128,132,1,0_targ_4_dist_green/trial8.png,,,0,4,greenverival,a,51,21,female,2021-02-23_15h52.37.669,exp11,2020.2.6,MacIntel,60,,,,,,,,,,,
,,,,,,,,,,,,,,a,1,0.627,space,0.353,0,129,129,122,1,0_targ_1_dist_green/trial23.png,,,0,1,greenverival,a,51,21,female,2021-02-23_15h52.37.669,exp11,2020.2.6,MacIntel,60,,,,,,,,,,,
,,,,,,,,,,,,,,p,1,0.645,space,0.302,0,130,130,34,1,3_dist_green/trial10.png,,,1,3,greenverival,p,51,21,female,2021-02-23_15h52.37.669,exp11,2020.2.6,MacIntel,60,,,,,,,,,,,
,,,,,,,,,,,,,,p,1,0.799,space,0.223,0,131,131,92,1,15_dist_green/trial18.png,,,1,15,greenverival,p,51,21,female,2021-02-23_15h52.37.669,exp11,2020.2.6,MacIntel,60,,,,,,,,,,,
,,,,,,,,,,,,,,a,1,0.595,space,0.355,0,132,132,121,1,0_targ_1_dist_green/trial22.png,,,0,1,greenverival,a,51,21,female,2021-02-23_15h52.37.669,exp11,2020.2.6,MacIntel,60,,,,,,,,,,,
,,,,,,,,,,,,,,p,1,0.475,space,0.319,0,133,133,8,1,0_dist_green/trial9.png,,,1,0,greenverival,p,51,21,female,2021-02-23_15h52.37.669,exp11,2020.2.6,MacIntel,60,,,,,,,,,,,
,,,,,,,,,,,,,,p,1,0.647,space,0.342,0,134,134,19,1,0_dist_green/trial20.png,,,1,0,greenverival,p,51,21,female,2021-02-23_15h52.37.669,exp11,2020.2.6,MacIntel,60,,,,,,,,,,,
,,,,,,,,,,,,,,p,1,0.88,space,0.334,0,135,135,58,1,9_dist_green/trial9.png,,,1,9,greenverival,p,51,21,female,2021-02-23_15h52.37.669,exp11,2020.2.6,MacIntel,60,,,,,,,,,,,
,,,,,,,,,,,,,,a,1,0.689,space,0.306,0,136,136,128,1,0_targ_4_dist_green/trial4.png,,,0,4,greenverival,a,51,21,female,2021-02-23_15h52.37.669,exp11,2020.2.6,MacIntel,60,,,,,,,,,,,
,,,,,,,,,,,,,,p,1,0.667,space,0.351,0,137,137,13,1,0_dist_green/trial14.png,,,1,0,greenverival,p,51,21,female,2021-02-23_15h52.37.669,exp11,2020.2.6,MacIntel,60,,,,,,,,,,,
,,,,,,,,,,,,,,a,1,0.755,space,0.286,0,138,138,149,1,0_targ_4_dist_green/trial25.png,,,0,4,greenverival,a,51,21,female,2021-02-23_15h52.37.669,exp11,2020.2.6,MacIntel,60,,,,,,,,,,,
,,,,,,,,,,,,,,a,1,1.06,space,0.318,0,139,139,198,1,0_targ_16_dist_green/trial24.png,,,0,16,greenverival,a,51,21,female,2021-02-23_15h52.37.669,exp11,2020.2.6,MacIntel,60,,,,,,,,,,,
,,,,,,,,,,,,,,a,1,0.626,space,0.285,0,140,140,139,1,0_targ_4_dist_green/trial15.png,,,0,4,greenverival,a,51,21,female,2021-02-23_15h52.37.669,exp11,2020.2.6,MacIntel,60,,,,,,,,,,,
,,,,,,,,,,,,,,a,1,0.78,space,0.318,0,141,141,176,1,0_targ_16_dist_green/trial2.png,,,0,16,greenverival,a,51,21,female,2021-02-23_15h52.37.669,exp11,2020.2.6,MacIntel,60,,,,,,,,,,,
,,,,,,,,,,,,,,a,1,0.645,space,0.374,0,142,142,145,1,0_targ_4_dist_green/trial21.png,,,0,4,greenverival,a,51,21,female,2021-02-23_15h52.37.669,exp11,2020.2.6,MacIntel,60,,,,,,,,,,,
,,,,,,,,,,,,,,p,1,0.647,space,0.203,0,143,143,38,1,3_dist_green/trial14.png,,,1,3,greenverival,p,51,21,female,2021-02-23_15h52.37.669,exp11,2020.2.6,MacIntel,60,,,,,,,,,,,
,,,,,,,,,,,,,,p,1,1.379,space,0.151,0,144,144,99,1,15_dist_green/trial25.png,,,1,15,greenverival,p,51,21,female,2021-02-23_15h52.37.669,exp11,2020.2.6,MacIntel,60,,,,,,,,,,,
,,,,,,,,,,,,,,a,0,0.879,space,7.192,0,145,145,30,1,3_dist_green/trial6.png,,,1,3,greenverival,p,51,21,female,2021-02-23_15h52.37.669,exp11,2020.2.6,MacIntel,60,,,,,,,,,,,
,,,,,,,,,,,,,,p,1,0.578,space,0.124,0,146,146,39,1,3_dist_green/trial15.png,,,1,3,greenverival,p,51,21,female,2021-02-23_15h52.37.669,exp11,2020.2.6,MacIntel,60,,,,,,,,,,,
,,,,,,,,,,,,,,p,1,0.606,space,0.125,0,147,147,23,1,0_dist_green/trial24.png,,,1,0,greenverival,p,51,21,female,2021-02-23_15h52.37.669,exp11,2020.2.6,MacIntel,60,,,,,,,,,,,
,,,,,,,,,,,,,,a,1,0.96,space,0.233,0,148,148,199,1,0_targ_16_dist_green/trial25.png,,,0,16,greenverival,a,51,21,female,2021-02-23_15h52.37.669,exp11,2020.2.6,MacIntel,60,,,,,,,,,,,
,,,,,,,,,,,,,,a,1,0.695,space,0.193,0,149,149,123,1,0_targ_1_dist_green/trial24.png,,,0,1,greenverival,a,51,21,female,2021-02-23_15h52.37.669,exp11,2020.2.6,MacIntel,60,,,,,,,,,,,
,,,,,,,,,,,,,,a,1,0.498,space,0.241,0,150,150,102,1,0_targ_1_dist_green/trial3.png,,,0,1,greenverival,a,51,21,female,2021-02-23_15h52.37.669,exp11,2020.2.6,MacIntel,60,,,,,,,,,,,
,,,,,,,,,,,,,,a,1,0.707,space,0.201,0,151,151,141,1,0_targ_4_dist_green/trial17.png,,,0,4,greenverival,a,51,21,female,2021-02-23_15h52.37.669,exp11,2020.2.6,MacIntel,60,,,,,,,,,,,
,,,,,,,,,,,,,,p,0,0.776,space,4.775,0,152,152,113,1,0_targ_1_dist_green/trial14.png,,,0,1,greenverival,a,51,21,female,2021-02-23_15h52.37.669,exp11,2020.2.6,MacIntel,60,,,,,,,,,,,
,,,,,,,,,,,,,,a,1,1.107,space,0.221,0,153,153,167,1,0_targ_10_dist_green/trial18.png,,,0,10,greenverival,a,51,21,female,2021-02-23_15h52.37.669,exp11,2020.2.6,MacIntel,60,,,,,,,,,,,
,,,,,,,,,,,,,,a,1,0.626,space,0.21,0,154,154,166,1,0_targ_10_dist_green/trial17.png,,,0,10,greenverival,a,51,21,female,2021-02-23_15h52.37.669,exp11,2020.2.6,MacIntel,60,,,,,,,,,,,
,,,,,,,,,,,,,,p,1,0.681,space,0.207,0,155,155,98,1,15_dist_green/trial24.png,,,1,15,greenverival,p,51,21,female,2021-02-23_15h52.37.669,exp11,2020.2.6,MacIntel,60,,,,,,,,,,,
,,,,,,,,,,,,,,a,1,0.844,space,0.194,0,156,156,158,1,0_targ_10_dist_green/trial9.png,,,0,10,greenverival,a,51,21,female,2021-02-23_15h52.37.669,exp11,2020.2.6,MacIntel,60,,,,,,,,,,,
,,,,,,,,,,,,,,a,1,0.931,space,0.309,0,157,157,114,1,0_targ_1_dist_green/trial15.png,,,0,1,greenverival,a,51,21,female,2021-02-23_15h52.37.669,exp11,2020.2.6,MacIntel,60,,,,,,,,,,,
,,,,,,,,,,,,,,p,1,0.63,space,0.186,0,158,158,9,1,0_dist_green/trial10.png,,,1,0,greenverival,p,51,21,female,2021-02-23_15h52.37.669,exp11,2020.2.6,MacIntel,60,,,,,,,,,,,
,,,,,,,,,,,,,,p,1,0.957,space,0.319,0,159,159,91,1,15_dist_green/trial17.png,,,1,15,greenverival,p,51,21,female,2021-02-23_15h52.37.669,exp11,2020.2.6,MacIntel,60,,,,,,,,,,,
,,,,,,,,,,,,,,a,1,0.781,space,0.286,0,160,160,181,1,0_targ_16_dist_green/trial7.png,,,0,16,greenverival,a,51,21,female,2021-02-23_15h52.37.669,exp11,2020.2.6,MacIntel,60,,,,,,,,,,,
,,,,,,,,,,,,,,p,1,0.81,space,0.258,0,161,161,62,1,9_dist_green/trial13.png,,,1,9,greenverival,p,51,21,female,2021-02-23_15h52.37.669,exp11,2020.2.6,MacIntel,60,,,,,,,,,,,
,,,,,,,,,,,,,,p,1,1.4,space,0.141,0,162,162,48,1,3_dist_green/trial24.png,,,1,3,greenverival,p,51,21,female,2021-02-23_15h52.37.669,exp11,2020.2.6,MacIntel,60,,,,,,,,,,,
,,,,,,,,,,,,,,p,1,0.755,space,0.709,0,163,163,12,1,0_dist_green/trial13.png,,,1,0,greenverival,p,51,21,female,2021-02-23_15h52.37.669,exp11,2020.2.6,MacIntel,60,,,,,,,,,,,
,,,,,,,,,,,,,,p,1,0.673,space,0.15,0,164,164,69,1,9_dist_green/trial20.png,,,1,9,greenverival,p,51,21,female,2021-02-23_15h52.37.669,exp11,2020.2.6,MacIntel,60,,,,,,,,,,,
,,,,,,,,,,,,,,a,1,0.896,space,0.292,0,165,165,116,1,0_targ_1_dist_green/trial17.png,,,0,1,greenverival,a,51,21,female,2021-02-23_15h52.37.669,exp11,2020.2.6,MacIntel,60,,,,,,,,,,,
,,,,,,,,,,,,,,p,1,0.71,space,0.249,0,166,166,71,1,9_dist_green/trial22.png,,,1,9,greenverival,p,51,21,female,2021-02-23_15h52.37.669,exp11,2020.2.6,MacIntel,60,,,,,,,,,,,
,,,,,,,,,,,,,,p,1,0.588,space,0.252,0,167,167,6,1,0_dist_green/trial7.png,,,1,0,greenverival,p,51,21,female,2021-02-23_15h52.37.669,exp11,2020.2.6,MacIntel,60,,,,,,,,,,,
,,,,,,,,,,,,,,a,1,0.925,space,0.273,0,168,168,150,1,0_targ_10_dist_green/trial1.png,,,0,10,greenverival,a,51,21,female,2021-02-23_15h52.37.669,exp11,2020.2.6,MacIntel,60,,,,,,,,,,,
,,,,,,,,,,,,,,p,1,0.843,space,0.234,0,169,169,80,1,15_dist_green/trial6.png,,,1,15,greenverival,p,51,21,female,2021-02-23_15h52.37.669,exp11,2020.2.6,MacIntel,60,,,,,,,,,,,
,,,,,,,,,,,,,,p,1,0.63,space,0.355,0,170,170,55,1,9_dist_green/trial6.png,,,1,9,greenverival,p,51,21,female,2021-02-23_15h52.37.669,exp11,2020.2.6,MacIntel,60,,,,,,,,,,,
,,,,,,,,,,,,,,a,1,0.776,space,0.318,0,171,171,105,1,0_targ_1_dist_green/trial6.png,,,0,1,greenverival,a,51,21,female,2021-02-23_15h52.37.669,exp11,2020.2.6,MacIntel,60,,,,,,,,,,,
,,,,,,,,,,,,,,a,1,0.755,space,0.383,0,172,172,126,1,0_targ_4_dist_green/trial2.png,,,0,4,greenverival,a,51,21,female,2021-02-23_15h52.37.669,exp11,2020.2.6,MacIntel,60,,,,,,,,,,,
,,,,,,,,,,,,,,p,1,0.555,space,0.217,0,173,173,67,1,9_dist_green/trial18.png,,,1,9,greenverival,p,51,21,female,2021-02-23_15h52.37.669,exp11,2020.2.6,MacIntel,60,,,,,,,,,,,
,,,,,,,,,,,,,,a,1,1.747,space,0.321,0,174,174,187,1,0_targ_16_dist_green/trial13.png,,,0,16,greenverival,a,51,21,female,2021-02-23_15h52.37.669,exp11,2020.2.6,MacIntel,60,,,,,,,,,,,
,,,,,,,,,,,,,,a,1,0.741,space,0.273,0,175,175,179,1,0_targ_16_dist_green/trial5.png,,,0,16,greenverival,a,51,21,female,2021-02-23_15h52.37.669,exp11,2020.2.6,MacIntel,60,,,,,,,,,,,
,,,,,,,,,,,,,,p,1,0.528,space,0.226,0,176,176,21,1,0_dist_green/trial22.png,,,1,0,greenverival,p,51,21,female,2021-02-23_15h52.37.669,exp11,2020.2.6,MacIntel,60,,,,,,,,,,,
,,,,,,,,,,,,,,p,1,0.766,space,0.253,0,177,177,11,1,0_dist_green/trial12.png,,,1,0,greenverival,p,51,21,female,2021-02-23_15h52.37.669,exp11,2020.2.6,MacIntel,60,,,,,,,,,,,
,,,,,,,,,,,,,,a,1,0.678,space,0.276,0,178,178,138,1,0_targ_4_dist_green/trial14.png,,,0,4,greenverival,a,51,21,female,2021-02-23_15h52.37.669,exp11,2020.2.6,MacIntel,60,,,,,,,,,,,
,,,,,,,,,,,,,,p,1,0.898,space,0.218,0,179,179,90,1,15_dist_green/trial16.png,,,1,15,greenverival,p,51,21,female,2021-02-23_15h52.37.669,exp11,2020.2.6,MacIntel,60,,,,,,,,,,,
,,,,,,,,,,,,,,a,1,1.063,space,0.226,0,180,180,189,1,0_targ_16_dist_green/trial15.png,,,0,16,greenverival,a,51,21,female,2021-02-23_15h52.37.669,exp11,2020.2.6,MacIntel,60,,,,,,,,,,,
,,,,,,,,,,,,,,a,0,0.948,space,3.504,0,181,181,95,1,15_dist_green/trial21.png,,,1,15,greenverival,p,51,21,female,2021-02-23_15h52.37.669,exp11,2020.2.6,MacIntel,60,,,,,,,,,,,
,,,,,,,,,,,,,,a,1,0.672,space,0.277,0,182,182,131,1,0_targ_4_dist_green/trial7.png,,,0,4,greenverival,a,51,21,female,2021-02-23_15h52.37.669,exp11,2020.2.6,MacIntel,60,,,,,,,,,,,
,,,,,,,,,,,,,,a,1,0.789,space,0.292,0,183,183,134,1,0_targ_4_dist_green/trial10.png,,,0,4,greenverival,a,51,21,female,2021-02-23_15h52.37.669,exp11,2020.2.6,MacIntel,60,,,,,,,,,,,
,,,,,,,,,,,,,,p,1,0.662,space,0.177,0,184,184,68,1,9_dist_green/trial19.png,,,1,9,greenverival,p,51,21,female,2021-02-23_15h52.37.669,exp11,2020.2.6,MacIntel,60,,,,,,,,,,,
,,,,,,,,,,,,,,a,1,0.741,space,0.289,0,185,185,110,1,0_targ_1_dist_green/trial11.png,,,0,1,greenverival,a,51,21,female,2021-02-23_15h52.37.669,exp11,2020.2.6,MacIntel,60,,,,,,,,,,,
,,,,,,,,,,,,,,p,1,0.581,space,0.234,0,186,186,15,1,0_dist_green/trial16.png,,,1,0,greenverival,p,51,21,female,2021-02-23_15h52.37.669,exp11,2020.2.6,MacIntel,60,,,,,,,,,,,
,,,,,,,,,,,,,,a,1,0.607,space,0.268,0,187,187,127,1,0_targ_4_dist_green/trial3.png,,,0,4,greenverival,a,51,21,female,2021-02-23_15h52.37.669,exp11,2020.2.6,MacIntel,60,,,,,,,,,,,
,,,,,,,,,,,,,,p,1,0.88,space,0.226,0,188,188,57,1,9_dist_green/trial8.png,,,1,9,greenverival,p,51,21,female,2021-02-23_15h52.37.669,exp11,2020.2.6,MacIntel,60,,,,,,,,,,,
,,,,,,,,,,,,,,p,1,0.814,space,0.31,0,189,189,2,1,0_dist_green/trial3.png,,,1,0,greenverival,p,51,21,female,2021-02-23_15h52.37.669,exp11,2020.2.6,MacIntel,60,,,,,,,,,,,
,,,,,,,,,,,,,,p,1,0.846,space,4.237,0,190,190,93,1,15_dist_green/trial19.png,,,1,15,greenverival,p,51,21,female,2021-02-23_15h52.37.669,exp11,2020.2.6,MacIntel,60,,,,,,,,,,,
,,,,,,,,,,,,,,a,1,1.023,space,0.303,0,191,191,184,1,0_targ_16_dist_green/trial10.png,,,0,16,greenverival,a,51,21,female,2021-02-23_15h52.37.669,exp11,2020.2.6,MacIntel,60,,,,,,,,,,,
,,,,,,,,,,,,,,p,1,0.54,space,0.119,0,192,192,37,1,3_dist_green/trial13.png,,,1,3,greenverival,p,51,21,female,2021-02-23_15h52.37.669,exp11,2020.2.6,MacIntel,60,,,,,,,,,,,
,,,,,,,,,,,,,,a,1,0.829,space,0.178,0,193,193,186,1,0_targ_16_dist_green/trial12.png,,,0,16,greenverival,a,51,21,female,2021-02-23_15h52.37.669,exp11,2020.2.6,MacIntel,60,,,,,,,,,,,
,,,,,,,,,,,,,,p,1,0.574,space,0.127,0,194,194,49,1,3_dist_green/trial25.png,,,1,3,greenverival,p,51,21,female,2021-02-23_15h52.37.669,exp11,2020.2.6,MacIntel,60,,,,,,,,,,,
,,,,,,,,,,,,,,p,1,0.541,space,0.143,0,195,195,10,1,0_dist_green/trial11.png,,,1,0,greenverival,p,51,21,female,2021-02-23_15h52.37.669,exp11,2020.2.6,MacIntel,60,,,,,,,,,,,
,,,,,,,,,,,,,,p,1,0.591,space,0.15,0,196,196,7,1,0_dist_green/trial8.png,,,1,0,greenverival,p,51,21,female,2021-02-23_15h52.37.669,exp11,2020.2.6,MacIntel,60,,,,,,,,,,,
,,,,,,,,,,,,,,a,1,0.897,space,0.26,0,197,197,185,1,0_targ_16_dist_green/trial11.png,,,0,16,greenverival,a,51,21,female,2021-02-23_15h52.37.669,exp11,2020.2.6,MacIntel,60,,,,,,,,,,,
,,,,,,,,,,,,,,a,1,0.973,space,0.218,0,198,198,162,1,0_targ_10_dist_green/trial13.png,,,0,10,greenverival,a,51,21,female,2021-02-23_15h52.37.669,exp11,2020.2.6,MacIntel,60,,,,,,,,,,,
,,,,,,,,,,,,,,a,1,0.74,space,0.252,0,199,199,125,1,0_targ_4_dist_green/trial1.png,,,0,4,greenverival,a,51,21,female,2021-02-23_15h52.37.669,exp11,2020.2.6,MacIntel,60,,,,,,,,,,,
,,,,,,,,,,,,,,,,,,,,,,,,,,,,,,,51,21,female,2021-02-23_15h52.37.669,exp11,2020.2.6,MacIntel,60,0,0,0,0,1,conGreen.xlsx,green vertical,Look for green vertical bar (target) and indicate if it is present or absent in the array. If green vertical target is present press 'p' and if absent press 'a'. Press SPACE to start.,,,
,,,,,,,,,,space,38.344,space,2.397,a,1,0.904,space,0.633,0,0,0,116,1,0_targ_1_dist_red/trial17.png,,,0,1,redHorizontal,a,51,21,female,2021-02-23_15h52.37.669,exp11,2020.2.6,MacIntel,60,,,,,,,,,,,
,,,,,,,,,,,,,,a,1,0.824,space,0.29,0,1,1,120,1,0_targ_1_dist_red/trial21.png,,,0,1,redHorizontal,a,51,21,female,2021-02-23_15h52.37.669,exp11,2020.2.6,MacIntel,60,,,,,,,,,,,
,,,,,,,,,,,,,,a,0,1.045,space,3.659,0,2,2,92,1,15_dist_red/trial18.png,,,1,15,redHorizontal,p,51,21,female,2021-02-23_15h52.37.669,exp11,2020.2.6,MacIntel,60,,,,,,,,,,,
,,,,,,,,,,,,,,p,1,0.975,space,0.314,0,3,3,4,1,0_dist_red/trial5.png,,,1,0,redHorizontal,p,51,21,female,2021-02-23_15h52.37.669,exp11,2020.2.6,MacIntel,60,,,,,,,,,,,
,,,,,,,,,,,,,,a,1,0.611,space,0.241,0,4,4,112,1,0_targ_1_dist_red/trial13.png,,,0,1,redHorizontal,a,51,21,female,2021-02-23_15h52.37.669,exp11,2020.2.6,MacIntel,60,,,,,,,,,,,
,,,,,,,,,,,,,,a,1,0.893,space,0.179,0,5,5,153,1,0_targ_10_dist_red/trial4.png,,,0,10,redHorizontal,a,51,21,female,2021-02-23_15h52.37.669,exp11,2020.2.6,MacIntel,60,,,,,,,,,,,
,,,,,,,,,,,,,,a,1,0.758,space,0.184,0,6,6,172,1,0_targ_10_dist_red/trial23.png,,,0,10,redHorizontal,a,51,21,female,2021-02-23_15h52.37.669,exp11,2020.2.6,MacIntel,60,,,,,,,,,,,
,,,,,,,,,,,,,,a,1,0.841,space,0.175,0,7,7,170,1,0_targ_10_dist_red/trial21.png,,,0,10,redHorizontal,a,51,21,female,2021-02-23_15h52.37.669,exp11,2020.2.6,MacIntel,60,,,,,,,,,,,
,,,,,,,,,,,,,,a,1,0.616,space,0.204,0,8,8,107,1,0_targ_1_dist_red/trial8.png,,,0,1,redHorizontal,a,51,21,female,2021-02-23_15h52.37.669,exp11,2020.2.6,MacIntel,60,,,,,,,,,,,
,,,,,,,,,,,,,,a,1,0.708,space,0.218,0,9,9,147,1,0_targ_4_dist_red/trial23.png,,,0,4,redHorizontal,a,51,21,female,2021-02-23_15h52.37.669,exp11,2020.2.6,MacIntel,60,,,,,,,,,,,
,,,,,,,,,,,,,,a,1,0.508,space,0.256,0,10,10,103,1,0_targ_1_dist_red/trial4.png,,,0,1,redHorizontal,a,51,21,female,2021-02-23_15h52.37.669,exp11,2020.2.6,MacIntel,60,,,,,,,,,,,
,,,,,,,,,,,,,,p,1,1.1,space,0.272,0,11,11,80,1,15_dist_red/trial6.png,,,1,15,redHorizontal,p,51,21,female,2021-02-23_15h52.37.669,exp11,2020.2.6,MacIntel,60,,,,,,,,,,,
,,,,,,,,,,,,,,a,1,0.641,space,0.206,0,12,12,162,1,0_targ_10_dist_red/trial13.png,,,0,10,redHorizontal,a,51,21,female,2021-02-23_15h52.37.669,exp11,2020.2.6,MacIntel,60,,,,,,,,,,,
,,,,,,,,,,,,,,p,1,0.558,space,0.269,0,13,13,9,1,0_dist_red/trial10.png,,,1,0,redHorizontal,p,51,21,female,2021-02-23_15h52.37.669,exp11,2020.2.6,MacIntel,60,,,,,,,,,,,
,,,,,,,,,,,,,,a,1,0.542,space,0.209,0,14,14,113,1,0_targ_1_dist_red/trial14.png,,,0,1,redHorizontal,a,51,21,female,2021-02-23_15h52.37.669,exp11,2020.2.6,MacIntel,60,,,,,,,,,,,
,,,,,,,,,,,,,,p,1,0.975,space,0.192,0,15,15,64,1,9_dist_red/trial15.png,,,1,9,redHorizontal,p,51,21,female,2021-02-23_15h52.37.669,exp11,2020.2.6,MacIntel,60,,,,,,,,,,,
,,,,,,,,,,,,,,p,1,0.625,space,0.284,0,16,16,46,1,3_dist_red/trial22.png,,,1,3,redHorizontal,p,51,21,female,2021-02-23_15h52.37.669,exp11,2020.2.6,MacIntel,60,,,,,,,,,,,
,,,,,,,,,,,,,,a,1,0.558,space,0.22,0,17,17,108,1,0_targ_1_dist_red/trial9.png,,,0,1,redHorizontal,a,51,21,female,2021-02-23_15h52.37.669,exp11,2020.2.6,MacIntel,60,,,,,,,,,,,
,,,,,,,,,,,,,,a,1,0.606,space,0.194,0,18,18,115,1,0_targ_1_dist_red/trial6.png,,,0,1,redHorizontal,a,51,21,female,2021-02-23_15h52.37.669,exp11,2020.2.6,MacIntel,60,,,,,,,,,,,
,,,,,,,,,,,,,,a,1,0.648,space,0.243,0,19,19,140,1,0_targ_4_dist_red/trial6.png,,,0,4,redHorizontal,a,51,21,female,2021-02-23_15h52.37.669,exp11,2020.2.6,MacIntel,60,,,,,,,,,,,
,,,,,,,,,,,,,,a,1,1.055,space,0.184,0,20,20,122,1,0_targ_1_dist_red/trial23.png,,,0,1,redHorizontal,a,51,21,female,2021-02-23_15h52.37.669,exp11,2020.2.6,MacIntel,60,,,,,,,,,,,
,,,,,,,,,,,,,,p,1,1.209,space,0.392,0,21,21,43,1,3_dist_red/trial19.png,,,1,3,redHorizontal,p,51,21,female,2021-02-23_15h52.37.669,exp11,2020.2.6,MacIntel,60,,,,,,,,,,,
,,,,,,,,,,,,,,p,1,0.692,space,0.267,0,22,22,86,1,15_dist_red/trial12.png,,,1,15,redHorizontal,p,51,21,female,2021-02-23_15h52.37.669,exp11,2020.2.6,MacIntel,60,,,,,,,,,,,
,,,,,,,,,,,,,,p,1,0.507,space,0.304,0,23,23,20,1,0_dist_red/trial21.png,,,1,0,redHorizontal,p,51,21,female,2021-02-23_15h52.37.669,exp11,2020.2.6,MacIntel,60,,,,,,,,,,,
,,,,,,,,,,,,,,p,1,0.549,space,0.269,0,24,24,65,1,9_dist_red/trial16.png,,,1,9,redHorizontal,p,51,21,female,2021-02-23_15h52.37.669,exp11,2020.2.6,MacIntel,60,,,,,,,,,,,
,,,,,,,,,,,,,,p,1,0.556,space,0.243,0,25,25,61,1,9_dist_red/trial12.png,,,1,9,redHorizontal,p,51,21,female,2021-02-23_15h52.37.669,exp11,2020.2.6,MacIntel,60,,,,,,,,,,,
,,,,,,,,,,,,,,p,1,0.513,space,0.29,0,26,26,23,1,0_dist_red/trial24.png,,,1,0,redHorizontal,p,51,21,female,2021-02-23_15h52.37.669,exp11,2020.2.6,MacIntel,60,,,,,,,,,,,
,,,,,,,,,,,,,,a,1,0.662,space,0.254,0,27,27,104,1,0_targ_1_dist_red/trial5.png,,,0,1,redHorizontal,a,51,21,female,2021-02-23_15h52.37.669,exp11,2020.2.6,MacIntel,60,,,,,,,,,,,
,,,,,,,,,,,,,,a,1,0.605,space,0.253,0,28,28,126,1,0_targ_4_dist_red/trial2.png,,,0,4,redHorizontal,a,51,21,female,2021-02-23_15h52.37.669,exp11,2020.2.6,MacIntel,60,,,,,,,,,,,
,,,,,,,,,,,,,,a,1,1.337,space,0.206,0,29,29,198,1,0_targ_16_dist_red/trial24.png,,,0,16,redHorizontal,a,51,21,female,2021-02-23_15h52.37.669,exp11,2020.2.6,MacIntel,60,,,,,,,,,,,
,,,,,,,,,,,,,,a,1,0.909,space,0.302,0,30,30,151,1,0_targ_10_dist_red/trial2.png,,,0,10,redHorizontal,a,51,21,female,2021-02-23_15h52.37.669,exp11,2020.2.6,MacIntel,60,,,,,,,,,,,
,,,,,,,,,,,,,,a,1,0.556,space,0.207,0,31,31,152,1,0_targ_10_dist_red/trial3.png,,,0,10,redHorizontal,a,51,21,female,2021-02-23_15h52.37.669,exp11,2020.2.6,MacIntel,60,,,,,,,,,,,
,,,,,,,,,,,,,,p,1,0.778,space,0.316,0,32,32,15,1,0_dist_red/trial16.png,,,1,0,redHorizontal,p,51,21,female,2021-02-23_15h52.37.669,exp11,2020.2.6,MacIntel,60,,,,,,,,,,,
,,,,,,,,,,,,,,a,1,0.824,space,0.218,0,33,33,177,1,0_targ_16_dist_red/trial3.png,,,0,16,redHorizontal,a,51,21,female,2021-02-23_15h52.37.669,exp11,2020.2.6,MacIntel,60,,,,,,,,,,,
,,,,,,,,,,,,,,p,1,0.906,space,0.339,0,34,34,95,1,15_dist_red/trial21.png,,,1,15,redHorizontal,p,51,21,female,2021-02-23_15h52.37.669,exp11,2020.2.6,MacIntel,60,,,,,,,,,,,
,,,,,,,,,,,,,,a,1,0.815,space,0.277,0,35,35,183,1,0_targ_16_dist_red/trial9.png,,,0,16,redHorizontal,a,51,21,female,2021-02-23_15h52.37.669,exp11,2020.2.6,MacIntel,60,,,,,,,,,,,
,,,,,,,,,,,,,,a,1,1.175,space,0.225,0,36,36,191,1,0_targ_16_dist_red/trial17.png,,,0,16,redHorizontal,a,51,21,female,2021-02-23_15h52.37.669,exp11,2020.2.6,MacIntel,60,,,,,,,,,,,
,,,,,,,,,,,,,,a,1,0.591,space,0.222,0,37,37,181,1,0_targ_16_dist_red/trial7.png,,,0,16,redHorizontal,a,51,21,female,2021-02-23_15h52.37.669,exp11,2020.2.6,MacIntel,60,,,,,,,,,,,
,,,,,,,,,,,,,,p,1,0.857,space,0.27,0,38,38,72,1,9_dist_red/trial23.png,,,1,9,redHorizontal,p,51,21,female,2021-02-23_15h52.37.669,exp11,2020.2.6,MacIntel,60,,,,,,,,,,,
,,,,,,,,,,,,,,a,1,0.922,space,0.208,0,39,39,174,1,0_targ_10_dist_red/trial25.png,,,0,10,redHorizontal,a,51,21,female,2021-02-23_15h52.37.669,exp11,2020.2.6,MacIntel,60,,,,,,,,,,,
,,,,,,,,,,,,,,a,1,0.724,space,0.24,0,40,40,117,1,0_targ_1_dist_red/trial18.png,,,0,1,redHorizontal,a,51,21,female,2021-02-23_15h52.37.669,exp11,2020.2.6,MacIntel,60,,,,,,,,,,,
,,,,,,,,,,,,,,p,1,0.645,space,0.317,0,41,41,37,1,3_dist_red/trial13.png,,,1,3,redHorizontal,p,51,21,female,2021-02-23_15h52.37.669,exp11,2020.2.6,MacIntel,60,,,,,,,,,,,
,,,,,,,,,,,,,,a,1,0.745,space,0.2,0,42,42,145,1,0_targ_4_dist_red/trial21.png,,,0,4,redHorizontal,a,51,21,female,2021-02-23_15h52.37.669,exp11,2020.2.6,MacIntel,60,,,,,,,,,,,
,,,,,,,,,,,,,,a,1,0.727,space,0.219,0,43,43,134,1,0_targ_4_dist_red/trial10.png,,,0,4,redHorizontal,a,51,21,female,2021-02-23_15h52.37.669,exp11,2020.2.6,MacIntel,60,,,,,,,,,,,
,,,,,,,,,,,,,,a,1,0.672,space,0.172,0,44,44,163,1,0_targ_10_dist_red/trial14.png,,,0,10,redHorizontal,a,51,21,female,2021-02-23_15h52.37.669,exp11,2020.2.6,MacIntel,60,,,,,,,,,,,
,,,,,,,,,,,,,,p,1,1.361,space,0.244,0,45,45,79,1,15_dist_red/trial5.png,,,1,15,redHorizontal,p,51,21,female,2021-02-23_15h52.37.669,exp11,2020.2.6,MacIntel,60,,,,,,,,,,,
,,,,,,,,,,,,,,a,1,0.613,space,0.142,0,46,46,111,1,0_targ_1_dist_red/trial12.png,,,0,1,redHorizontal,a,51,21,female,2021-02-23_15h52.37.669,exp11,2020.2.6,MacIntel,60,,,,,,,,,,,
,,,,,,,,,,,,,,a,1,0.631,space,0.206,0,47,47,106,1,0_targ_1_dist_red/trial7.png,,,0,1,redHorizontal,a,51,21,female,2021-02-23_15h52.37.669,exp11,2020.2.6,MacIntel,60,,,,,,,,,,,
,,,,,,,,,,,,,,p,1,0.731,space,0.284,0,48,48,27,1,3_dist_red/trial3.png,,,1,3,redHorizontal,p,51,21,female,2021-02-23_15h52.37.669,exp11,2020.2.6,MacIntel,60,,,,,,,,,,,
,,,,,,,,,,,,,,a,0,0.861,space,4.06,0,49,49,73,1,9_dist_red/trial24.png,,,1,9,redHorizontal,p,51,21,female,2021-02-23_15h52.37.669,exp11,2020.2.6,MacIntel,60,,,,,,,,,,,
,,,,,,,,,,,,,,p,1,0.794,space,0.719,0,50,50,60,1,9_dist_red/trial11.png,,,1,9,redHorizontal,p,51,21,female,2021-02-23_15h52.37.669,exp11,2020.2.6,MacIntel,60,,,,,,,,,,,
,,,,,,,,,,,,,,p,1,0.49,space,0.242,0,51,51,0,1,0_dist_red/trial1.png,,,1,0,redHorizontal,p,51,21,female,2021-02-23_15h52.37.669,exp11,2020.2.6,MacIntel,60,,,,,,,,,,,
,,,,,,,,,,,,,,a,1,0.912,space,0.225,0,52,52,189,1,0_targ_16_dist_red/trial15.png,,,0,16,redHorizontal,a,51,21,female,2021-02-23_15h52.37.669,exp11,2020.2.6,MacIntel,60,,,,,,,,,,,
,,,,,,,,,,,,,,p,1,0.694,space,0.203,0,53,53,29,1,3_dist_red/trial5.png,,,1,3,redHorizontal,p,51,21,female,2021-02-23_15h52.37.669,exp11,2020.2.6,MacIntel,60,,,,,,,,,,,
,,,,,,,,,,,,,,a,1,0.723,space,0.203,0,54,54,199,1,0_targ_16_dist_red/trial25.png,,,0,16,redHorizontal,a,51,21,female,2021-02-23_15h52.37.669,exp11,2020.2.6,MacIntel,60,,,,,,,,,,,
,,,,,,,,,,,,,,a,1,0.808,space,0.201,0,55,55,159,1,0_targ_10_dist_red/trial10.png,,,0,10,redHorizontal,a,51,21,female,2021-02-23_15h52.37.669,exp11,2020.2.6,MacIntel,60,,,,,,,,,,,
,,,,,,,,,,,,,,p,1,0.712,space,0.192,0,56,56,51,1,9_dist_red/trial2.png,,,1,9,redHorizontal,p,51,21,female,2021-02-23_15h52.37.669,exp11,2020.2.6,MacIntel,60,,,,,,,,,,,
,,,,,,,,,,,,,,p,1,0.758,space,0.12,0,57,57,34,1,3_dist_red/trial10.png,,,1,3,redHorizontal,p,51,21,female,2021-02-23_15h52.37.669,exp11,2020.2.6,MacIntel,60,,,,,,,,,,,
,,,,,,,,,,,,,,p,1,0.86,space,0.241,0,58,58,90,1,15_dist_red/trial16.png,,,1,15,redHorizontal,p,51,21,female,2021-02-23_15h52.37.669,exp11,2020.2.6,MacIntel,60,,,,,,,,,,,
,,,,,,,,,,,,,,p,1,1.163,space,0.188,0,59,59,76,1,15_dist_red/trial2.png,,,1,15,redHorizontal,p,51,21,female,2021-02-23_15h52.37.669,exp11,2020.2.6,MacIntel,60,,,,,,,,,,,
,,,,,,,,,,,,,,a,1,0.577,space,0.174,0,60,60,142,1,0_targ_4_dist_red/trial18.png,,,0,4,redHorizontal,a,51,21,female,2021-02-23_15h52.37.669,exp11,2020.2.6,MacIntel,60,,,,,,,,,,,
,,,,,,,,,,,,,,p,1,0.629,space,0.192,0,61,61,12,1,0_dist_red/trial13.png,,,1,0,redHorizontal,p,51,21,female,2021-02-23_15h52.37.669,exp11,2020.2.6,MacIntel,60,,,,,,,,,,,
,,,,,,,,,,,,,,p,1,0.514,space,0.284,0,62,62,11,1,0_dist_red/trial12.png,,,1,0,redHorizontal,p,51,21,female,2021-02-23_15h52.37.669,exp11,2020.2.6,MacIntel,60,,,,,,,,,,,
,,,,,,,,,,,,,,p,1,0.606,space,0.333,0,63,63,93,1,15_dist_red/trial19.png,,,1,15,redHorizontal,p,51,21,female,2021-02-23_15h52.37.669,exp11,2020.2.6,MacIntel,60,,,,,,,,,,,
,,,,,,,,,,,,,,a,1,0.607,space,0.219,0,64,64,148,1,0_targ_4_dist_red/trial24.png,,,0,4,redHorizontal,a,51,21,female,2021-02-23_15h52.37.669,exp11,2020.2.6,MacIntel,60,,,,,,,,,,,
,,,,,,,,,,,,,,p,1,0.921,space,0.168,0,65,65,69,1,9_dist_red/trial20.png,,,1,9,redHorizontal,p,51,21,female,2021-02-23_15h52.37.669,exp11,2020.2.6,MacIntel,60,,,,,,,,,,,
,,,,,,,,,,,,,,a,1,0.89,space,0.161,0,66,66,138,1,0_targ_4_dist_red/trial14.png,,,0,4,redHorizontal,a,51,21,female,2021-02-23_15h52.37.669,exp11,2020.2.6,MacIntel,60,,,,,,,,,,,
,,,,,,,,,,,,,,p,1,0.628,space,0.21,0,67,67,45,1,3_dist_red/trial21.png,,,1,3,redHorizontal,p,51,21,female,2021-02-23_15h52.37.669,exp11,2020.2.6,MacIntel,60,,,,,,,,,,,
,,,,,,,,,,,,,,p,1,0.676,space,0.191,0,68,68,55,1,9_dist_red/trial6.png,,,1,9,redHorizontal,p,51,21,female,2021-02-23_15h52.37.669,exp11,2020.2.6,MacIntel,60,,,,,,,,,,,
,,,,,,,,,,,,,,p,1,0.922,space,0.17,0,69,69,96,1,15_dist_red/trial22.png,,,1,15,redHorizontal,p,51,21,female,2021-02-23_15h52.37.669,exp11,2020.2.6,MacIntel,60,,,,,,,,,,,
,,,,,,,,,,,,,,p,1,0.559,space,0.202,0,70,70,62,1,9_dist_red/trial13.png,,,1,9,redHorizontal,p,51,21,female,2021-02-23_15h52.37.669,exp11,2020.2.6,MacIntel,60,,,,,,,,,,,
,,,,,,,,,,,,,,p,1,0.56,space,0.202,0,71,71,35,1,3_dist_red/trial11.png,,,1,3,redHorizontal,p,51,21,female,2021-02-23_15h52.37.669,exp11,2020.2.6,MacIntel,60,,,,,,,,,,,
,,,,,,,,,,,,,,a,1,0.646,space,0.204,0,72,72,129,1,0_targ_4_dist_red/trial5.png,,,0,4,redHorizontal,a,51,21,female,2021-02-23_15h52.37.669,exp11,2020.2.6,MacIntel,60,,,,,,,,,,,
,,,,,,,,,,,,,,a,1,0.74,space,0.186,0,73,73,154,1,0_targ_10_dist_red/trial5.png,,,0,10,redHorizontal,a,51,21,female,2021-02-23_15h52.37.669,exp11,2020.2.6,MacIntel,60,,,,,,,,,,,
,,,,,,,,,,,,,,p,1,0.675,space,0.224,0,74,74,89,1,15_dist_red/trial15.png,,,1,15,redHorizontal,p,51,21,female,2021-02-23_15h52.37.669,exp11,2020.2.6,MacIntel,60,,,,,,,,,,,
,,,,,,,,,,,,,,a,1,0.724,space,0.184,0,75,75,101,1,0_targ_1_dist_red/trial2.png,,,0,1,redHorizontal,a,51,21,female,2021-02-23_15h52.37.669,exp11,2020.2.6,MacIntel,60,,,,,,,,,,,
,,,,,,,,,,,,,,a,1,0.809,space,0.192,0,76,76,178,1,0_targ_16_dist_red/trial4.png,,,0,16,redHorizontal,a,51,21,female,2021-02-23_15h52.37.669,exp11,2020.2.6,MacIntel,60,,,,,,,,,,,
,,,,,,,,,,,,,,p,1,0.746,space,0.19,0,77,77,54,1,9_dist_red/trial5.png,,,1,9,redHorizontal,p,51,21,female,2021-02-23_15h52.37.669,exp11,2020.2.6,MacIntel,60,,,,,,,,,,,
,,,,,,,,,,,,,,p,1,0.548,space,0.394,0,78,78,7,1,0_dist_red/trial8.png,,,1,0,redHorizontal,p,51,21,female,2021-02-23_15h52.37.669,exp11,2020.2.6,MacIntel,60,,,,,,,,,,,
,,,,,,,,,,,,,,p,1,0.508,space,0.336,0,79,79,67,1,9_dist_red/trial18.png,,,1,9,redHorizontal,p,51,21,female,2021-02-23_15h52.37.669,exp11,2020.2.6,MacIntel,60,,,,,,,,,,,
,,,,,,,,,,,,,,a,1,0.712,space,0.228,0,80,80,190,1,0_targ_16_dist_red/trial16.png,,,0,16,redHorizontal,a,51,21,female,2021-02-23_15h52.37.669,exp11,2020.2.6,MacIntel,60,,,,,,,,,,,
,,,,,,,,,,,,,,p,1,0.564,space,0.244,0,81,81,10,1,0_dist_red/trial11.png,,,1,0,redHorizontal,p,51,21,female,2021-02-23_15h52.37.669,exp11,2020.2.6,MacIntel,60,,,,,,,,,,,
,,,,,,,,,,,,,,p,1,0.581,space,0.234,0,82,82,91,1,15_dist_red/trial17.png,,,1,15,redHorizontal,p,51,21,female,2021-02-23_15h52.37.669,exp11,2020.2.6,MacIntel,60,,,,,,,,,,,
,,,,,,,,,,,,,,a,1,0.964,space,0.218,0,83,83,169,1,0_targ_10_dist_red/trial20.png,,,0,10,redHorizontal,a,51,21,female,2021-02-23_15h52.37.669,exp11,2020.2.6,MacIntel,60,,,,,,,,,,,
,,,,,,,,,,,,,,a,1,0.622,space,0.167,0,84,84,102,1,0_targ_1_dist_red/trial3.png,,,0,1,redHorizontal,a,51,21,female,2021-02-23_15h52.37.669,exp11,2020.2.6,MacIntel,60,,,,,,,,,,,
,,,,,,,,,,,,,,p,1,0.574,space,0.158,0,85,85,8,1,0_dist_red/trial9.png,,,1,0,redHorizontal,p,51,21,female,2021-02-23_15h52.37.669,exp11,2020.2.6,MacIntel,60,,,,,,,,,,,
,,,,,,,,,,,,,,a,1,0.575,space,0.172,0,86,86,131,1,0_targ_4_dist_red/trial7.png,,,0,4,redHorizontal,a,51,21,female,2021-02-23_15h52.37.669,exp11,2020.2.6,MacIntel,60,,,,,,,,,,,
,,,,,,,,,,,,,,a,1,0.825,space,0.46,0,87,87,100,1,0_targ_1_dist_red/trial1.png,,,0,1,redHorizontal,a,51,21,female,2021-02-23_15h52.37.669,exp11,2020.2.6,MacIntel,60,,,,,,,,,,,
,,,,,,,,,,,,,,p,1,0.465,space,0.158,0,88,88,17,1,0_dist_red/trial18.png,,,1,0,redHorizontal,p,51,21,female,2021-02-23_15h52.37.669,exp11,2020.2.6,MacIntel,60,,,,,,,,,,,
,,,,,,,,,,,,,,a,1,0.508,space,0.176,0,89,89,110,1,0_targ_1_dist_red/trial11.png,,,0,1,redHorizontal,a,51,21,female,2021-02-23_15h52.37.669,exp11,2020.2.6,MacIntel,60,,,,,,,,,,,
,,,,,,,,,,,,,,p,1,0.541,space,0.134,0,90,90,38,1,3_dist_red/trial14.png,,,1,3,redHorizontal,p,51,21,female,2021-02-23_15h52.37.669,exp11,2020.2.6,MacIntel,60,,,,,,,,,,,
,,,,,,,,,,,,,,a,1,0.492,space,0.154,0,91,91,109,1,0_targ_1_dist_red/trial10.png,,,0,1,redHorizontal,a,51,21,female,2021-02-23_15h52.37.669,exp11,2020.2.6,MacIntel,60,,,,,,,,,,,
,,,,,,,,,,,,,,p,1,0.66,space,0.172,0,92,92,75,1,15_dist_red/trial1.png,,,1,15,redHorizontal,p,51,21,female,2021-02-23_15h52.37.669,exp11,2020.2.6,MacIntel,60,,,,,,,,,,,
,,,,,,,,,,,,,,a,1,0.831,space,0.152,0,93,93,133,1,0_targ_4_dist_red/trial9.png,,,0,4,redHorizontal,a,51,21,female,2021-02-23_15h52.37.669,exp11,2020.2.6,MacIntel,60,,,,,,,,,,,
,,,,,,,,,,,,,,p,1,0.512,space,0.244,0,94,94,22,1,0_dist_red/trial23.png,,,1,0,redHorizontal,p,51,21,female,2021-02-23_15h52.37.669,exp11,2020.2.6,MacIntel,60,,,,,,,,,,,
,,,,,,,,,,,,,,a,1,0.575,space,0.193,0,95,95,135,1,0_targ_4_dist_red/trial11.png,,,0,4,redHorizontal,a,51,21,female,2021-02-23_15h52.37.669,exp11,2020.2.6,MacIntel,60,,,,,,,,,,,
,,,,,,,,,,,,,,p,1,0.667,space,0.159,0,96,96,50,1,9_dist_red/trial1.png,,,1,9,redHorizontal,p,51,21,female,2021-02-23_15h52.37.669,exp11,2020.2.6,MacIntel,60,,,,,,,,,,,
,,,,,,,,,,,,,,a,1,0.948,space,0.273,0,97,97,160,1,0_targ_10_dist_red/trial11.png,,,0,10,redHorizontal,a,51,21,female,2021-02-23_15h52.37.669,exp11,2020.2.6,MacIntel,60,,,,,,,,,,,
,,,,,,,,,,,,,,p,1,0.946,space,0.16,0,98,98,58,1,9_dist_red/trial9.png,,,1,9,redHorizontal,p,51,21,female,2021-02-23_15h52.37.669,exp11,2020.2.6,MacIntel,60,,,,,,,,,,,
,,,,,,,,,,,,,,a,1,0.748,space,0.145,0,99,99,187,1,0_targ_16_dist_red/trial13.png,,,0,16,redHorizontal,a,51,21,female,2021-02-23_15h52.37.669,exp11,2020.2.6,MacIntel,60,,,,,,,,,,,
,,,,,,,,,,,,,,p,1,0.561,space,0.253,0,100,100,21,1,0_dist_red/trial22.png,,,1,0,redHorizontal,p,51,21,female,2021-02-23_15h52.37.669,exp11,2020.2.6,MacIntel,60,,,,,,,,,,,
,,,,,,,,,,,,,,p,1,0.809,space,0.252,0,101,101,88,1,15_dist_red/trial14.png,,,1,15,redHorizontal,p,51,21,female,2021-02-23_15h52.37.669,exp11,2020.2.6,MacIntel,60,,,,,,,,,,,
,,,,,,,,,,,,,,p,1,0.508,space,0.236,0,102,102,33,1,3_dist_red/trial9.png,,,1,3,redHorizontal,p,51,21,female,2021-02-23_15h52.37.669,exp11,2020.2.6,MacIntel,60,,,,,,,,,,,
,,,,,,,,,,,,,,p,1,0.529,space,0.207,0,103,103,26,1,3_dist_red/trial2.png,,,1,3,redHorizontal,p,51,21,female,2021-02-23_15h52.37.669,exp11,2020.2.6,MacIntel,60,,,,,,,,,,,
,,,,,,,,,,,,,,p,0,0.457,space,3.086,0,104,104,127,1,0_targ_4_dist_red/trial3.png,,,0,4,redHorizontal,a,51,21,female,2021-02-23_15h52.37.669,exp11,2020.2.6,MacIntel,60,,,,,,,,,,,
,,,,,,,,,,,,,,a,1,1.104,space,0.098,0,105,105,161,1,0_targ_10_dist_red/trial12.png,,,0,10,redHorizontal,a,51,21,female,2021-02-23_15h52.37.669,exp11,2020.2.6,MacIntel,60,,,,,,,,,,,
,,,,,,,,,,,,,,a,1,0.509,space,0.101,0,106,106,118,1,0_targ_1_dist_red/trial19.png,,,0,1,redHorizontal,a,51,21,female,2021-02-23_15h52.37.669,exp11,2020.2.6,MacIntel,60,,,,,,,,,,,
,,,,,,,,,,,,,,a,1,0.7,space,0.167,0,107,107,125,1,0_targ_4_dist_red/trial1.png,,,0,4,redHorizontal,a,51,21,female,2021-02-23_15h52.37.669,exp11,2020.2.6,MacIntel,60,,,,,,,,,,,
,,,,,,,,,,,,,,a,1,0.513,space,0.201,0,108,108,143,1,0_targ_4_dist_red/trial19.png,,,0,4,redHorizontal,a,51,21,female,2021-02-23_15h52.37.669,exp11,2020.2.6,MacIntel,60,,,,,,,,,,,
,,,,,,,,,,,,,,p,1,0.392,space,0.143,0,109,109,36,1,3_dist_red/trial12.png,,,1,3,redHorizontal,p,51,21,female,2021-02-23_15h52.37.669,exp11,2020.2.6,MacIntel,60,,,,,,,,,,,
,,,,,,,,,,,,,,a,1,1.016,space,0.152,0,110,110,186,1,0_targ_16_dist_red/trial12.png,,,0,16,redHorizontal,a,51,21,female,2021-02-23_15h52.37.669,exp11,2020.2.6,MacIntel,60,,,,,,,,,,,
,,,,,,,,,,,,,,p,1,0.786,space,0.219,0,111,111,98,1,15_dist_red/trial24.png,,,1,15,redHorizontal,p,51,21,female,2021-02-23_15h52.37.669,exp11,2020.2.6,MacIntel,60,,,,,,,,,,,
,,,,,,,,,,,,,,a,1,0.813,space,0.177,0,112,112,171,1,0_targ_10_dist_red/trial22.png,,,0,10,redHorizontal,a,51,21,female,2021-02-23_15h52.37.669,exp11,2020.2.6,MacIntel,60,,,,,,,,,,,
,,,,,,,,,,,,,,a,1,0.681,space,0.14,0,113,113,192,1,0_targ_16_dist_red/trial18.png,,,0,16,redHorizontal,a,51,21,female,2021-02-23_15h52.37.669,exp11,2020.2.6,MacIntel,60,,,,,,,,,,,
,,,,,,,,,,,,,,p,1,0.582,space,0.242,0,114,114,44,1,3_dist_red/trial20.png,,,1,3,redHorizontal,p,51,21,female,2021-02-23_15h52.37.669,exp11,2020.2.6,MacIntel,60,,,,,,,,,,,
,,,,,,,,,,,,,,a,1,1.005,space,0.15,0,115,115,196,1,0_targ_16_dist_red/trial22.png,,,0,16,redHorizontal,a,51,21,female,2021-02-23_15h52.37.669,exp11,2020.2.6,MacIntel,60,,,,,,,,,,,
,,,,,,,,,,,,,,a,1,0.612,space,0.192,0,116,116,156,1,0_targ_10_dist_red/trial7.png,,,0,10,redHorizontal,a,51,21,female,2021-02-23_15h52.37.669,exp11,2020.2.6,MacIntel,60,,,,,,,,,,,
,,,,,,,,,,,,,,a,1,0.475,space,0.204,0,117,117,136,1,0_targ_4_dist_red/trial12.png,,,0,4,redHorizontal,a,51,21,female,2021-02-23_15h52.37.669,exp11,2020.2.6,MacIntel,60,,,,,,,,,,,
,,,,,,,,,,,,,,p,1,0.511,space,0.319,0,118,118,14,1,0_dist_red/trial15.png,,,1,0,redHorizontal,p,51,21,female,2021-02-23_15h52.37.669,exp11,2020.2.6,MacIntel,60,,,,,,,,,,,
,,,,,,,,,,,,,,p,1,0.749,space,0.218,0,119,119,1,1,0_dist_red/trial2.png,,,1,0,redHorizontal,p,51,21,female,2021-02-23_15h52.37.669,exp11,2020.2.6,MacIntel,60,,,,,,,,,,,
,,,,,,,,,,,,,,a,1,0.66,space,0.453,0,120,120,132,1,0_targ_4_dist_red/trial8.png,,,0,4,redHorizontal,a,51,21,female,2021-02-23_15h52.37.669,exp11,2020.2.6,MacIntel,60,,,,,,,,,,,
,,,,,,,,,,,,,,p,1,0.773,space,0.369,0,121,121,41,1,3_dist_red/trial17.png,,,1,3,redHorizontal,p,51,21,female,2021-02-23_15h52.37.669,exp11,2020.2.6,MacIntel,60,,,,,,,,,,,
,,,,,,,,,,,,,,p,1,0.778,space,0.242,0,122,122,94,1,15_dist_red/trial20.png,,,1,15,redHorizontal,p,51,21,female,2021-02-23_15h52.37.669,exp11,2020.2.6,MacIntel,60,,,,,,,,,,,
,,,,,,,,,,,,,,p,1,0.556,space,0.336,0,123,123,97,1,15_dist_red/trial23.png,,,1,15,redHorizontal,p,51,21,female,2021-02-23_15h52.37.669,exp11,2020.2.6,MacIntel,60,,,,,,,,,,,
,,,,,,,,,,,,,,a,1,0.99,space,0.105,0,124,124,194,1,0_targ_16_dist_red/trial20.png,,,0,16,redHorizontal,a,51,21,female,2021-02-23_15h52.37.669,exp11,2020.2.6,MacIntel,60,,,,,,,,,,,
,,,,,,,,,,,,,,p,1,0.654,space,0.2,0,125,125,52,1,9_dist_red/trial3.png,,,1,9,redHorizontal,p,51,21,female,2021-02-23_15h52.37.669,exp11,2020.2.6,MacIntel,60,,,,,,,,,,,
,,,,,,,,,,,,,,a,1,1.163,space,0.126,0,126,126,166,1,0_targ_10_dist_red/trial17.png,,,0,10,redHorizontal,a,51,21,female,2021-02-23_15h52.37.669,exp11,2020.2.6,MacIntel,60,,,,,,,,,,,
,,,,,,,,,,,,,,a,1,0.746,space,0.255,0,127,127,158,1,0_targ_10_dist_red/trial9.png,,,0,10,redHorizontal,a,51,21,female,2021-02-23_15h52.37.669,exp11,2020.2.6,MacIntel,60,,,,,,,,,,,
,,,,,,,,,,,,,,p,1,0.696,space,0.609,0,128,128,99,1,15_dist_red/trial25.png,,,1,15,redHorizontal,p,51,21,female,2021-02-23_15h52.37.669,exp11,2020.2.6,MacIntel,60,,,,,,,,,,,
,,,,,,,,,,,,,,a,1,1.224,space,0.25,0,129,129,197,1,0_targ_16_dist_red/trial23.png,,,0,16,redHorizontal,a,51,21,female,2021-02-23_15h52.37.669,exp11,2020.2.6,MacIntel,60,,,,,,,,,,,
,,,,,,,,,,,,,,p,1,0.456,space,0.774,0,130,130,18,1,0_dist_red/trial19.png,,,1,0,redHorizontal,p,51,21,female,2021-02-23_15h52.37.669,exp11,2020.2.6,MacIntel,60,,,,,,,,,,,
,,,,,,,,,,,,,,a,1,0.801,space,0.227,0,131,131,175,1,0_targ_16_dist_red/trial1.png,,,0,16,redHorizontal,a,51,21,female,2021-02-23_15h52.37.669,exp11,2020.2.6,MacIntel,60,,,,,,,,,,,
,,,,,,,,,,,,,,p,1,0.806,space,0.473,0,132,132,84,1,15_dist_red/trial10.png,,,1,15,redHorizontal,p,51,21,female,2021-02-23_15h52.37.669,exp11,2020.2.6,MacIntel,60,,,,,,,,,,,
,,,,,,,,,,,,,,p,1,0.581,space,0.457,0,133,133,24,1,0_dist_red/trial25.png,,,1,0,redHorizontal,p,51,21,female,2021-02-23_15h52.37.669,exp11,2020.2.6,MacIntel,60,,,,,,,,,,,
,,,,,,,,,,,,,,a,1,0.744,space,0.259,0,134,134,124,1,0_targ_1_dist_red/trial25.png,,,0,1,redHorizontal,a,51,21,female,2021-02-23_15h52.37.669,exp11,2020.2.6,MacIntel,60,,,,,,,,,,,
,,,,,,,,,,,,,,p,1,0.663,space,0.285,0,135,135,30,1,3_dist_red/trial6.png,,,1,3,redHorizontal,p,51,21,female,2021-02-23_15h52.37.669,exp11,2020.2.6,MacIntel,60,,,,,,,,,,,
,,,,,,,,,,,,,,a,1,0.904,space,0.308,0,136,136,165,1,0_targ_10_dist_red/trial16.png,,,0,10,redHorizontal,a,51,21,female,2021-02-23_15h52.37.669,exp11,2020.2.6,MacIntel,60,,,,,,,,,,,
,,,,,,,,,,,,,,a,1,0.847,space,0.235,0,137,137,150,1,0_targ_10_dist_red/trial1.png,,,0,10,redHorizontal,a,51,21,female,2021-02-23_15h52.37.669,exp11,2020.2.6,MacIntel,60,,,,,,,,,,,
,,,,,,,,,,,,,,p,1,0.547,space,0.394,0,138,138,16,1,0_dist_red/trial17.png,,,1,0,redHorizontal,p,51,21,female,2021-02-23_15h52.37.669,exp11,2020.2.6,MacIntel,60,,,,,,,,,,,
,,,,,,,,,,,,,,a,1,0.729,space,0.2,0,139,139,184,1,0_targ_16_dist_red/trial10.png,,,0,16,redHorizontal,a,51,21,female,2021-02-23_15h52.37.669,exp11,2020.2.6,MacIntel,60,,,,,,,,,,,
,,,,,,,,,,,,,,a,1,0.665,space,0.306,0,140,140,137,1,0_targ_4_dist_red/trial13.png,,,0,4,redHorizontal,a,51,21,female,2021-02-23_15h52.37.669,exp11,2020.2.6,MacIntel,60,,,,,,,,,,,
,,,,,,,,,,,,,,p,1,0.598,space,0.304,0,141,141,47,1,3_dist_red/trial23.png,,,1,3,redHorizontal,p,51,21,female,2021-02-23_15h52.37.669,exp11,2020.2.6,MacIntel,60,,,,,,,,,,,
,,,,,,,,,,,,,,p,1,0.611,space,0.306,0,142,142,32,1,3_dist_red/trial8.png,,,1,3,redHorizontal,p,51,21,female,2021-02-23_15h52.37.669,exp11,2020.2.6,MacIntel,60,,,,,,,,,,,
,,,,,,,,,,,,,,a,1,0.625,space,0.278,0,143,143,195,1,0_targ_16_dist_red/trial21.png,,,0,16,redHorizontal,a,51,21,female,2021-02-23_15h52.37.669,exp11,2020.2.6,MacIntel,60,,,,,,,,,,,
,,,,,,,,,,,,,,a,1,0.679,space,0.221,0,144,144,157,1,0_targ_10_dist_red/trial8.png,,,0,10,redHorizontal,a,51,21,female,2021-02-23_15h52.37.669,exp11,2020.2.6,MacIntel,60,,,,,,,,,,,
,,,,,,,,,,,,,,p,1,0.971,space,0.338,0,145,145,85,1,15_dist_red/trial11.png,,,1,15,redHorizontal,p,51,21,female,2021-02-23_15h52.37.669,exp11,2020.2.6,MacIntel,60,,,,,,,,,,,
,,,,,,,,,,,,,,a,1,0.66,space,0.275,0,146,146,123,1,0_targ_1_dist_red/trial24.png,,,0,1,redHorizontal,a,51,21,female,2021-02-23_15h52.37.669,exp11,2020.2.6,MacIntel,60,,,,,,,,,,,
,,,,,,,,,,,,,,p,1,0.667,space,0.26,0,147,147,2,1,0_dist_red/trial3.png,,,1,0,redHorizontal,p,51,21,female,2021-02-23_15h52.37.669,exp11,2020.2.6,MacIntel,60,,,,,,,,,,,
,,,,,,,,,,,,,,a,1,0.558,space,0.293,0,148,148,130,1,0_targ_4_dist_red/trial6.png,,,0,4,redHorizontal,a,51,21,female,2021-02-23_15h52.37.669,exp11,2020.2.6,MacIntel,60,,,,,,,,,,,
,,,,,,,,,,,,,,p,1,1.107,space,0.256,0,149,149,59,1,9_dist_red/trial10.png,,,1,9,redHorizontal,p,51,21,female,2021-02-23_15h52.37.669,exp11,2020.2.6,MacIntel,60,,,,,,,,,,,
,,,,,,,,,,,,,,p,1,0.583,space,0.301,0,150,150,82,1,15_dist_red/trial8.png,,,1,15,redHorizontal,p,51,21,female,2021-02-23_15h52.37.669,exp11,2020.2.6,MacIntel,60,,,,,,,,,,,
,,,,,,,,,,,,,,a,0,0.825,space,0.042,0,151,151,63,1,9_dist_red/trial14.png,,,1,9,redHorizontal,p,51,21,female,2021-02-23_15h52.37.669,exp11,2020.2.6,MacIntel,60,,,,,,,,,,,
,,,,,,,,,,,,,,p,1,0.775,space,0.285,0,152,152,87,1,15_dist_red/trial13.png,,,1,15,redHorizontal,p,51,21,female,2021-02-23_15h52.37.669,exp11,2020.2.6,MacIntel,60,,,,,,,,,,,
,,,,,,,,,,,,,,a,1,0.542,space,0.225,0,153,153,128,1,0_targ_4_dist_red/trial4.png,,,0,4,redHorizontal,a,51,21,female,2021-02-23_15h52.37.669,exp11,2020.2.6,MacIntel,60,,,,,,,,,,,
,,,,,,,,,,,,,,a,1,0.831,space,0.152,0,154,154,182,1,0_targ_16_dist_red/trial8.png,,,0,16,redHorizontal,a,51,21,female,2021-02-23_15h52.37.669,exp11,2020.2.6,MacIntel,60,,,,,,,,,,,
,,,,,,,,,,,,,,a,1,0.745,space,0.277,0,155,155,149,1,0_targ_4_dist_red/trial25.png,,,0,4,redHorizontal,a,51,21,female,2021-02-23_15h52.37.669,exp11,2020.2.6,MacIntel,60,,,,,,,,,,,
,,,,,,,,,,,,,,p,1,0.52,space,0.286,0,156,156,39,1,3_dist_red/trial15.png,,,1,3,redHorizontal,p,51,21,female,2021-02-23_15h52.37.669,exp11,2020.2.6,MacIntel,60,,,,,,,,,,,
,,,,,,,,,,,,,,p,1,0.575,space,0.341,0,157,157,28,1,3_dist_red/trial4.png,,,1,3,redHorizontal,p,51,21,female,2021-02-23_15h52.37.669,exp11,2020.2.6,MacIntel,60,,,,,,,,,,,
,,,,,,,,,,,,,,p,0,0.529,space,3.694,0,158,158,114,1,0_targ_1_dist_red/trial15.png,,,0,1,redHorizontal,a,51,21,female,2021-02-23_15h52.37.669,exp11,2020.2.6,MacIntel,60,,,,,,,,,,,
,,,,,,,,,,,,,,p,1,0.643,space,0.329,0,159,159,71,1,9_dist_red/trial22.png,,,1,9,redHorizontal,p,51,21,female,2021-02-23_15h52.37.669,exp11,2020.2.6,MacIntel,60,,,,,,,,,,,
,,,,,,,,,,,,,,p,1,0.664,space,0.236,0,160,160,40,1,3_dist_red/trial16.png,,,1,3,redHorizontal,p,51,21,female,2021-02-23_15h52.37.669,exp11,2020.2.6,MacIntel,60,,,,,,,,,,,
,,,,,,,,,,,,,,a,1,0.478,space,0.207,0,161,161,105,1,0_targ_1_dist_red/trial6.png,,,0,1,redHorizontal,a,51,21,female,2021-02-23_15h52.37.669,exp11,2020.2.6,MacIntel,60,,,,,,,,,,,
,,,,,,,,,,,,,,p,1,0.593,space,0.234,0,162,162,6,1,0_dist_red/trial7.png,,,1,0,redHorizontal,p,51,21,female,2021-02-23_15h52.37.669,exp11,2020.2.6,MacIntel,60,,,,,,,,,,,
,,,,,,,,,,,,,,a,0,0.675,space,0.125,0,163,163,68,1,9_dist_red/trial19.png,,,1,9,redHorizontal,p,51,21,female,2021-02-23_15h52.37.669,exp11,2020.2.6,MacIntel,60,,,,,,,,,,,
,,,,,,,,,,,,,,a,1,1.631,space,0.433,0,164,164,155,1,0_targ_10_dist_red/trial6.png,,,0,10,redHorizontal,a,51,21,female,2021-02-23_15h52.37.669,exp11,2020.2.6,MacIntel,60,,,,,,,,,,,
,,,,,,,,,,,,,,a,1,0.777,space,0.175,0,165,165,164,1,0_targ_10_dist_red/trial15.png,,,0,10,redHorizontal,a,51,21,female,2021-02-23_15h52.37.669,exp11,2020.2.6,MacIntel,60,,,,,,,,,,,
,,,,,,,,,,,,,,p,1,0.533,space,0.219,0,166,166,57,1,9_dist_red/trial8.png,,,1,9,redHorizontal,p,51,21,female,2021-02-23_15h52.37.669,exp11,2020.2.6,MacIntel,60,,,,,,,,,,,
,,,,,,,,,,,,,,a,1,0.738,space,0.217,0,167,167,144,1,0_targ_4_dist_red/trial20.png,,,0,4,redHorizontal,a,51,21,female,2021-02-23_15h52.37.669,exp11,2020.2.6,MacIntel,60,,,,,,,,,,,
,,,,,,,,,,,,,,a,1,0.845,space,0.243,0,168,168,179,1,0_targ_16_dist_red/trial5.png,,,0,16,redHorizontal,a,51,21,female,2021-02-23_15h52.37.669,exp11,2020.2.6,MacIntel,60,,,,,,,,,,,
,,,,,,,,,,,,,,p,1,0.599,space,0.29,0,169,169,81,1,15_dist_red/trial7.png,,,1,15,redHorizontal,p,51,21,female,2021-02-23_15h52.37.669,exp11,2020.2.6,MacIntel,60,,,,,,,,,,,
,,,,,,,,,,,,,,p,1,0.643,space,0.287,0,170,170,13,1,0_dist_red/trial14.png,,,1,0,redHorizontal,p,51,21,female,2021-02-23_15h52.37.669,exp11,2020.2.6,MacIntel,60,,,,,,,,,,,
,,,,,,,,,,,,,,p,1,0.656,space,0.286,0,171,171,83,1,15_dist_red/trial9.png,,,1,15,redHorizontal,p,51,21,female,2021-02-23_15h52.37.669,exp11,2020.2.6,MacIntel,60,,,,,,,,,,,
,,,,,,,,,,,,,,a,1,0.943,space,0.191,0,172,172,119,1,0_targ_1_dist_red/trial20.png,,,0,1,redHorizontal,a,51,21,female,2021-02-23_15h52.37.669,exp11,2020.2.6,MacIntel,60,,,,,,,,,,,
,,,,,,,,,,,,,,a,1,0.743,space,0.233,0,173,173,139,1,0_targ_4_dist_red/trial15.png,,,0,4,redHorizontal,a,51,21,female,2021-02-23_15h52.37.669,exp11,2020.2.6,MacIntel,60,,,,,,,,,,,
,,,,,,,,,,,,,,a,1,0.542,space,0.287,0,174,174,141,1,0_targ_4_dist_red/trial17.png,,,0,4,redHorizontal,a,51,21,female,2021-02-23_15h52.37.669,exp11,2020.2.6,MacIntel,60,,,,,,,,,,,
,,,,,,,,,,,,,,a,1,0.994,space,0.206,0,175,175,180,1,0_targ_16_dist_red/trial6.png,,,0,16,redHorizontal,a,51,21,female,2021-02-23_15h52.37.669,exp11,2020.2.6,MacIntel,60,,,,,,,,,,,
,,,,,,,,,,,,,,a,1,0.595,space,0.258,0,176,176,167,1,0_targ_10_dist_red/trial18.png,,,0,10,redHorizontal,a,51,21,female,2021-02-23_15h52.37.669,exp11,2020.2.6,MacIntel,60,,,,,,,,,,,
,,,,,,,,,,,,,,p,1,0.511,space,0.256,0,177,177,56,1,9_dist_red/trial7.png,,,1,9,redHorizontal,p,51,21,female,2021-02-23_15h52.37.669,exp11,2020.2.6,MacIntel,60,,,,,,,,,,,
,,,,,,,,,,,,,,a,1,0.808,space,0.208,0,178,178,185,1,0_targ_16_dist_red/trial11.png,,,0,16,redHorizontal,a,51,21,female,2021-02-23_15h52.37.669,exp11,2020.2.6,MacIntel,60,,,,,,,,,,,
,,,,,,,,,,,,,,p,1,0.525,space,0.254,0,179,179,48,1,3_dist_red/trial24.png,,,1,3,redHorizontal,p,51,21,female,2021-02-23_15h52.37.669,exp11,2020.2.6,MacIntel,60,,,,,,,,,,,
,,,,,,,,,,,,,,p,1,0.822,space,0.335,0,180,180,66,1,9_dist_red/trial17.png,,,1,9,redHorizontal,p,51,21,female,2021-02-23_15h52.37.669,exp11,2020.2.6,MacIntel,60,,,,,,,,,,,
,,,,,,,,,,,,,,a,1,0.678,space,0.326,0,181,181,146,1,0_targ_4_dist_red/trial22.png,,,0,4,redHorizontal,a,51,21,female,2021-02-23_15h52.37.669,exp11,2020.2.6,MacIntel,60,,,,,,,,,,,
,,,,,,,,,,,,,,p,1,0.583,space,0.29,0,182,182,42,1,3_dist_red/trial18.png,,,1,3,redHorizontal,p,51,21,female,2021-02-23_15h52.37.669,exp11,2020.2.6,MacIntel,60,,,,,,,,,,,
,,,,,,,,,,,,,,p,1,0.811,space,0.376,0,183,183,25,1,3_dist_red/trial1.png,,,1,3,redHorizontal,p,51,21,female,2021-02-23_15h52.37.669,exp11,2020.2.6,MacIntel,60,,,,,,,,,,,
,,,,,,,,,,,,,,p,1,0.597,space,0.356,0,184,184,19,1,0_dist_red/trial20.png,,,1,0,redHorizontal,p,51,21,female,2021-02-23_15h52.37.669,exp11,2020.2.6,MacIntel,60,,,,,,,,,,,
,,,,,,,,,,,,,,p,0,0.806,space,0.142,0,185,185,176,1,0_targ_16_dist_red/trial2.png,,,0,16,redHorizontal,a,51,21,female,2021-02-23_15h52.37.669,exp11,2020.2.6,MacIntel,60,,,,,,,,,,,
,,,,,,,,,,,,,,p,1,0.889,space,0.171,0,186,186,78,1,15_dist_red/trial4.png,,,1,15,redHorizontal,p,51,21,female,2021-02-23_15h52.37.669,exp11,2020.2.6,MacIntel,60,,,,,,,,,,,
,,,,,,,,,,,,,,p,0,1.448,space,2.292,0,187,187,168,1,0_targ_10_dist_red/trial19.png,,,0,10,redHorizontal,a,51,21,female,2021-02-23_15h52.37.669,exp11,2020.2.6,MacIntel,60,,,,,,,,,,,
,,,,,,,,,,,,,,p,1,0.713,space,0.273,0,188,188,53,1,9_dist_red/trial4.png,,,1,9,redHorizontal,p,51,21,female,2021-02-23_15h52.37.669,exp11,2020.2.6,MacIntel,60,,,,,,,,,,,
,,,,,,,,,,,,,,a,1,1.18,space,0.185,0,189,189,193,1,0_targ_16_dist_red/trial19.png,,,0,16,redHorizontal,a,51,21,female,2021-02-23_15h52.37.669,exp11,2020.2.6,MacIntel,60,,,,,,,,,,,
,,,,,,,,,,,,,,p,1,1.259,space,0.141,0,190,190,31,1,3_dist_red/trial7.png,,,1,3,redHorizontal,p,51,21,female,2021-02-23_15h52.37.669,exp11,2020.2.6,MacIntel,60,,,,,,,,,,,
,,,,,,,,,,,,,,p,1,0.759,space,0.323,0,191,191,5,1,0_dist_red/trial6.png,,,1,0,redHorizontal,p,51,21,female,2021-02-23_15h52.37.669,exp11,2020.2.6,MacIntel,60,,,,,,,,,,,
,,,,,,,,,,,,,,a,1,0.731,space,0.426,0,192,192,173,1,0_targ_10_dist_red/trial24.png,,,0,10,redHorizontal,a,51,21,female,2021-02-23_15h52.37.669,exp11,2020.2.6,MacIntel,60,,,,,,,,,,,
,,,,,,,,,,,,,,p,1,0.664,space,0.225,0,193,193,49,1,3_dist_red/trial25.png,,,1,3,redHorizontal,p,51,21,female,2021-02-23_15h52.37.669,exp11,2020.2.6,MacIntel,60,,,,,,,,,,,
,,,,,,,,,,,,,,p,1,0.677,space,0.227,0,194,194,74,1,9_dist_red/trial25.png,,,1,9,redHorizontal,p,51,21,female,2021-02-23_15h52.37.669,exp11,2020.2.6,MacIntel,60,,,,,,,,,,,
,,,,,,,,,,,,,,a,1,0.612,space,0.234,0,195,195,121,1,0_targ_1_dist_red/trial22.png,,,0,1,redHorizontal,a,51,21,female,2021-02-23_15h52.37.669,exp11,2020.2.6,MacIntel,60,,,,,,,,,,,
,,,,,,,,,,,,,,p,1,0.656,space,0.208,0,196,196,3,1,0_dist_red/trial4.png,,,1,0,redHorizontal,p,51,21,female,2021-02-23_15h52.37.669,exp11,2020.2.6,MacIntel,60,,,,,,,,,,,
,,,,,,,,,,,,,,p,1,0.648,space,0.304,0,197,197,70,1,9_dist_red/trial21.png,,,1,9,redHorizontal,p,51,21,female,2021-02-23_15h52.37.669,exp11,2020.2.6,MacIntel,60,,,,,,,,,,,
,,,,,,,,,,,,,,a,1,0.796,space,0.301,0,198,198,188,1,0_targ_16_dist_red/trial14.png,,,0,16,redHorizontal,a,51,21,female,2021-02-23_15h52.37.669,exp11,2020.2.6,MacIntel,60,,,,,,,,,,,
,,,,,,,,,,,,,,p,1,0.593,space,0.225,0,199,199,77,1,15_dist_red/trial3.png,,,1,15,redHorizontal,p,51,21,female,2021-02-23_15h52.37.669,exp11,2020.2.6,MacIntel,60,,,,,,,,,,,
,,,,,,,,,,,,,,,,,,,,,,,,,,,,,,,51,21,female,2021-02-23_15h52.37.669,exp11,2020.2.6,MacIntel,60,0,1,1,1,1,conRed.xlsx,red horizontal,Look for red horizontal bar (target) and indicate if it is present or absent in the array. If red horizontal target is present press 'p' and if absent press 'a'. Press SPACE to start.,,,
