key_resp_6.keys,key_resp_6.rt,key_resp_7.keys,key_resp_7.rt,key_resp_8.keys,key_resp_8.rt,key_resp_10.keys,key_resp_10.rt,key_resp_9.keys,key_resp_9.rt,key_resp_3.keys,key_resp_3.rt,key_resp_5.keys,key_resp_5.rt,key_resp.keys,key_resp.corr,key_resp.rt,key_resp_4.keys,key_resp_4.rt,trials.thisRepN,trials.thisTrialN,trials.thisN,trials.thisIndex,trials.ran,ImageFile,tarPos,tarSize,targPres,numDist,targetName,correctAns,participant,age,sex,date,expName,psychopyVersion,OS,frameRate,fbclid,trials_2.thisRepN,trials_2.thisTrialN,trials_2.thisN,trials_2.thisIndex,trials_2.ran,condsFile,targName,instructionText,colTarget,sizeTarg,posit
space,15.14265,space,13.081195,space,4.88997,space,12.87169,space,5.73846,space,21.580935,space,6.11026,p,1,1.15987,space,2.781865,0,0,0,50,1,9_dist_red/trial1.png,,,1,9,redHorizontal,p,52,20,female,2021-02-23_16h44.47.759,exp11,2020.2.6,Win32,60,IwAR2lyB9dd-vyCAj7CxUCfuRwfY1B-LMPXxJsjRhaQhN0EMTYOcSgMIxs2VI,,,,,,,,,,,
,,,,,,,,,,,,,,p,0,0.62859,space,2.775655,0,1,1,134,1,0_targ_4_dist_red/trial10.png,,,0,4,redHorizontal,a,52,20,female,2021-02-23_16h44.47.759,exp11,2020.2.6,Win32,60,IwAR2lyB9dd-vyCAj7CxUCfuRwfY1B-LMPXxJsjRhaQhN0EMTYOcSgMIxs2VI,,,,,,,,,,,
,,,,,,,,,,,,,,a,1,3.87988,space,1.60197,0,2,2,176,1,0_targ_16_dist_red/trial2.png,,,0,16,redHorizontal,a,52,20,female,2021-02-23_16h44.47.759,exp11,2020.2.6,Win32,60,IwAR2lyB9dd-vyCAj7CxUCfuRwfY1B-LMPXxJsjRhaQhN0EMTYOcSgMIxs2VI,,,,,,,,,,,
,,,,,,,,,,,,,,a,1,0.90744,space,0.589735,0,3,3,199,1,0_targ_16_dist_red/trial25.png,,,0,16,redHorizontal,a,52,20,female,2021-02-23_16h44.47.759,exp11,2020.2.6,Win32,60,IwAR2lyB9dd-vyCAj7CxUCfuRwfY1B-LMPXxJsjRhaQhN0EMTYOcSgMIxs2VI,,,,,,,,,,,
,,,,,,,,,,,,,,p,1,0.626275,space,0.72208,0,4,4,30,1,3_dist_red/trial6.png,,,1,3,redHorizontal,p,52,20,female,2021-02-23_16h44.47.759,exp11,2020.2.6,Win32,60,IwAR2lyB9dd-vyCAj7CxUCfuRwfY1B-LMPXxJsjRhaQhN0EMTYOcSgMIxs2VI,,,,,,,,,,,
,,,,,,,,,,,,,,p,1,0.539535,space,0.28411,0,5,5,59,1,9_dist_red/trial10.png,,,1,9,redHorizontal,p,52,20,female,2021-02-23_16h44.47.759,exp11,2020.2.6,Win32,60,IwAR2lyB9dd-vyCAj7CxUCfuRwfY1B-LMPXxJsjRhaQhN0EMTYOcSgMIxs2VI,,,,,,,,,,,
,,,,,,,,,,,,,,a,0,0.535365,space,0.432975,0,6,6,98,1,15_dist_red/trial24.png,,,1,15,redHorizontal,p,52,20,female,2021-02-23_16h44.47.759,exp11,2020.2.6,Win32,60,IwAR2lyB9dd-vyCAj7CxUCfuRwfY1B-LMPXxJsjRhaQhN0EMTYOcSgMIxs2VI,,,,,,,,,,,
,,,,,,,,,,,,,,a,1,0.65508,space,0.370395,0,7,7,157,1,0_targ_10_dist_red/trial8.png,,,0,10,redHorizontal,a,52,20,female,2021-02-23_16h44.47.759,exp11,2020.2.6,Win32,60,IwAR2lyB9dd-vyCAj7CxUCfuRwfY1B-LMPXxJsjRhaQhN0EMTYOcSgMIxs2VI,,,,,,,,,,,
,,,,,,,,,,,,,,p,1,0.554085,space,0.3016,0,8,8,7,1,0_dist_red/trial8.png,,,1,0,redHorizontal,p,52,20,female,2021-02-23_16h44.47.759,exp11,2020.2.6,Win32,60,IwAR2lyB9dd-vyCAj7CxUCfuRwfY1B-LMPXxJsjRhaQhN0EMTYOcSgMIxs2VI,,,,,,,,,,,
,,,,,,,,,,,,,,p,1,0.70742,space,0.23485,0,9,9,41,1,3_dist_red/trial17.png,,,1,3,redHorizontal,p,52,20,female,2021-02-23_16h44.47.759,exp11,2020.2.6,Win32,60,IwAR2lyB9dd-vyCAj7CxUCfuRwfY1B-LMPXxJsjRhaQhN0EMTYOcSgMIxs2VI,,,,,,,,,,,
,,,,,,,,,,,,,,p,1,0.67908,space,0.22766,0,10,10,67,1,9_dist_red/trial18.png,,,1,9,redHorizontal,p,52,20,female,2021-02-23_16h44.47.759,exp11,2020.2.6,Win32,60,IwAR2lyB9dd-vyCAj7CxUCfuRwfY1B-LMPXxJsjRhaQhN0EMTYOcSgMIxs2VI,,,,,,,,,,,
,,,,,,,,,,,,,,p,1,0.549245,space,0.172255,0,11,11,45,1,3_dist_red/trial21.png,,,1,3,redHorizontal,p,52,20,female,2021-02-23_16h44.47.759,exp11,2020.2.6,Win32,60,IwAR2lyB9dd-vyCAj7CxUCfuRwfY1B-LMPXxJsjRhaQhN0EMTYOcSgMIxs2VI,,,,,,,,,,,
,,,,,,,,,,,,,,p,1,1.02038,space,0.154485,0,12,12,94,1,15_dist_red/trial20.png,,,1,15,redHorizontal,p,52,20,female,2021-02-23_16h44.47.759,exp11,2020.2.6,Win32,60,IwAR2lyB9dd-vyCAj7CxUCfuRwfY1B-LMPXxJsjRhaQhN0EMTYOcSgMIxs2VI,,,,,,,,,,,
,,,,,,,,,,,,,,a,1,0.671595,space,0.134235,0,13,13,109,1,0_targ_1_dist_red/trial10.png,,,0,1,redHorizontal,a,52,20,female,2021-02-23_16h44.47.759,exp11,2020.2.6,Win32,60,IwAR2lyB9dd-vyCAj7CxUCfuRwfY1B-LMPXxJsjRhaQhN0EMTYOcSgMIxs2VI,,,,,,,,,,,
,,,,,,,,,,,,,,p,1,0.693565,space,0.15121,0,14,14,54,1,9_dist_red/trial5.png,,,1,9,redHorizontal,p,52,20,female,2021-02-23_16h44.47.759,exp11,2020.2.6,Win32,60,IwAR2lyB9dd-vyCAj7CxUCfuRwfY1B-LMPXxJsjRhaQhN0EMTYOcSgMIxs2VI,,,,,,,,,,,
,,,,,,,,,,,,,,a,1,0.789485,space,0.31158,0,15,15,158,1,0_targ_10_dist_red/trial9.png,,,0,10,redHorizontal,a,52,20,female,2021-02-23_16h44.47.759,exp11,2020.2.6,Win32,60,IwAR2lyB9dd-vyCAj7CxUCfuRwfY1B-LMPXxJsjRhaQhN0EMTYOcSgMIxs2VI,,,,,,,,,,,
,,,,,,,,,,,,,,p,1,0.58117,space,0.31006,0,16,16,87,1,15_dist_red/trial13.png,,,1,15,redHorizontal,p,52,20,female,2021-02-23_16h44.47.759,exp11,2020.2.6,Win32,60,IwAR2lyB9dd-vyCAj7CxUCfuRwfY1B-LMPXxJsjRhaQhN0EMTYOcSgMIxs2VI,,,,,,,,,,,
,,,,,,,,,,,,,,p,1,0.537405,space,0.19517,0,17,17,15,1,0_dist_red/trial16.png,,,1,0,redHorizontal,p,52,20,female,2021-02-23_16h44.47.759,exp11,2020.2.6,Win32,60,IwAR2lyB9dd-vyCAj7CxUCfuRwfY1B-LMPXxJsjRhaQhN0EMTYOcSgMIxs2VI,,,,,,,,,,,
,,,,,,,,,,,,,,a,1,0.72325,space,0.217285,0,18,18,162,1,0_targ_10_dist_red/trial13.png,,,0,10,redHorizontal,a,52,20,female,2021-02-23_16h44.47.759,exp11,2020.2.6,Win32,60,IwAR2lyB9dd-vyCAj7CxUCfuRwfY1B-LMPXxJsjRhaQhN0EMTYOcSgMIxs2VI,,,,,,,,,,,
,,,,,,,,,,,,,,p,1,0.5777,space,0.20563,0,19,19,52,1,9_dist_red/trial3.png,,,1,9,redHorizontal,p,52,20,female,2021-02-23_16h44.47.759,exp11,2020.2.6,Win32,60,IwAR2lyB9dd-vyCAj7CxUCfuRwfY1B-LMPXxJsjRhaQhN0EMTYOcSgMIxs2VI,,,,,,,,,,,
,,,,,,,,,,,,,,a,1,0.63013,space,0.15645,0,20,20,144,1,0_targ_4_dist_red/trial20.png,,,0,4,redHorizontal,a,52,20,female,2021-02-23_16h44.47.759,exp11,2020.2.6,Win32,60,IwAR2lyB9dd-vyCAj7CxUCfuRwfY1B-LMPXxJsjRhaQhN0EMTYOcSgMIxs2VI,,,,,,,,,,,
,,,,,,,,,,,,,,a,1,0.596645,space,0.16561,0,21,21,154,1,0_targ_10_dist_red/trial5.png,,,0,10,redHorizontal,a,52,20,female,2021-02-23_16h44.47.759,exp11,2020.2.6,Win32,60,IwAR2lyB9dd-vyCAj7CxUCfuRwfY1B-LMPXxJsjRhaQhN0EMTYOcSgMIxs2VI,,,,,,,,,,,
,,,,,,,,,,,,,,p,1,0.73637,space,0.19435,0,22,22,44,1,3_dist_red/trial20.png,,,1,3,redHorizontal,p,52,20,female,2021-02-23_16h44.47.759,exp11,2020.2.6,Win32,60,IwAR2lyB9dd-vyCAj7CxUCfuRwfY1B-LMPXxJsjRhaQhN0EMTYOcSgMIxs2VI,,,,,,,,,,,
,,,,,,,,,,,,,,p,1,0.59906,space,0.17874,0,23,23,65,1,9_dist_red/trial16.png,,,1,9,redHorizontal,p,52,20,female,2021-02-23_16h44.47.759,exp11,2020.2.6,Win32,60,IwAR2lyB9dd-vyCAj7CxUCfuRwfY1B-LMPXxJsjRhaQhN0EMTYOcSgMIxs2VI,,,,,,,,,,,
,,,,,,,,,,,,,,p,0,0.76595,space,1.32603,0,24,24,188,1,0_targ_16_dist_red/trial14.png,,,0,16,redHorizontal,a,52,20,female,2021-02-23_16h44.47.759,exp11,2020.2.6,Win32,60,IwAR2lyB9dd-vyCAj7CxUCfuRwfY1B-LMPXxJsjRhaQhN0EMTYOcSgMIxs2VI,,,,,,,,,,,
,,,,,,,,,,,,,,a,1,0.712125,space,0.344755,0,25,25,183,1,0_targ_16_dist_red/trial9.png,,,0,16,redHorizontal,a,52,20,female,2021-02-23_16h44.47.759,exp11,2020.2.6,Win32,60,IwAR2lyB9dd-vyCAj7CxUCfuRwfY1B-LMPXxJsjRhaQhN0EMTYOcSgMIxs2VI,,,,,,,,,,,
,,,,,,,,,,,,,,p,1,0.586625,space,0.218575,0,26,26,8,1,0_dist_red/trial9.png,,,1,0,redHorizontal,p,52,20,female,2021-02-23_16h44.47.759,exp11,2020.2.6,Win32,60,IwAR2lyB9dd-vyCAj7CxUCfuRwfY1B-LMPXxJsjRhaQhN0EMTYOcSgMIxs2VI,,,,,,,,,,,
,,,,,,,,,,,,,,a,1,0.774125,space,0.290625,0,27,27,194,1,0_targ_16_dist_red/trial20.png,,,0,16,redHorizontal,a,52,20,female,2021-02-23_16h44.47.759,exp11,2020.2.6,Win32,60,IwAR2lyB9dd-vyCAj7CxUCfuRwfY1B-LMPXxJsjRhaQhN0EMTYOcSgMIxs2VI,,,,,,,,,,,
,,,,,,,,,,,,,,p,1,0.72,space,0.284375,0,28,28,25,1,3_dist_red/trial1.png,,,1,3,redHorizontal,p,52,20,female,2021-02-23_16h44.47.759,exp11,2020.2.6,Win32,60,IwAR2lyB9dd-vyCAj7CxUCfuRwfY1B-LMPXxJsjRhaQhN0EMTYOcSgMIxs2VI,,,,,,,,,,,
,,,,,,,,,,,,,,p,1,0.55161,space,0.26963,0,29,29,82,1,15_dist_red/trial8.png,,,1,15,redHorizontal,p,52,20,female,2021-02-23_16h44.47.759,exp11,2020.2.6,Win32,60,IwAR2lyB9dd-vyCAj7CxUCfuRwfY1B-LMPXxJsjRhaQhN0EMTYOcSgMIxs2VI,,,,,,,,,,,
,,,,,,,,,,,,,,a,1,0.63097,space,0.18417,0,30,30,174,1,0_targ_10_dist_red/trial25.png,,,0,10,redHorizontal,a,52,20,female,2021-02-23_16h44.47.759,exp11,2020.2.6,Win32,60,IwAR2lyB9dd-vyCAj7CxUCfuRwfY1B-LMPXxJsjRhaQhN0EMTYOcSgMIxs2VI,,,,,,,,,,,
,,,,,,,,,,,,,,a,1,0.752325,space,0.503745,0,31,31,117,1,0_targ_1_dist_red/trial18.png,,,0,1,redHorizontal,a,52,20,female,2021-02-23_16h44.47.759,exp11,2020.2.6,Win32,60,IwAR2lyB9dd-vyCAj7CxUCfuRwfY1B-LMPXxJsjRhaQhN0EMTYOcSgMIxs2VI,,,,,,,,,,,
,,,,,,,,,,,,,,a,0,0.531815,space,1.8064,0,32,32,5,1,0_dist_red/trial6.png,,,1,0,redHorizontal,p,52,20,female,2021-02-23_16h44.47.759,exp11,2020.2.6,Win32,60,IwAR2lyB9dd-vyCAj7CxUCfuRwfY1B-LMPXxJsjRhaQhN0EMTYOcSgMIxs2VI,,,,,,,,,,,
,,,,,,,,,,,,,,a,1,0.972115,space,0.34771,0,33,33,101,1,0_targ_1_dist_red/trial2.png,,,0,1,redHorizontal,a,52,20,female,2021-02-23_16h44.47.759,exp11,2020.2.6,Win32,60,IwAR2lyB9dd-vyCAj7CxUCfuRwfY1B-LMPXxJsjRhaQhN0EMTYOcSgMIxs2VI,,,,,,,,,,,
,,,,,,,,,,,,,,a,1,0.7313,space,0.184895,0,34,34,145,1,0_targ_4_dist_red/trial21.png,,,0,4,redHorizontal,a,52,20,female,2021-02-23_16h44.47.759,exp11,2020.2.6,Win32,60,IwAR2lyB9dd-vyCAj7CxUCfuRwfY1B-LMPXxJsjRhaQhN0EMTYOcSgMIxs2VI,,,,,,,,,,,
,,,,,,,,,,,,,,a,1,0.562045,space,0.20568,0,35,35,128,1,0_targ_4_dist_red/trial4.png,,,0,4,redHorizontal,a,52,20,female,2021-02-23_16h44.47.759,exp11,2020.2.6,Win32,60,IwAR2lyB9dd-vyCAj7CxUCfuRwfY1B-LMPXxJsjRhaQhN0EMTYOcSgMIxs2VI,,,,,,,,,,,
,,,,,,,,,,,,,,a,1,0.540155,space,0.15403,0,36,36,153,1,0_targ_10_dist_red/trial4.png,,,0,10,redHorizontal,a,52,20,female,2021-02-23_16h44.47.759,exp11,2020.2.6,Win32,60,IwAR2lyB9dd-vyCAj7CxUCfuRwfY1B-LMPXxJsjRhaQhN0EMTYOcSgMIxs2VI,,,,,,,,,,,
,,,,,,,,,,,,,,a,1,0.63442,space,0.17465,0,37,37,159,1,0_targ_10_dist_red/trial10.png,,,0,10,redHorizontal,a,52,20,female,2021-02-23_16h44.47.759,exp11,2020.2.6,Win32,60,IwAR2lyB9dd-vyCAj7CxUCfuRwfY1B-LMPXxJsjRhaQhN0EMTYOcSgMIxs2VI,,,,,,,,,,,
,,,,,,,,,,,,,,p,1,0.59852,space,0.25031,0,38,38,73,1,9_dist_red/trial24.png,,,1,9,redHorizontal,p,52,20,female,2021-02-23_16h44.47.759,exp11,2020.2.6,Win32,60,IwAR2lyB9dd-vyCAj7CxUCfuRwfY1B-LMPXxJsjRhaQhN0EMTYOcSgMIxs2VI,,,,,,,,,,,
,,,,,,,,,,,,,,a,1,0.67638,space,0.217565,0,39,39,127,1,0_targ_4_dist_red/trial3.png,,,0,4,redHorizontal,a,52,20,female,2021-02-23_16h44.47.759,exp11,2020.2.6,Win32,60,IwAR2lyB9dd-vyCAj7CxUCfuRwfY1B-LMPXxJsjRhaQhN0EMTYOcSgMIxs2VI,,,,,,,,,,,
,,,,,,,,,,,,,,a,1,0.61451,space,0.16689,0,40,40,130,1,0_targ_4_dist_red/trial6.png,,,0,4,redHorizontal,a,52,20,female,2021-02-23_16h44.47.759,exp11,2020.2.6,Win32,60,IwAR2lyB9dd-vyCAj7CxUCfuRwfY1B-LMPXxJsjRhaQhN0EMTYOcSgMIxs2VI,,,,,,,,,,,
,,,,,,,,,,,,,,a,1,1.5912,space,0.544585,0,41,41,160,1,0_targ_10_dist_red/trial11.png,,,0,10,redHorizontal,a,52,20,female,2021-02-23_16h44.47.759,exp11,2020.2.6,Win32,60,IwAR2lyB9dd-vyCAj7CxUCfuRwfY1B-LMPXxJsjRhaQhN0EMTYOcSgMIxs2VI,,,,,,,,,,,
,,,,,,,,,,,,,,p,1,0.61633,space,0.32248,0,42,42,95,1,15_dist_red/trial21.png,,,1,15,redHorizontal,p,52,20,female,2021-02-23_16h44.47.759,exp11,2020.2.6,Win32,60,IwAR2lyB9dd-vyCAj7CxUCfuRwfY1B-LMPXxJsjRhaQhN0EMTYOcSgMIxs2VI,,,,,,,,,,,
,,,,,,,,,,,,,,a,1,0.54167,space,0.351325,0,43,43,136,1,0_targ_4_dist_red/trial12.png,,,0,4,redHorizontal,a,52,20,female,2021-02-23_16h44.47.759,exp11,2020.2.6,Win32,60,IwAR2lyB9dd-vyCAj7CxUCfuRwfY1B-LMPXxJsjRhaQhN0EMTYOcSgMIxs2VI,,,,,,,,,,,
,,,,,,,,,,,,,,p,1,0.63401,space,0.25736,0,44,44,48,1,3_dist_red/trial24.png,,,1,3,redHorizontal,p,52,20,female,2021-02-23_16h44.47.759,exp11,2020.2.6,Win32,60,IwAR2lyB9dd-vyCAj7CxUCfuRwfY1B-LMPXxJsjRhaQhN0EMTYOcSgMIxs2VI,,,,,,,,,,,
,,,,,,,,,,,,,,a,1,0.546915,space,0.252,0,45,45,165,1,0_targ_10_dist_red/trial16.png,,,0,10,redHorizontal,a,52,20,female,2021-02-23_16h44.47.759,exp11,2020.2.6,Win32,60,IwAR2lyB9dd-vyCAj7CxUCfuRwfY1B-LMPXxJsjRhaQhN0EMTYOcSgMIxs2VI,,,,,,,,,,,
,,,,,,,,,,,,,,p,1,0.45373,space,0.237795,0,46,46,43,1,3_dist_red/trial19.png,,,1,3,redHorizontal,p,52,20,female,2021-02-23_16h44.47.759,exp11,2020.2.6,Win32,60,IwAR2lyB9dd-vyCAj7CxUCfuRwfY1B-LMPXxJsjRhaQhN0EMTYOcSgMIxs2VI,,,,,,,,,,,
,,,,,,,,,,,,,,a,1,0.50799,space,0.18404,0,47,47,125,1,0_targ_4_dist_red/trial1.png,,,0,4,redHorizontal,a,52,20,female,2021-02-23_16h44.47.759,exp11,2020.2.6,Win32,60,IwAR2lyB9dd-vyCAj7CxUCfuRwfY1B-LMPXxJsjRhaQhN0EMTYOcSgMIxs2VI,,,,,,,,,,,
,,,,,,,,,,,,,,p,1,0.652545,space,0.24132,0,48,48,64,1,9_dist_red/trial15.png,,,1,9,redHorizontal,p,52,20,female,2021-02-23_16h44.47.759,exp11,2020.2.6,Win32,60,IwAR2lyB9dd-vyCAj7CxUCfuRwfY1B-LMPXxJsjRhaQhN0EMTYOcSgMIxs2VI,,,,,,,,,,,
,,,,,,,,,,,,,,a,1,1.44016,space,0.52354,0,49,49,123,1,0_targ_1_dist_red/trial24.png,,,0,1,redHorizontal,a,52,20,female,2021-02-23_16h44.47.759,exp11,2020.2.6,Win32,60,IwAR2lyB9dd-vyCAj7CxUCfuRwfY1B-LMPXxJsjRhaQhN0EMTYOcSgMIxs2VI,,,,,,,,,,,
,,,,,,,,,,,,,,p,1,1.032475,space,0.25053,0,50,50,71,1,9_dist_red/trial22.png,,,1,9,redHorizontal,p,52,20,female,2021-02-23_16h44.47.759,exp11,2020.2.6,Win32,60,IwAR2lyB9dd-vyCAj7CxUCfuRwfY1B-LMPXxJsjRhaQhN0EMTYOcSgMIxs2VI,,,,,,,,,,,
,,,,,,,,,,,,,,a,1,0.585685,space,0.183945,0,51,51,122,1,0_targ_1_dist_red/trial23.png,,,0,1,redHorizontal,a,52,20,female,2021-02-23_16h44.47.759,exp11,2020.2.6,Win32,60,IwAR2lyB9dd-vyCAj7CxUCfuRwfY1B-LMPXxJsjRhaQhN0EMTYOcSgMIxs2VI,,,,,,,,,,,
,,,,,,,,,,,,,,a,1,1.548765,space,0.666445,0,52,52,192,1,0_targ_16_dist_red/trial18.png,,,0,16,redHorizontal,a,52,20,female,2021-02-23_16h44.47.759,exp11,2020.2.6,Win32,60,IwAR2lyB9dd-vyCAj7CxUCfuRwfY1B-LMPXxJsjRhaQhN0EMTYOcSgMIxs2VI,,,,,,,,,,,
,,,,,,,,,,,,,,a,1,1.481325,space,0.26831,0,53,53,118,1,0_targ_1_dist_red/trial19.png,,,0,1,redHorizontal,a,52,20,female,2021-02-23_16h44.47.759,exp11,2020.2.6,Win32,60,IwAR2lyB9dd-vyCAj7CxUCfuRwfY1B-LMPXxJsjRhaQhN0EMTYOcSgMIxs2VI,,,,,,,,,,,
,,,,,,,,,,,,,,a,1,1.071865,space,0.31836,0,54,54,135,1,0_targ_4_dist_red/trial11.png,,,0,4,redHorizontal,a,52,20,female,2021-02-23_16h44.47.759,exp11,2020.2.6,Win32,60,IwAR2lyB9dd-vyCAj7CxUCfuRwfY1B-LMPXxJsjRhaQhN0EMTYOcSgMIxs2VI,,,,,,,,,,,
,,,,,,,,,,,,,,a,1,0.587195,space,0.271025,0,55,55,156,1,0_targ_10_dist_red/trial7.png,,,0,10,redHorizontal,a,52,20,female,2021-02-23_16h44.47.759,exp11,2020.2.6,Win32,60,IwAR2lyB9dd-vyCAj7CxUCfuRwfY1B-LMPXxJsjRhaQhN0EMTYOcSgMIxs2VI,,,,,,,,,,,
,,,,,,,,,,,,,,p,1,0.442285,space,0.342105,0,56,56,24,1,0_dist_red/trial25.png,,,1,0,redHorizontal,p,52,20,female,2021-02-23_16h44.47.759,exp11,2020.2.6,Win32,60,IwAR2lyB9dd-vyCAj7CxUCfuRwfY1B-LMPXxJsjRhaQhN0EMTYOcSgMIxs2VI,,,,,,,,,,,
,,,,,,,,,,,,,,p,1,0.67374,space,0.184015,0,57,57,62,1,9_dist_red/trial13.png,,,1,9,redHorizontal,p,52,20,female,2021-02-23_16h44.47.759,exp11,2020.2.6,Win32,60,IwAR2lyB9dd-vyCAj7CxUCfuRwfY1B-LMPXxJsjRhaQhN0EMTYOcSgMIxs2VI,,,,,,,,,,,
,,,,,,,,,,,,,,p,1,0.59721,space,0.1792,0,58,58,21,1,0_dist_red/trial22.png,,,1,0,redHorizontal,p,52,20,female,2021-02-23_16h44.47.759,exp11,2020.2.6,Win32,60,IwAR2lyB9dd-vyCAj7CxUCfuRwfY1B-LMPXxJsjRhaQhN0EMTYOcSgMIxs2VI,,,,,,,,,,,
,,,,,,,,,,,,,,a,1,1.07171,space,0.28765,0,59,59,191,1,0_targ_16_dist_red/trial17.png,,,0,16,redHorizontal,a,52,20,female,2021-02-23_16h44.47.759,exp11,2020.2.6,Win32,60,IwAR2lyB9dd-vyCAj7CxUCfuRwfY1B-LMPXxJsjRhaQhN0EMTYOcSgMIxs2VI,,,,,,,,,,,
,,,,,,,,,,,,,,p,1,0.477235,space,0.20766,0,60,60,66,1,9_dist_red/trial17.png,,,1,9,redHorizontal,p,52,20,female,2021-02-23_16h44.47.759,exp11,2020.2.6,Win32,60,IwAR2lyB9dd-vyCAj7CxUCfuRwfY1B-LMPXxJsjRhaQhN0EMTYOcSgMIxs2VI,,,,,,,,,,,
,,,,,,,,,,,,,,a,1,0.53379,space,0.149735,0,61,61,173,1,0_targ_10_dist_red/trial24.png,,,0,10,redHorizontal,a,52,20,female,2021-02-23_16h44.47.759,exp11,2020.2.6,Win32,60,IwAR2lyB9dd-vyCAj7CxUCfuRwfY1B-LMPXxJsjRhaQhN0EMTYOcSgMIxs2VI,,,,,,,,,,,
,,,,,,,,,,,,,,p,1,0.5024,space,0.174145,0,62,62,81,1,15_dist_red/trial7.png,,,1,15,redHorizontal,p,52,20,female,2021-02-23_16h44.47.759,exp11,2020.2.6,Win32,60,IwAR2lyB9dd-vyCAj7CxUCfuRwfY1B-LMPXxJsjRhaQhN0EMTYOcSgMIxs2VI,,,,,,,,,,,
,,,,,,,,,,,,,,p,1,0.58315,space,0.533845,0,63,63,20,1,0_dist_red/trial21.png,,,1,0,redHorizontal,p,52,20,female,2021-02-23_16h44.47.759,exp11,2020.2.6,Win32,60,IwAR2lyB9dd-vyCAj7CxUCfuRwfY1B-LMPXxJsjRhaQhN0EMTYOcSgMIxs2VI,,,,,,,,,,,
,,,,,,,,,,,,,,a,1,0.575025,space,0.169645,0,64,64,196,1,0_targ_16_dist_red/trial22.png,,,0,16,redHorizontal,a,52,20,female,2021-02-23_16h44.47.759,exp11,2020.2.6,Win32,60,IwAR2lyB9dd-vyCAj7CxUCfuRwfY1B-LMPXxJsjRhaQhN0EMTYOcSgMIxs2VI,,,,,,,,,,,
,,,,,,,,,,,,,,p,0,0.496155,space,0.85268,0,65,65,133,1,0_targ_4_dist_red/trial9.png,,,0,4,redHorizontal,a,52,20,female,2021-02-23_16h44.47.759,exp11,2020.2.6,Win32,60,IwAR2lyB9dd-vyCAj7CxUCfuRwfY1B-LMPXxJsjRhaQhN0EMTYOcSgMIxs2VI,,,,,,,,,,,
,,,,,,,,,,,,,,a,0,0.49034,space,0.93849,0,66,66,84,1,15_dist_red/trial10.png,,,1,15,redHorizontal,p,52,20,female,2021-02-23_16h44.47.759,exp11,2020.2.6,Win32,60,IwAR2lyB9dd-vyCAj7CxUCfuRwfY1B-LMPXxJsjRhaQhN0EMTYOcSgMIxs2VI,,,,,,,,,,,
,,,,,,,,,,,,,,a,1,0.720345,space,0.34247,0,67,67,110,1,0_targ_1_dist_red/trial11.png,,,0,1,redHorizontal,a,52,20,female,2021-02-23_16h44.47.759,exp11,2020.2.6,Win32,60,IwAR2lyB9dd-vyCAj7CxUCfuRwfY1B-LMPXxJsjRhaQhN0EMTYOcSgMIxs2VI,,,,,,,,,,,
,,,,,,,,,,,,,,p,1,0.578335,space,0.26649,0,68,68,68,1,9_dist_red/trial19.png,,,1,9,redHorizontal,p,52,20,female,2021-02-23_16h44.47.759,exp11,2020.2.6,Win32,60,IwAR2lyB9dd-vyCAj7CxUCfuRwfY1B-LMPXxJsjRhaQhN0EMTYOcSgMIxs2VI,,,,,,,,,,,
,,,,,,,,,,,,,,a,1,0.591535,space,0.12459,0,69,69,187,1,0_targ_16_dist_red/trial13.png,,,0,16,redHorizontal,a,52,20,female,2021-02-23_16h44.47.759,exp11,2020.2.6,Win32,60,IwAR2lyB9dd-vyCAj7CxUCfuRwfY1B-LMPXxJsjRhaQhN0EMTYOcSgMIxs2VI,,,,,,,,,,,
,,,,,,,,,,,,,,p,1,0.6178,space,0.17042,0,70,70,63,1,9_dist_red/trial14.png,,,1,9,redHorizontal,p,52,20,female,2021-02-23_16h44.47.759,exp11,2020.2.6,Win32,60,IwAR2lyB9dd-vyCAj7CxUCfuRwfY1B-LMPXxJsjRhaQhN0EMTYOcSgMIxs2VI,,,,,,,,,,,
,,,,,,,,,,,,,,a,0,0.704095,space,1.734925,0,71,71,23,1,0_dist_red/trial24.png,,,1,0,redHorizontal,p,52,20,female,2021-02-23_16h44.47.759,exp11,2020.2.6,Win32,60,IwAR2lyB9dd-vyCAj7CxUCfuRwfY1B-LMPXxJsjRhaQhN0EMTYOcSgMIxs2VI,,,,,,,,,,,
,,,,,,,,,,,,,,p,1,0.6515,space,0.242855,0,72,72,0,1,0_dist_red/trial1.png,,,1,0,redHorizontal,p,52,20,female,2021-02-23_16h44.47.759,exp11,2020.2.6,Win32,60,IwAR2lyB9dd-vyCAj7CxUCfuRwfY1B-LMPXxJsjRhaQhN0EMTYOcSgMIxs2VI,,,,,,,,,,,
,,,,,,,,,,,,,,p,1,0.75275,space,0.210025,0,73,73,79,1,15_dist_red/trial5.png,,,1,15,redHorizontal,p,52,20,female,2021-02-23_16h44.47.759,exp11,2020.2.6,Win32,60,IwAR2lyB9dd-vyCAj7CxUCfuRwfY1B-LMPXxJsjRhaQhN0EMTYOcSgMIxs2VI,,,,,,,,,,,
,,,,,,,,,,,,,,a,1,0.61645,space,0.150675,0,74,74,179,1,0_targ_16_dist_red/trial5.png,,,0,16,redHorizontal,a,52,20,female,2021-02-23_16h44.47.759,exp11,2020.2.6,Win32,60,IwAR2lyB9dd-vyCAj7CxUCfuRwfY1B-LMPXxJsjRhaQhN0EMTYOcSgMIxs2VI,,,,,,,,,,,
,,,,,,,,,,,,,,p,1,0.58957,space,0.151565,0,75,75,69,1,9_dist_red/trial20.png,,,1,9,redHorizontal,p,52,20,female,2021-02-23_16h44.47.759,exp11,2020.2.6,Win32,60,IwAR2lyB9dd-vyCAj7CxUCfuRwfY1B-LMPXxJsjRhaQhN0EMTYOcSgMIxs2VI,,,,,,,,,,,
,,,,,,,,,,,,,,p,1,0.54791,space,0.176745,0,76,76,16,1,0_dist_red/trial17.png,,,1,0,redHorizontal,p,52,20,female,2021-02-23_16h44.47.759,exp11,2020.2.6,Win32,60,IwAR2lyB9dd-vyCAj7CxUCfuRwfY1B-LMPXxJsjRhaQhN0EMTYOcSgMIxs2VI,,,,,,,,,,,
,,,,,,,,,,,,,,p,0,0.527455,space,0.836435,0,77,77,103,1,0_targ_1_dist_red/trial4.png,,,0,1,redHorizontal,a,52,20,female,2021-02-23_16h44.47.759,exp11,2020.2.6,Win32,60,IwAR2lyB9dd-vyCAj7CxUCfuRwfY1B-LMPXxJsjRhaQhN0EMTYOcSgMIxs2VI,,,,,,,,,,,
,,,,,,,,,,,,,,a,1,1.494,space,0.34804,0,78,78,197,1,0_targ_16_dist_red/trial23.png,,,0,16,redHorizontal,a,52,20,female,2021-02-23_16h44.47.759,exp11,2020.2.6,Win32,60,IwAR2lyB9dd-vyCAj7CxUCfuRwfY1B-LMPXxJsjRhaQhN0EMTYOcSgMIxs2VI,,,,,,,,,,,
,,,,,,,,,,,,,,p,1,0.52905,space,0.234555,0,79,79,72,1,9_dist_red/trial23.png,,,1,9,redHorizontal,p,52,20,female,2021-02-23_16h44.47.759,exp11,2020.2.6,Win32,60,IwAR2lyB9dd-vyCAj7CxUCfuRwfY1B-LMPXxJsjRhaQhN0EMTYOcSgMIxs2VI,,,,,,,,,,,
,,,,,,,,,,,,,,p,1,0.43429,space,0.227405,0,80,80,14,1,0_dist_red/trial15.png,,,1,0,redHorizontal,p,52,20,female,2021-02-23_16h44.47.759,exp11,2020.2.6,Win32,60,IwAR2lyB9dd-vyCAj7CxUCfuRwfY1B-LMPXxJsjRhaQhN0EMTYOcSgMIxs2VI,,,,,,,,,,,
,,,,,,,,,,,,,,a,1,0.61567,space,0.19994,0,81,81,190,1,0_targ_16_dist_red/trial16.png,,,0,16,redHorizontal,a,52,20,female,2021-02-23_16h44.47.759,exp11,2020.2.6,Win32,60,IwAR2lyB9dd-vyCAj7CxUCfuRwfY1B-LMPXxJsjRhaQhN0EMTYOcSgMIxs2VI,,,,,,,,,,,
,,,,,,,,,,,,,,p,1,0.50211,space,0.38728,0,82,82,78,1,15_dist_red/trial4.png,,,1,15,redHorizontal,p,52,20,female,2021-02-23_16h44.47.759,exp11,2020.2.6,Win32,60,IwAR2lyB9dd-vyCAj7CxUCfuRwfY1B-LMPXxJsjRhaQhN0EMTYOcSgMIxs2VI,,,,,,,,,,,
,,,,,,,,,,,,,,p,1,0.45146,space,0.220195,0,83,83,49,1,3_dist_red/trial25.png,,,1,3,redHorizontal,p,52,20,female,2021-02-23_16h44.47.759,exp11,2020.2.6,Win32,60,IwAR2lyB9dd-vyCAj7CxUCfuRwfY1B-LMPXxJsjRhaQhN0EMTYOcSgMIxs2VI,,,,,,,,,,,
,,,,,,,,,,,,,,p,1,0.50317,space,0.19545,0,84,84,33,1,3_dist_red/trial9.png,,,1,3,redHorizontal,p,52,20,female,2021-02-23_16h44.47.759,exp11,2020.2.6,Win32,60,IwAR2lyB9dd-vyCAj7CxUCfuRwfY1B-LMPXxJsjRhaQhN0EMTYOcSgMIxs2VI,,,,,,,,,,,
,,,,,,,,,,,,,,p,1,0.468315,space,0.192875,0,85,85,42,1,3_dist_red/trial18.png,,,1,3,redHorizontal,p,52,20,female,2021-02-23_16h44.47.759,exp11,2020.2.6,Win32,60,IwAR2lyB9dd-vyCAj7CxUCfuRwfY1B-LMPXxJsjRhaQhN0EMTYOcSgMIxs2VI,,,,,,,,,,,
,,,,,,,,,,,,,,p,1,0.43024,space,0.201015,0,86,86,9,1,0_dist_red/trial10.png,,,1,0,redHorizontal,p,52,20,female,2021-02-23_16h44.47.759,exp11,2020.2.6,Win32,60,IwAR2lyB9dd-vyCAj7CxUCfuRwfY1B-LMPXxJsjRhaQhN0EMTYOcSgMIxs2VI,,,,,,,,,,,
,,,,,,,,,,,,,,p,0,0.9514,space,0.07145,0,87,87,107,1,0_targ_1_dist_red/trial8.png,,,0,1,redHorizontal,a,52,20,female,2021-02-23_16h44.47.759,exp11,2020.2.6,Win32,60,IwAR2lyB9dd-vyCAj7CxUCfuRwfY1B-LMPXxJsjRhaQhN0EMTYOcSgMIxs2VI,,,,,,,,,,,
,,,,,,,,,,,,,,p,1,0.59595,space,0.194665,0,88,88,58,1,9_dist_red/trial9.png,,,1,9,redHorizontal,p,52,20,female,2021-02-23_16h44.47.759,exp11,2020.2.6,Win32,60,IwAR2lyB9dd-vyCAj7CxUCfuRwfY1B-LMPXxJsjRhaQhN0EMTYOcSgMIxs2VI,,,,,,,,,,,
,,,,,,,,,,,,,,p,1,0.74926,space,0.16753,0,89,89,29,1,3_dist_red/trial5.png,,,1,3,redHorizontal,p,52,20,female,2021-02-23_16h44.47.759,exp11,2020.2.6,Win32,60,IwAR2lyB9dd-vyCAj7CxUCfuRwfY1B-LMPXxJsjRhaQhN0EMTYOcSgMIxs2VI,,,,,,,,,,,
,,,,,,,,,,,,,,a,1,0.60774,space,0.145135,0,90,90,115,1,0_targ_1_dist_red/trial6.png,,,0,1,redHorizontal,a,52,20,female,2021-02-23_16h44.47.759,exp11,2020.2.6,Win32,60,IwAR2lyB9dd-vyCAj7CxUCfuRwfY1B-LMPXxJsjRhaQhN0EMTYOcSgMIxs2VI,,,,,,,,,,,
,,,,,,,,,,,,,,p,1,0.510875,space,0.23801,0,91,91,61,1,9_dist_red/trial12.png,,,1,9,redHorizontal,p,52,20,female,2021-02-23_16h44.47.759,exp11,2020.2.6,Win32,60,IwAR2lyB9dd-vyCAj7CxUCfuRwfY1B-LMPXxJsjRhaQhN0EMTYOcSgMIxs2VI,,,,,,,,,,,
,,,,,,,,,,,,,,a,1,1.076335,space,0.24585,0,92,92,141,1,0_targ_4_dist_red/trial17.png,,,0,4,redHorizontal,a,52,20,female,2021-02-23_16h44.47.759,exp11,2020.2.6,Win32,60,IwAR2lyB9dd-vyCAj7CxUCfuRwfY1B-LMPXxJsjRhaQhN0EMTYOcSgMIxs2VI,,,,,,,,,,,
,,,,,,,,,,,,,,p,1,1.21818,space,0.155715,0,93,93,55,1,9_dist_red/trial6.png,,,1,9,redHorizontal,p,52,20,female,2021-02-23_16h44.47.759,exp11,2020.2.6,Win32,60,IwAR2lyB9dd-vyCAj7CxUCfuRwfY1B-LMPXxJsjRhaQhN0EMTYOcSgMIxs2VI,,,,,,,,,,,
,,,,,,,,,,,,,,p,1,0.6513,space,0.10145,0,94,94,92,1,15_dist_red/trial18.png,,,1,15,redHorizontal,p,52,20,female,2021-02-23_16h44.47.759,exp11,2020.2.6,Win32,60,IwAR2lyB9dd-vyCAj7CxUCfuRwfY1B-LMPXxJsjRhaQhN0EMTYOcSgMIxs2VI,,,,,,,,,,,
,,,,,,,,,,,,,,p,1,0.52377,space,0.119945,0,95,95,1,1,0_dist_red/trial2.png,,,1,0,redHorizontal,p,52,20,female,2021-02-23_16h44.47.759,exp11,2020.2.6,Win32,60,IwAR2lyB9dd-vyCAj7CxUCfuRwfY1B-LMPXxJsjRhaQhN0EMTYOcSgMIxs2VI,,,,,,,,,,,
,,,,,,,,,,,,,,p,1,0.79753,space,0.150835,0,96,96,91,1,15_dist_red/trial17.png,,,1,15,redHorizontal,p,52,20,female,2021-02-23_16h44.47.759,exp11,2020.2.6,Win32,60,IwAR2lyB9dd-vyCAj7CxUCfuRwfY1B-LMPXxJsjRhaQhN0EMTYOcSgMIxs2VI,,,,,,,,,,,
,,,,,,,,,,,,,,a,1,0.51836,space,0.30829,0,97,97,124,1,0_targ_1_dist_red/trial25.png,,,0,1,redHorizontal,a,52,20,female,2021-02-23_16h44.47.759,exp11,2020.2.6,Win32,60,IwAR2lyB9dd-vyCAj7CxUCfuRwfY1B-LMPXxJsjRhaQhN0EMTYOcSgMIxs2VI,,,,,,,,,,,
,,,,,,,,,,,,,,p,1,0.81684,space,0.125025,0,98,98,27,1,3_dist_red/trial3.png,,,1,3,redHorizontal,p,52,20,female,2021-02-23_16h44.47.759,exp11,2020.2.6,Win32,60,IwAR2lyB9dd-vyCAj7CxUCfuRwfY1B-LMPXxJsjRhaQhN0EMTYOcSgMIxs2VI,,,,,,,,,,,
,,,,,,,,,,,,,,a,1,1.339815,space,0.178845,0,99,99,182,1,0_targ_16_dist_red/trial8.png,,,0,16,redHorizontal,a,52,20,female,2021-02-23_16h44.47.759,exp11,2020.2.6,Win32,60,IwAR2lyB9dd-vyCAj7CxUCfuRwfY1B-LMPXxJsjRhaQhN0EMTYOcSgMIxs2VI,,,,,,,,,,,
,,,,,,,,,,,,,,a,1,0.697025,space,0.11242,0,100,100,155,1,0_targ_10_dist_red/trial6.png,,,0,10,redHorizontal,a,52,20,female,2021-02-23_16h44.47.759,exp11,2020.2.6,Win32,60,IwAR2lyB9dd-vyCAj7CxUCfuRwfY1B-LMPXxJsjRhaQhN0EMTYOcSgMIxs2VI,,,,,,,,,,,
,,,,,,,,,,,,,,p,1,0.51965,space,0.07446,0,101,101,38,1,3_dist_red/trial14.png,,,1,3,redHorizontal,p,52,20,female,2021-02-23_16h44.47.759,exp11,2020.2.6,Win32,60,IwAR2lyB9dd-vyCAj7CxUCfuRwfY1B-LMPXxJsjRhaQhN0EMTYOcSgMIxs2VI,,,,,,,,,,,
,,,,,,,,,,,,,,a,1,1.07998,space,0.15066,0,102,102,166,1,0_targ_10_dist_red/trial17.png,,,0,10,redHorizontal,a,52,20,female,2021-02-23_16h44.47.759,exp11,2020.2.6,Win32,60,IwAR2lyB9dd-vyCAj7CxUCfuRwfY1B-LMPXxJsjRhaQhN0EMTYOcSgMIxs2VI,,,,,,,,,,,
,,,,,,,,,,,,,,a,1,0.693125,space,0.167095,0,103,103,119,1,0_targ_1_dist_red/trial20.png,,,0,1,redHorizontal,a,52,20,female,2021-02-23_16h44.47.759,exp11,2020.2.6,Win32,60,IwAR2lyB9dd-vyCAj7CxUCfuRwfY1B-LMPXxJsjRhaQhN0EMTYOcSgMIxs2VI,,,,,,,,,,,
,,,,,,,,,,,,,,p,1,0.578475,space,0.133505,0,104,104,57,1,9_dist_red/trial8.png,,,1,9,redHorizontal,p,52,20,female,2021-02-23_16h44.47.759,exp11,2020.2.6,Win32,60,IwAR2lyB9dd-vyCAj7CxUCfuRwfY1B-LMPXxJsjRhaQhN0EMTYOcSgMIxs2VI,,,,,,,,,,,
,,,,,,,,,,,,,,a,0,0.68558,space,4.585725,0,105,105,51,1,9_dist_red/trial2.png,,,1,9,redHorizontal,p,52,20,female,2021-02-23_16h44.47.759,exp11,2020.2.6,Win32,60,IwAR2lyB9dd-vyCAj7CxUCfuRwfY1B-LMPXxJsjRhaQhN0EMTYOcSgMIxs2VI,,,,,,,,,,,
,,,,,,,,,,,,,,p,1,0.991615,space,0.320515,0,106,106,18,1,0_dist_red/trial19.png,,,1,0,redHorizontal,p,52,20,female,2021-02-23_16h44.47.759,exp11,2020.2.6,Win32,60,IwAR2lyB9dd-vyCAj7CxUCfuRwfY1B-LMPXxJsjRhaQhN0EMTYOcSgMIxs2VI,,,,,,,,,,,
,,,,,,,,,,,,,,p,1,0.6347,space,0.24317,0,107,107,96,1,15_dist_red/trial22.png,,,1,15,redHorizontal,p,52,20,female,2021-02-23_16h44.47.759,exp11,2020.2.6,Win32,60,IwAR2lyB9dd-vyCAj7CxUCfuRwfY1B-LMPXxJsjRhaQhN0EMTYOcSgMIxs2VI,,,,,,,,,,,
,,,,,,,,,,,,,,p,1,0.589645,space,0.316375,0,108,108,26,1,3_dist_red/trial2.png,,,1,3,redHorizontal,p,52,20,female,2021-02-23_16h44.47.759,exp11,2020.2.6,Win32,60,IwAR2lyB9dd-vyCAj7CxUCfuRwfY1B-LMPXxJsjRhaQhN0EMTYOcSgMIxs2VI,,,,,,,,,,,
,,,,,,,,,,,,,,a,1,0.63757,space,0.165925,0,109,109,198,1,0_targ_16_dist_red/trial24.png,,,0,16,redHorizontal,a,52,20,female,2021-02-23_16h44.47.759,exp11,2020.2.6,Win32,60,IwAR2lyB9dd-vyCAj7CxUCfuRwfY1B-LMPXxJsjRhaQhN0EMTYOcSgMIxs2VI,,,,,,,,,,,
,,,,,,,,,,,,,,a,1,0.68402,space,0.24094,0,110,110,131,1,0_targ_4_dist_red/trial7.png,,,0,4,redHorizontal,a,52,20,female,2021-02-23_16h44.47.759,exp11,2020.2.6,Win32,60,IwAR2lyB9dd-vyCAj7CxUCfuRwfY1B-LMPXxJsjRhaQhN0EMTYOcSgMIxs2VI,,,,,,,,,,,
,,,,,,,,,,,,,,a,1,0.82031,space,0.20794,0,111,111,104,1,0_targ_1_dist_red/trial5.png,,,0,1,redHorizontal,a,52,20,female,2021-02-23_16h44.47.759,exp11,2020.2.6,Win32,60,IwAR2lyB9dd-vyCAj7CxUCfuRwfY1B-LMPXxJsjRhaQhN0EMTYOcSgMIxs2VI,,,,,,,,,,,
,,,,,,,,,,,,,,a,1,0.657405,space,0.184785,0,112,112,178,1,0_targ_16_dist_red/trial4.png,,,0,16,redHorizontal,a,52,20,female,2021-02-23_16h44.47.759,exp11,2020.2.6,Win32,60,IwAR2lyB9dd-vyCAj7CxUCfuRwfY1B-LMPXxJsjRhaQhN0EMTYOcSgMIxs2VI,,,,,,,,,,,
,,,,,,,,,,,,,,a,1,1.08322,space,0.21012,0,113,113,185,1,0_targ_16_dist_red/trial11.png,,,0,16,redHorizontal,a,52,20,female,2021-02-23_16h44.47.759,exp11,2020.2.6,Win32,60,IwAR2lyB9dd-vyCAj7CxUCfuRwfY1B-LMPXxJsjRhaQhN0EMTYOcSgMIxs2VI,,,,,,,,,,,
,,,,,,,,,,,,,,p,1,0.49902,space,0.36645,0,114,114,17,1,0_dist_red/trial18.png,,,1,0,redHorizontal,p,52,20,female,2021-02-23_16h44.47.759,exp11,2020.2.6,Win32,60,IwAR2lyB9dd-vyCAj7CxUCfuRwfY1B-LMPXxJsjRhaQhN0EMTYOcSgMIxs2VI,,,,,,,,,,,
,,,,,,,,,,,,,,a,1,0.808355,space,0.229215,0,115,115,152,1,0_targ_10_dist_red/trial3.png,,,0,10,redHorizontal,a,52,20,female,2021-02-23_16h44.47.759,exp11,2020.2.6,Win32,60,IwAR2lyB9dd-vyCAj7CxUCfuRwfY1B-LMPXxJsjRhaQhN0EMTYOcSgMIxs2VI,,,,,,,,,,,
,,,,,,,,,,,,,,p,1,0.51881,space,0.298955,0,116,116,3,1,0_dist_red/trial4.png,,,1,0,redHorizontal,p,52,20,female,2021-02-23_16h44.47.759,exp11,2020.2.6,Win32,60,IwAR2lyB9dd-vyCAj7CxUCfuRwfY1B-LMPXxJsjRhaQhN0EMTYOcSgMIxs2VI,,,,,,,,,,,
,,,,,,,,,,,,,,a,1,0.63362,space,0.19143,0,117,117,129,1,0_targ_4_dist_red/trial5.png,,,0,4,redHorizontal,a,52,20,female,2021-02-23_16h44.47.759,exp11,2020.2.6,Win32,60,IwAR2lyB9dd-vyCAj7CxUCfuRwfY1B-LMPXxJsjRhaQhN0EMTYOcSgMIxs2VI,,,,,,,,,,,
,,,,,,,,,,,,,,p,1,0.513085,space,0.16732,0,118,118,56,1,9_dist_red/trial7.png,,,1,9,redHorizontal,p,52,20,female,2021-02-23_16h44.47.759,exp11,2020.2.6,Win32,60,IwAR2lyB9dd-vyCAj7CxUCfuRwfY1B-LMPXxJsjRhaQhN0EMTYOcSgMIxs2VI,,,,,,,,,,,
,,,,,,,,,,,,,,a,1,0.517695,space,0.13604,0,119,119,148,1,0_targ_4_dist_red/trial24.png,,,0,4,redHorizontal,a,52,20,female,2021-02-23_16h44.47.759,exp11,2020.2.6,Win32,60,IwAR2lyB9dd-vyCAj7CxUCfuRwfY1B-LMPXxJsjRhaQhN0EMTYOcSgMIxs2VI,,,,,,,,,,,
,,,,,,,,,,,,,,a,1,0.83034,space,0.26673,0,120,120,161,1,0_targ_10_dist_red/trial12.png,,,0,10,redHorizontal,a,52,20,female,2021-02-23_16h44.47.759,exp11,2020.2.6,Win32,60,IwAR2lyB9dd-vyCAj7CxUCfuRwfY1B-LMPXxJsjRhaQhN0EMTYOcSgMIxs2VI,,,,,,,,,,,
,,,,,,,,,,,,,,a,1,0.52806,space,0.13692,0,121,121,100,1,0_targ_1_dist_red/trial1.png,,,0,1,redHorizontal,a,52,20,female,2021-02-23_16h44.47.759,exp11,2020.2.6,Win32,60,IwAR2lyB9dd-vyCAj7CxUCfuRwfY1B-LMPXxJsjRhaQhN0EMTYOcSgMIxs2VI,,,,,,,,,,,
,,,,,,,,,,,,,,a,1,0.718,space,0.169835,0,122,122,138,1,0_targ_4_dist_red/trial14.png,,,0,4,redHorizontal,a,52,20,female,2021-02-23_16h44.47.759,exp11,2020.2.6,Win32,60,IwAR2lyB9dd-vyCAj7CxUCfuRwfY1B-LMPXxJsjRhaQhN0EMTYOcSgMIxs2VI,,,,,,,,,,,
,,,,,,,,,,,,,,a,1,0.62577,space,0.233665,0,123,123,111,1,0_targ_1_dist_red/trial12.png,,,0,1,redHorizontal,a,52,20,female,2021-02-23_16h44.47.759,exp11,2020.2.6,Win32,60,IwAR2lyB9dd-vyCAj7CxUCfuRwfY1B-LMPXxJsjRhaQhN0EMTYOcSgMIxs2VI,,,,,,,,,,,
,,,,,,,,,,,,,,p,1,0.559315,space,0.186175,0,124,124,89,1,15_dist_red/trial15.png,,,1,15,redHorizontal,p,52,20,female,2021-02-23_16h44.47.759,exp11,2020.2.6,Win32,60,IwAR2lyB9dd-vyCAj7CxUCfuRwfY1B-LMPXxJsjRhaQhN0EMTYOcSgMIxs2VI,,,,,,,,,,,
,,,,,,,,,,,,,,a,1,0.60177,space,0.13717,0,125,125,105,1,0_targ_1_dist_red/trial6.png,,,0,1,redHorizontal,a,52,20,female,2021-02-23_16h44.47.759,exp11,2020.2.6,Win32,60,IwAR2lyB9dd-vyCAj7CxUCfuRwfY1B-LMPXxJsjRhaQhN0EMTYOcSgMIxs2VI,,,,,,,,,,,
,,,,,,,,,,,,,,a,1,0.742705,space,0.150875,0,126,126,184,1,0_targ_16_dist_red/trial10.png,,,0,16,redHorizontal,a,52,20,female,2021-02-23_16h44.47.759,exp11,2020.2.6,Win32,60,IwAR2lyB9dd-vyCAj7CxUCfuRwfY1B-LMPXxJsjRhaQhN0EMTYOcSgMIxs2VI,,,,,,,,,,,
,,,,,,,,,,,,,,a,1,0.71136,space,0.15102,0,127,127,149,1,0_targ_4_dist_red/trial25.png,,,0,4,redHorizontal,a,52,20,female,2021-02-23_16h44.47.759,exp11,2020.2.6,Win32,60,IwAR2lyB9dd-vyCAj7CxUCfuRwfY1B-LMPXxJsjRhaQhN0EMTYOcSgMIxs2VI,,,,,,,,,,,
,,,,,,,,,,,,,,a,1,0.604715,space,0.104835,0,128,128,175,1,0_targ_16_dist_red/trial1.png,,,0,16,redHorizontal,a,52,20,female,2021-02-23_16h44.47.759,exp11,2020.2.6,Win32,60,IwAR2lyB9dd-vyCAj7CxUCfuRwfY1B-LMPXxJsjRhaQhN0EMTYOcSgMIxs2VI,,,,,,,,,,,
,,,,,,,,,,,,,,a,1,0.730365,space,0.09377,0,129,129,180,1,0_targ_16_dist_red/trial6.png,,,0,16,redHorizontal,a,52,20,female,2021-02-23_16h44.47.759,exp11,2020.2.6,Win32,60,IwAR2lyB9dd-vyCAj7CxUCfuRwfY1B-LMPXxJsjRhaQhN0EMTYOcSgMIxs2VI,,,,,,,,,,,
,,,,,,,,,,,,,,p,1,0.59353,space,0.145925,0,130,130,2,1,0_dist_red/trial3.png,,,1,0,redHorizontal,p,52,20,female,2021-02-23_16h44.47.759,exp11,2020.2.6,Win32,60,IwAR2lyB9dd-vyCAj7CxUCfuRwfY1B-LMPXxJsjRhaQhN0EMTYOcSgMIxs2VI,,,,,,,,,,,
,,,,,,,,,,,,,,p,1,0.515325,space,0.13598,0,131,131,28,1,3_dist_red/trial4.png,,,1,3,redHorizontal,p,52,20,female,2021-02-23_16h44.47.759,exp11,2020.2.6,Win32,60,IwAR2lyB9dd-vyCAj7CxUCfuRwfY1B-LMPXxJsjRhaQhN0EMTYOcSgMIxs2VI,,,,,,,,,,,
,,,,,,,,,,,,,,a,1,0.665105,space,0.141995,0,132,132,140,1,0_targ_4_dist_red/trial6.png,,,0,4,redHorizontal,a,52,20,female,2021-02-23_16h44.47.759,exp11,2020.2.6,Win32,60,IwAR2lyB9dd-vyCAj7CxUCfuRwfY1B-LMPXxJsjRhaQhN0EMTYOcSgMIxs2VI,,,,,,,,,,,
,,,,,,,,,,,,,,p,1,0.60919,space,0.11927,0,133,133,34,1,3_dist_red/trial10.png,,,1,3,redHorizontal,p,52,20,female,2021-02-23_16h44.47.759,exp11,2020.2.6,Win32,60,IwAR2lyB9dd-vyCAj7CxUCfuRwfY1B-LMPXxJsjRhaQhN0EMTYOcSgMIxs2VI,,,,,,,,,,,
,,,,,,,,,,,,,,a,0,0.67696,space,0.67591,0,134,134,76,1,15_dist_red/trial2.png,,,1,15,redHorizontal,p,52,20,female,2021-02-23_16h44.47.759,exp11,2020.2.6,Win32,60,IwAR2lyB9dd-vyCAj7CxUCfuRwfY1B-LMPXxJsjRhaQhN0EMTYOcSgMIxs2VI,,,,,,,,,,,
,,,,,,,,,,,,,,a,1,0.552105,space,0.219005,0,135,135,177,1,0_targ_16_dist_red/trial3.png,,,0,16,redHorizontal,a,52,20,female,2021-02-23_16h44.47.759,exp11,2020.2.6,Win32,60,IwAR2lyB9dd-vyCAj7CxUCfuRwfY1B-LMPXxJsjRhaQhN0EMTYOcSgMIxs2VI,,,,,,,,,,,
,,,,,,,,,,,,,,a,1,0.583745,space,0.107615,0,136,136,172,1,0_targ_10_dist_red/trial23.png,,,0,10,redHorizontal,a,52,20,female,2021-02-23_16h44.47.759,exp11,2020.2.6,Win32,60,IwAR2lyB9dd-vyCAj7CxUCfuRwfY1B-LMPXxJsjRhaQhN0EMTYOcSgMIxs2VI,,,,,,,,,,,
,,,,,,,,,,,,,,a,1,0.912475,space,0.15337,0,137,137,168,1,0_targ_10_dist_red/trial19.png,,,0,10,redHorizontal,a,52,20,female,2021-02-23_16h44.47.759,exp11,2020.2.6,Win32,60,IwAR2lyB9dd-vyCAj7CxUCfuRwfY1B-LMPXxJsjRhaQhN0EMTYOcSgMIxs2VI,,,,,,,,,,,
,,,,,,,,,,,,,,a,1,0.67073,space,0.135935,0,138,138,137,1,0_targ_4_dist_red/trial13.png,,,0,4,redHorizontal,a,52,20,female,2021-02-23_16h44.47.759,exp11,2020.2.6,Win32,60,IwAR2lyB9dd-vyCAj7CxUCfuRwfY1B-LMPXxJsjRhaQhN0EMTYOcSgMIxs2VI,,,,,,,,,,,
,,,,,,,,,,,,,,p,1,1.967315,space,1.593155,0,139,139,53,1,9_dist_red/trial4.png,,,1,9,redHorizontal,p,52,20,female,2021-02-23_16h44.47.759,exp11,2020.2.6,Win32,60,IwAR2lyB9dd-vyCAj7CxUCfuRwfY1B-LMPXxJsjRhaQhN0EMTYOcSgMIxs2VI,,,,,,,,,,,
,,,,,,,,,,,,,,p,1,0.89366,space,0.422255,0,140,140,19,1,0_dist_red/trial20.png,,,1,0,redHorizontal,p,52,20,female,2021-02-23_16h44.47.759,exp11,2020.2.6,Win32,60,IwAR2lyB9dd-vyCAj7CxUCfuRwfY1B-LMPXxJsjRhaQhN0EMTYOcSgMIxs2VI,,,,,,,,,,,
,,,,,,,,,,,,,,a,1,0.687075,space,0.20038,0,141,141,108,1,0_targ_1_dist_red/trial9.png,,,0,1,redHorizontal,a,52,20,female,2021-02-23_16h44.47.759,exp11,2020.2.6,Win32,60,IwAR2lyB9dd-vyCAj7CxUCfuRwfY1B-LMPXxJsjRhaQhN0EMTYOcSgMIxs2VI,,,,,,,,,,,
,,,,,,,,,,,,,,p,1,0.51519,space,0.300475,0,142,142,86,1,15_dist_red/trial12.png,,,1,15,redHorizontal,p,52,20,female,2021-02-23_16h44.47.759,exp11,2020.2.6,Win32,60,IwAR2lyB9dd-vyCAj7CxUCfuRwfY1B-LMPXxJsjRhaQhN0EMTYOcSgMIxs2VI,,,,,,,,,,,
,,,,,,,,,,,,,,a,1,0.667575,space,0.20461,0,143,143,151,1,0_targ_10_dist_red/trial2.png,,,0,10,redHorizontal,a,52,20,female,2021-02-23_16h44.47.759,exp11,2020.2.6,Win32,60,IwAR2lyB9dd-vyCAj7CxUCfuRwfY1B-LMPXxJsjRhaQhN0EMTYOcSgMIxs2VI,,,,,,,,,,,
,,,,,,,,,,,,,,p,1,1.230095,space,0.32284,0,144,144,80,1,15_dist_red/trial6.png,,,1,15,redHorizontal,p,52,20,female,2021-02-23_16h44.47.759,exp11,2020.2.6,Win32,60,IwAR2lyB9dd-vyCAj7CxUCfuRwfY1B-LMPXxJsjRhaQhN0EMTYOcSgMIxs2VI,,,,,,,,,,,
,,,,,,,,,,,,,,p,1,0.49596,space,0.13671,0,145,145,83,1,15_dist_red/trial9.png,,,1,15,redHorizontal,p,52,20,female,2021-02-23_16h44.47.759,exp11,2020.2.6,Win32,60,IwAR2lyB9dd-vyCAj7CxUCfuRwfY1B-LMPXxJsjRhaQhN0EMTYOcSgMIxs2VI,,,,,,,,,,,
,,,,,,,,,,,,,,p,1,0.370855,space,0.376865,0,146,146,11,1,0_dist_red/trial12.png,,,1,0,redHorizontal,p,52,20,female,2021-02-23_16h44.47.759,exp11,2020.2.6,Win32,60,IwAR2lyB9dd-vyCAj7CxUCfuRwfY1B-LMPXxJsjRhaQhN0EMTYOcSgMIxs2VI,,,,,,,,,,,
,,,,,,,,,,,,,,p,1,0.561285,space,0.183915,0,147,147,4,1,0_dist_red/trial5.png,,,1,0,redHorizontal,p,52,20,female,2021-02-23_16h44.47.759,exp11,2020.2.6,Win32,60,IwAR2lyB9dd-vyCAj7CxUCfuRwfY1B-LMPXxJsjRhaQhN0EMTYOcSgMIxs2VI,,,,,,,,,,,
,,,,,,,,,,,,,,p,1,0.31862,space,0.39466,0,148,148,6,1,0_dist_red/trial7.png,,,1,0,redHorizontal,p,52,20,female,2021-02-23_16h44.47.759,exp11,2020.2.6,Win32,60,IwAR2lyB9dd-vyCAj7CxUCfuRwfY1B-LMPXxJsjRhaQhN0EMTYOcSgMIxs2VI,,,,,,,,,,,
,,,,,,,,,,,,,,a,1,0.48375,space,0.21563,0,149,149,195,1,0_targ_16_dist_red/trial21.png,,,0,16,redHorizontal,a,52,20,female,2021-02-23_16h44.47.759,exp11,2020.2.6,Win32,60,IwAR2lyB9dd-vyCAj7CxUCfuRwfY1B-LMPXxJsjRhaQhN0EMTYOcSgMIxs2VI,,,,,,,,,,,
,,,,,,,,,,,,,,a,1,0.580995,space,0.156465,0,150,150,170,1,0_targ_10_dist_red/trial21.png,,,0,10,redHorizontal,a,52,20,female,2021-02-23_16h44.47.759,exp11,2020.2.6,Win32,60,IwAR2lyB9dd-vyCAj7CxUCfuRwfY1B-LMPXxJsjRhaQhN0EMTYOcSgMIxs2VI,,,,,,,,,,,
,,,,,,,,,,,,,,a,1,1.195525,space,0.11714,0,151,151,146,1,0_targ_4_dist_red/trial22.png,,,0,4,redHorizontal,a,52,20,female,2021-02-23_16h44.47.759,exp11,2020.2.6,Win32,60,IwAR2lyB9dd-vyCAj7CxUCfuRwfY1B-LMPXxJsjRhaQhN0EMTYOcSgMIxs2VI,,,,,,,,,,,
,,,,,,,,,,,,,,p,1,0.69002,space,0.138005,0,152,152,47,1,3_dist_red/trial23.png,,,1,3,redHorizontal,p,52,20,female,2021-02-23_16h44.47.759,exp11,2020.2.6,Win32,60,IwAR2lyB9dd-vyCAj7CxUCfuRwfY1B-LMPXxJsjRhaQhN0EMTYOcSgMIxs2VI,,,,,,,,,,,
,,,,,,,,,,,,,,p,1,0.566745,space,0.04109,0,153,153,13,1,0_dist_red/trial14.png,,,1,0,redHorizontal,p,52,20,female,2021-02-23_16h44.47.759,exp11,2020.2.6,Win32,60,IwAR2lyB9dd-vyCAj7CxUCfuRwfY1B-LMPXxJsjRhaQhN0EMTYOcSgMIxs2VI,,,,,,,,,,,
,,,,,,,,,,,,,,a,1,0.82252,space,0.14491,0,154,154,126,1,0_targ_4_dist_red/trial2.png,,,0,4,redHorizontal,a,52,20,female,2021-02-23_16h44.47.759,exp11,2020.2.6,Win32,60,IwAR2lyB9dd-vyCAj7CxUCfuRwfY1B-LMPXxJsjRhaQhN0EMTYOcSgMIxs2VI,,,,,,,,,,,
,,,,,,,,,,,,,,p,1,0.699865,space,0.158395,0,155,155,85,1,15_dist_red/trial11.png,,,1,15,redHorizontal,p,52,20,female,2021-02-23_16h44.47.759,exp11,2020.2.6,Win32,60,IwAR2lyB9dd-vyCAj7CxUCfuRwfY1B-LMPXxJsjRhaQhN0EMTYOcSgMIxs2VI,,,,,,,,,,,
,,,,,,,,,,,,,,p,1,1.910065,space,0.174815,0,156,156,36,1,3_dist_red/trial12.png,,,1,3,redHorizontal,p,52,20,female,2021-02-23_16h44.47.759,exp11,2020.2.6,Win32,60,IwAR2lyB9dd-vyCAj7CxUCfuRwfY1B-LMPXxJsjRhaQhN0EMTYOcSgMIxs2VI,,,,,,,,,,,
,,,,,,,,,,,,,,a,1,0.62053,space,0.15113,0,157,157,186,1,0_targ_16_dist_red/trial12.png,,,0,16,redHorizontal,a,52,20,female,2021-02-23_16h44.47.759,exp11,2020.2.6,Win32,60,IwAR2lyB9dd-vyCAj7CxUCfuRwfY1B-LMPXxJsjRhaQhN0EMTYOcSgMIxs2VI,,,,,,,,,,,
,,,,,,,,,,,,,,a,1,0.747025,space,0.09277,0,158,158,181,1,0_targ_16_dist_red/trial7.png,,,0,16,redHorizontal,a,52,20,female,2021-02-23_16h44.47.759,exp11,2020.2.6,Win32,60,IwAR2lyB9dd-vyCAj7CxUCfuRwfY1B-LMPXxJsjRhaQhN0EMTYOcSgMIxs2VI,,,,,,,,,,,
,,,,,,,,,,,,,,a,1,0.68721,space,0.092645,0,159,159,143,1,0_targ_4_dist_red/trial19.png,,,0,4,redHorizontal,a,52,20,female,2021-02-23_16h44.47.759,exp11,2020.2.6,Win32,60,IwAR2lyB9dd-vyCAj7CxUCfuRwfY1B-LMPXxJsjRhaQhN0EMTYOcSgMIxs2VI,,,,,,,,,,,
,,,,,,,,,,,,,,a,1,1.05288,space,0.074795,0,160,160,112,1,0_targ_1_dist_red/trial13.png,,,0,1,redHorizontal,a,52,20,female,2021-02-23_16h44.47.759,exp11,2020.2.6,Win32,60,IwAR2lyB9dd-vyCAj7CxUCfuRwfY1B-LMPXxJsjRhaQhN0EMTYOcSgMIxs2VI,,,,,,,,,,,
,,,,,,,,,,,,,,a,1,0.64446,space,0.060955,0,161,161,150,1,0_targ_10_dist_red/trial1.png,,,0,10,redHorizontal,a,52,20,female,2021-02-23_16h44.47.759,exp11,2020.2.6,Win32,60,IwAR2lyB9dd-vyCAj7CxUCfuRwfY1B-LMPXxJsjRhaQhN0EMTYOcSgMIxs2VI,,,,,,,,,,,
,,,,,,,,,,,,,,a,1,0.550795,space,0.05068,0,162,162,121,1,0_targ_1_dist_red/trial22.png,,,0,1,redHorizontal,a,52,20,female,2021-02-23_16h44.47.759,exp11,2020.2.6,Win32,60,IwAR2lyB9dd-vyCAj7CxUCfuRwfY1B-LMPXxJsjRhaQhN0EMTYOcSgMIxs2VI,,,,,,,,,,,
,,,,,,,,,,,,,,p,1,1.058555,space,1.050845,0,163,163,90,1,15_dist_red/trial16.png,,,1,15,redHorizontal,p,52,20,female,2021-02-23_16h44.47.759,exp11,2020.2.6,Win32,60,IwAR2lyB9dd-vyCAj7CxUCfuRwfY1B-LMPXxJsjRhaQhN0EMTYOcSgMIxs2VI,,,,,,,,,,,
,,,,,,,,,,,,,,p,1,0.433605,space,0.085515,0,164,164,22,1,0_dist_red/trial23.png,,,1,0,redHorizontal,p,52,20,female,2021-02-23_16h44.47.759,exp11,2020.2.6,Win32,60,IwAR2lyB9dd-vyCAj7CxUCfuRwfY1B-LMPXxJsjRhaQhN0EMTYOcSgMIxs2VI,,,,,,,,,,,
,,,,,,,,,,,,,,a,1,0.746675,space,0.16045,0,165,165,171,1,0_targ_10_dist_red/trial22.png,,,0,10,redHorizontal,a,52,20,female,2021-02-23_16h44.47.759,exp11,2020.2.6,Win32,60,IwAR2lyB9dd-vyCAj7CxUCfuRwfY1B-LMPXxJsjRhaQhN0EMTYOcSgMIxs2VI,,,,,,,,,,,
,,,,,,,,,,,,,,a,1,0.56445,space,0.14447,0,166,166,163,1,0_targ_10_dist_red/trial14.png,,,0,10,redHorizontal,a,52,20,female,2021-02-23_16h44.47.759,exp11,2020.2.6,Win32,60,IwAR2lyB9dd-vyCAj7CxUCfuRwfY1B-LMPXxJsjRhaQhN0EMTYOcSgMIxs2VI,,,,,,,,,,,
,,,,,,,,,,,,,,a,1,0.464905,space,0.110225,0,167,167,189,1,0_targ_16_dist_red/trial15.png,,,0,16,redHorizontal,a,52,20,female,2021-02-23_16h44.47.759,exp11,2020.2.6,Win32,60,IwAR2lyB9dd-vyCAj7CxUCfuRwfY1B-LMPXxJsjRhaQhN0EMTYOcSgMIxs2VI,,,,,,,,,,,
,,,,,,,,,,,,,,a,0,0.433535,space,0.28316,0,168,168,39,1,3_dist_red/trial15.png,,,1,3,redHorizontal,p,52,20,female,2021-02-23_16h44.47.759,exp11,2020.2.6,Win32,60,IwAR2lyB9dd-vyCAj7CxUCfuRwfY1B-LMPXxJsjRhaQhN0EMTYOcSgMIxs2VI,,,,,,,,,,,
,,,,,,,,,,,,,,p,1,1.34474,space,0.27861,0,169,169,88,1,15_dist_red/trial14.png,,,1,15,redHorizontal,p,52,20,female,2021-02-23_16h44.47.759,exp11,2020.2.6,Win32,60,IwAR2lyB9dd-vyCAj7CxUCfuRwfY1B-LMPXxJsjRhaQhN0EMTYOcSgMIxs2VI,,,,,,,,,,,
,,,,,,,,,,,,,,p,1,0.6114,space,0.33211,0,170,170,40,1,3_dist_red/trial16.png,,,1,3,redHorizontal,p,52,20,female,2021-02-23_16h44.47.759,exp11,2020.2.6,Win32,60,IwAR2lyB9dd-vyCAj7CxUCfuRwfY1B-LMPXxJsjRhaQhN0EMTYOcSgMIxs2VI,,,,,,,,,,,
,,,,,,,,,,,,,,p,1,0.75374,space,0.23645,0,171,171,60,1,9_dist_red/trial11.png,,,1,9,redHorizontal,p,52,20,female,2021-02-23_16h44.47.759,exp11,2020.2.6,Win32,60,IwAR2lyB9dd-vyCAj7CxUCfuRwfY1B-LMPXxJsjRhaQhN0EMTYOcSgMIxs2VI,,,,,,,,,,,
,,,,,,,,,,,,,,p,1,0.668085,space,0.21805,0,172,172,37,1,3_dist_red/trial13.png,,,1,3,redHorizontal,p,52,20,female,2021-02-23_16h44.47.759,exp11,2020.2.6,Win32,60,IwAR2lyB9dd-vyCAj7CxUCfuRwfY1B-LMPXxJsjRhaQhN0EMTYOcSgMIxs2VI,,,,,,,,,,,
,,,,,,,,,,,,,,p,1,1.14637,space,0.201185,0,173,173,74,1,9_dist_red/trial25.png,,,1,9,redHorizontal,p,52,20,female,2021-02-23_16h44.47.759,exp11,2020.2.6,Win32,60,IwAR2lyB9dd-vyCAj7CxUCfuRwfY1B-LMPXxJsjRhaQhN0EMTYOcSgMIxs2VI,,,,,,,,,,,
,,,,,,,,,,,,,,a,0,0.750215,space,0.819805,0,174,174,75,1,15_dist_red/trial1.png,,,1,15,redHorizontal,p,52,20,female,2021-02-23_16h44.47.759,exp11,2020.2.6,Win32,60,IwAR2lyB9dd-vyCAj7CxUCfuRwfY1B-LMPXxJsjRhaQhN0EMTYOcSgMIxs2VI,,,,,,,,,,,
,,,,,,,,,,,,,,p,1,0.633895,space,0.010395,0,175,175,31,1,3_dist_red/trial7.png,,,1,3,redHorizontal,p,52,20,female,2021-02-23_16h44.47.759,exp11,2020.2.6,Win32,60,IwAR2lyB9dd-vyCAj7CxUCfuRwfY1B-LMPXxJsjRhaQhN0EMTYOcSgMIxs2VI,,,,,,,,,,,
,,,,,,,,,,,,,,p,1,0.71238,space,0.01707,0,176,176,93,1,15_dist_red/trial19.png,,,1,15,redHorizontal,p,52,20,female,2021-02-23_16h44.47.759,exp11,2020.2.6,Win32,60,IwAR2lyB9dd-vyCAj7CxUCfuRwfY1B-LMPXxJsjRhaQhN0EMTYOcSgMIxs2VI,,,,,,,,,,,
,,,,,,,,,,,,,,p,1,1.621195,space,1.300085,0,177,177,70,1,9_dist_red/trial21.png,,,1,9,redHorizontal,p,52,20,female,2021-02-23_16h44.47.759,exp11,2020.2.6,Win32,60,IwAR2lyB9dd-vyCAj7CxUCfuRwfY1B-LMPXxJsjRhaQhN0EMTYOcSgMIxs2VI,,,,,,,,,,,
,,,,,,,,,,,,,,a,1,1.59874,space,0.321055,0,178,178,169,1,0_targ_10_dist_red/trial20.png,,,0,10,redHorizontal,a,52,20,female,2021-02-23_16h44.47.759,exp11,2020.2.6,Win32,60,IwAR2lyB9dd-vyCAj7CxUCfuRwfY1B-LMPXxJsjRhaQhN0EMTYOcSgMIxs2VI,,,,,,,,,,,
,,,,,,,,,,,,,,a,1,0.930085,space,0.001455,0,179,179,164,1,0_targ_10_dist_red/trial15.png,,,0,10,redHorizontal,a,52,20,female,2021-02-23_16h44.47.759,exp11,2020.2.6,Win32,60,IwAR2lyB9dd-vyCAj7CxUCfuRwfY1B-LMPXxJsjRhaQhN0EMTYOcSgMIxs2VI,,,,,,,,,,,
,,,,,,,,,,,,,,a,1,1.15765,space,0.78299,0,180,180,114,1,0_targ_1_dist_red/trial15.png,,,0,1,redHorizontal,a,52,20,female,2021-02-23_16h44.47.759,exp11,2020.2.6,Win32,60,IwAR2lyB9dd-vyCAj7CxUCfuRwfY1B-LMPXxJsjRhaQhN0EMTYOcSgMIxs2VI,,,,,,,,,,,
,,,,,,,,,,,,,,p,1,0.92783,space,0.02394,0,181,181,10,1,0_dist_red/trial11.png,,,1,0,redHorizontal,p,52,20,female,2021-02-23_16h44.47.759,exp11,2020.2.6,Win32,60,IwAR2lyB9dd-vyCAj7CxUCfuRwfY1B-LMPXxJsjRhaQhN0EMTYOcSgMIxs2VI,,,,,,,,,,,
,,,,,,,,,,,,,,a,1,0.74907,space,1.619615,0,182,182,113,1,0_targ_1_dist_red/trial14.png,,,0,1,redHorizontal,a,52,20,female,2021-02-23_16h44.47.759,exp11,2020.2.6,Win32,60,IwAR2lyB9dd-vyCAj7CxUCfuRwfY1B-LMPXxJsjRhaQhN0EMTYOcSgMIxs2VI,,,,,,,,,,,
,,,,,,,,,,,,,,a,1,0.652375,space,0.217835,0,183,183,116,1,0_targ_1_dist_red/trial17.png,,,0,1,redHorizontal,a,52,20,female,2021-02-23_16h44.47.759,exp11,2020.2.6,Win32,60,IwAR2lyB9dd-vyCAj7CxUCfuRwfY1B-LMPXxJsjRhaQhN0EMTYOcSgMIxs2VI,,,,,,,,,,,
,,,,,,,,,,,,,,a,1,0.963125,space,0.02296,0,184,184,167,1,0_targ_10_dist_red/trial18.png,,,0,10,redHorizontal,a,52,20,female,2021-02-23_16h44.47.759,exp11,2020.2.6,Win32,60,IwAR2lyB9dd-vyCAj7CxUCfuRwfY1B-LMPXxJsjRhaQhN0EMTYOcSgMIxs2VI,,,,,,,,,,,
,,,,,,,,,,,,,,a,1,1.47508,space,0.155205,0,185,185,142,1,0_targ_4_dist_red/trial18.png,,,0,4,redHorizontal,a,52,20,female,2021-02-23_16h44.47.759,exp11,2020.2.6,Win32,60,IwAR2lyB9dd-vyCAj7CxUCfuRwfY1B-LMPXxJsjRhaQhN0EMTYOcSgMIxs2VI,,,,,,,,,,,
,,,,,,,,,,,,,,p,1,0.758545,space,0.168675,0,186,186,35,1,3_dist_red/trial11.png,,,1,3,redHorizontal,p,52,20,female,2021-02-23_16h44.47.759,exp11,2020.2.6,Win32,60,IwAR2lyB9dd-vyCAj7CxUCfuRwfY1B-LMPXxJsjRhaQhN0EMTYOcSgMIxs2VI,,,,,,,,,,,
,,,,,,,,,,,,,,p,1,1.014975,space,0.061555,0,187,187,32,1,3_dist_red/trial8.png,,,1,3,redHorizontal,p,52,20,female,2021-02-23_16h44.47.759,exp11,2020.2.6,Win32,60,IwAR2lyB9dd-vyCAj7CxUCfuRwfY1B-LMPXxJsjRhaQhN0EMTYOcSgMIxs2VI,,,,,,,,,,,
,,,,,,,,,,,,,,a,1,0.780485,space,0.09466,0,188,188,106,1,0_targ_1_dist_red/trial7.png,,,0,1,redHorizontal,a,52,20,female,2021-02-23_16h44.47.759,exp11,2020.2.6,Win32,60,IwAR2lyB9dd-vyCAj7CxUCfuRwfY1B-LMPXxJsjRhaQhN0EMTYOcSgMIxs2VI,,,,,,,,,,,
,,,,,,,,,,,,,,p,1,0.66717,space,0.14371,0,189,189,46,1,3_dist_red/trial22.png,,,1,3,redHorizontal,p,52,20,female,2021-02-23_16h44.47.759,exp11,2020.2.6,Win32,60,IwAR2lyB9dd-vyCAj7CxUCfuRwfY1B-LMPXxJsjRhaQhN0EMTYOcSgMIxs2VI,,,,,,,,,,,
,,,,,,,,,,,,,,a,1,1.23284,space,0.138405,0,190,190,147,1,0_targ_4_dist_red/trial23.png,,,0,4,redHorizontal,a,52,20,female,2021-02-23_16h44.47.759,exp11,2020.2.6,Win32,60,IwAR2lyB9dd-vyCAj7CxUCfuRwfY1B-LMPXxJsjRhaQhN0EMTYOcSgMIxs2VI,,,,,,,,,,,
,,,,,,,,,,,,,,p,1,0.794845,space,0.771395,0,191,191,12,1,0_dist_red/trial13.png,,,1,0,redHorizontal,p,52,20,female,2021-02-23_16h44.47.759,exp11,2020.2.6,Win32,60,IwAR2lyB9dd-vyCAj7CxUCfuRwfY1B-LMPXxJsjRhaQhN0EMTYOcSgMIxs2VI,,,,,,,,,,,
,,,,,,,,,,,,,,p,1,0.83923,space,0.01086,0,192,192,97,1,15_dist_red/trial23.png,,,1,15,redHorizontal,p,52,20,female,2021-02-23_16h44.47.759,exp11,2020.2.6,Win32,60,IwAR2lyB9dd-vyCAj7CxUCfuRwfY1B-LMPXxJsjRhaQhN0EMTYOcSgMIxs2VI,,,,,,,,,,,
,,,,,,,,,,,,,,p,1,1.26821,space,0.05159,0,193,193,77,1,15_dist_red/trial3.png,,,1,15,redHorizontal,p,52,20,female,2021-02-23_16h44.47.759,exp11,2020.2.6,Win32,60,IwAR2lyB9dd-vyCAj7CxUCfuRwfY1B-LMPXxJsjRhaQhN0EMTYOcSgMIxs2VI,,,,,,,,,,,
,,,,,,,,,,,,,,a,1,0.966635,space,0.80012,0,194,194,120,1,0_targ_1_dist_red/trial21.png,,,0,1,redHorizontal,a,52,20,female,2021-02-23_16h44.47.759,exp11,2020.2.6,Win32,60,IwAR2lyB9dd-vyCAj7CxUCfuRwfY1B-LMPXxJsjRhaQhN0EMTYOcSgMIxs2VI,,,,,,,,,,,
,,,,,,,,,,,,,,a,1,0.643575,space,0.780665,0,195,195,139,1,0_targ_4_dist_red/trial15.png,,,0,4,redHorizontal,a,52,20,female,2021-02-23_16h44.47.759,exp11,2020.2.6,Win32,60,IwAR2lyB9dd-vyCAj7CxUCfuRwfY1B-LMPXxJsjRhaQhN0EMTYOcSgMIxs2VI,,,,,,,,,,,
,,,,,,,,,,,,,,p,1,0.8874,space,0.50381,0,196,196,99,1,15_dist_red/trial25.png,,,1,15,redHorizontal,p,52,20,female,2021-02-23_16h44.47.759,exp11,2020.2.6,Win32,60,IwAR2lyB9dd-vyCAj7CxUCfuRwfY1B-LMPXxJsjRhaQhN0EMTYOcSgMIxs2VI,,,,,,,,,,,
,,,,,,,,,,,,,,a,1,0.744475,space,0.4324,0,197,197,193,1,0_targ_16_dist_red/trial19.png,,,0,16,redHorizontal,a,52,20,female,2021-02-23_16h44.47.759,exp11,2020.2.6,Win32,60,IwAR2lyB9dd-vyCAj7CxUCfuRwfY1B-LMPXxJsjRhaQhN0EMTYOcSgMIxs2VI,,,,,,,,,,,
,,,,,,,,,,,,,,a,1,0.70475,space,0.067755,0,198,198,132,1,0_targ_4_dist_red/trial8.png,,,0,4,redHorizontal,a,52,20,female,2021-02-23_16h44.47.759,exp11,2020.2.6,Win32,60,IwAR2lyB9dd-vyCAj7CxUCfuRwfY1B-LMPXxJsjRhaQhN0EMTYOcSgMIxs2VI,,,,,,,,,,,
,,,,,,,,,,,,,,a,1,0.78412,space,0.02707,0,199,199,102,1,0_targ_1_dist_red/trial3.png,,,0,1,redHorizontal,a,52,20,female,2021-02-23_16h44.47.759,exp11,2020.2.6,Win32,60,IwAR2lyB9dd-vyCAj7CxUCfuRwfY1B-LMPXxJsjRhaQhN0EMTYOcSgMIxs2VI,,,,,,,,,,,
,,,,,,,,,,,,,,,,,,,,,,,,,,,,,,,52,20,female,2021-02-23_16h44.47.759,exp11,2020.2.6,Win32,60,IwAR2lyB9dd-vyCAj7CxUCfuRwfY1B-LMPXxJsjRhaQhN0EMTYOcSgMIxs2VI,0,0,0,1,1,conRed.xlsx,red horizontal,Look for red horizontal bar (target) and indicate if it is present or absent in the array. If red horizontal target is present press 'p' and if absent press 'a'. Press SPACE to start.,,,
,,,,,,,,,,space,13.87327,space,0.802835,a,1,0.763095,space,0.30297,0,0,0,143,1,0_targ_4_dist_green/trial19.png,,,0,4,greenverival,a,52,20,female,2021-02-23_16h44.47.759,exp11,2020.2.6,Win32,60,IwAR2lyB9dd-vyCAj7CxUCfuRwfY1B-LMPXxJsjRhaQhN0EMTYOcSgMIxs2VI,,,,,,,,,,,
,,,,,,,,,,,,,,a,1,0.547565,space,0.25965,0,1,1,120,1,0_targ_1_dist_green/trial21.png,,,0,1,greenverival,a,52,20,female,2021-02-23_16h44.47.759,exp11,2020.2.6,Win32,60,IwAR2lyB9dd-vyCAj7CxUCfuRwfY1B-LMPXxJsjRhaQhN0EMTYOcSgMIxs2VI,,,,,,,,,,,
,,,,,,,,,,,,,,p,1,0.54737,space,0.307745,0,2,2,78,1,15_dist_green/trial4.png,,,1,15,greenverival,p,52,20,female,2021-02-23_16h44.47.759,exp11,2020.2.6,Win32,60,IwAR2lyB9dd-vyCAj7CxUCfuRwfY1B-LMPXxJsjRhaQhN0EMTYOcSgMIxs2VI,,,,,,,,,,,
,,,,,,,,,,,,,,a,0,0.771385,space,0.51975,0,3,3,55,1,9_dist_green/trial6.png,,,1,9,greenverival,p,52,20,female,2021-02-23_16h44.47.759,exp11,2020.2.6,Win32,60,IwAR2lyB9dd-vyCAj7CxUCfuRwfY1B-LMPXxJsjRhaQhN0EMTYOcSgMIxs2VI,,,,,,,,,,,
,,,,,,,,,,,,,,p,1,0.92297,space,0.056065,0,4,4,80,1,15_dist_green/trial6.png,,,1,15,greenverival,p,52,20,female,2021-02-23_16h44.47.759,exp11,2020.2.6,Win32,60,IwAR2lyB9dd-vyCAj7CxUCfuRwfY1B-LMPXxJsjRhaQhN0EMTYOcSgMIxs2VI,,,,,,,,,,,
,,,,,,,,,,,,,,a,1,0.82915,space,0.368935,0,5,5,177,1,0_targ_16_dist_green/trial3.png,,,0,16,greenverival,a,52,20,female,2021-02-23_16h44.47.759,exp11,2020.2.6,Win32,60,IwAR2lyB9dd-vyCAj7CxUCfuRwfY1B-LMPXxJsjRhaQhN0EMTYOcSgMIxs2VI,,,,,,,,,,,
,,,,,,,,,,,,,,p,1,0.557085,space,0.313195,0,6,6,38,1,3_dist_green/trial14.png,,,1,3,greenverival,p,52,20,female,2021-02-23_16h44.47.759,exp11,2020.2.6,Win32,60,IwAR2lyB9dd-vyCAj7CxUCfuRwfY1B-LMPXxJsjRhaQhN0EMTYOcSgMIxs2VI,,,,,,,,,,,
,,,,,,,,,,,,,,p,1,0.643535,space,0.21909,0,7,7,33,1,3_dist_green/trial9.png,,,1,3,greenverival,p,52,20,female,2021-02-23_16h44.47.759,exp11,2020.2.6,Win32,60,IwAR2lyB9dd-vyCAj7CxUCfuRwfY1B-LMPXxJsjRhaQhN0EMTYOcSgMIxs2VI,,,,,,,,,,,
,,,,,,,,,,,,,,a,1,0.667265,space,0.15962,0,8,8,131,1,0_targ_4_dist_green/trial7.png,,,0,4,greenverival,a,52,20,female,2021-02-23_16h44.47.759,exp11,2020.2.6,Win32,60,IwAR2lyB9dd-vyCAj7CxUCfuRwfY1B-LMPXxJsjRhaQhN0EMTYOcSgMIxs2VI,,,,,,,,,,,
,,,,,,,,,,,,,,a,1,0.55739,space,0.19853,0,9,9,119,1,0_targ_1_dist_green/trial20.png,,,0,1,greenverival,a,52,20,female,2021-02-23_16h44.47.759,exp11,2020.2.6,Win32,60,IwAR2lyB9dd-vyCAj7CxUCfuRwfY1B-LMPXxJsjRhaQhN0EMTYOcSgMIxs2VI,,,,,,,,,,,
,,,,,,,,,,,,,,a,1,0.647445,space,0.084965,0,10,10,145,1,0_targ_4_dist_green/trial21.png,,,0,4,greenverival,a,52,20,female,2021-02-23_16h44.47.759,exp11,2020.2.6,Win32,60,IwAR2lyB9dd-vyCAj7CxUCfuRwfY1B-LMPXxJsjRhaQhN0EMTYOcSgMIxs2VI,,,,,,,,,,,
,,,,,,,,,,,,,,p,1,0.53562,space,0.0836,0,11,11,2,1,0_dist_green/trial3.png,,,1,0,greenverival,p,52,20,female,2021-02-23_16h44.47.759,exp11,2020.2.6,Win32,60,IwAR2lyB9dd-vyCAj7CxUCfuRwfY1B-LMPXxJsjRhaQhN0EMTYOcSgMIxs2VI,,,,,,,,,,,
,,,,,,,,,,,,,,p,1,0.4019,space,0.068505,0,12,12,1,1,0_dist_green/trial2.png,,,1,0,greenverival,p,52,20,female,2021-02-23_16h44.47.759,exp11,2020.2.6,Win32,60,IwAR2lyB9dd-vyCAj7CxUCfuRwfY1B-LMPXxJsjRhaQhN0EMTYOcSgMIxs2VI,,,,,,,,,,,
,,,,,,,,,,,,,,p,1,0.58124,space,0.02703,0,13,13,39,1,3_dist_green/trial15.png,,,1,3,greenverival,p,52,20,female,2021-02-23_16h44.47.759,exp11,2020.2.6,Win32,60,IwAR2lyB9dd-vyCAj7CxUCfuRwfY1B-LMPXxJsjRhaQhN0EMTYOcSgMIxs2VI,,,,,,,,,,,
,,,,,,,,,,,,,,a,1,0.678385,space,0.007525,0,14,14,154,1,0_targ_10_dist_green/trial5.png,,,0,10,greenverival,a,52,20,female,2021-02-23_16h44.47.759,exp11,2020.2.6,Win32,60,IwAR2lyB9dd-vyCAj7CxUCfuRwfY1B-LMPXxJsjRhaQhN0EMTYOcSgMIxs2VI,,,,,,,,,,,
,,,,,,,,,,,,,,p,1,1.216835,space,0.450755,0,15,15,96,1,15_dist_green/trial22.png,,,1,15,greenverival,p,52,20,female,2021-02-23_16h44.47.759,exp11,2020.2.6,Win32,60,IwAR2lyB9dd-vyCAj7CxUCfuRwfY1B-LMPXxJsjRhaQhN0EMTYOcSgMIxs2VI,,,,,,,,,,,
,,,,,,,,,,,,,,p,1,0.582595,space,0.022585,0,16,16,45,1,3_dist_green/trial21.png,,,1,3,greenverival,p,52,20,female,2021-02-23_16h44.47.759,exp11,2020.2.6,Win32,60,IwAR2lyB9dd-vyCAj7CxUCfuRwfY1B-LMPXxJsjRhaQhN0EMTYOcSgMIxs2VI,,,,,,,,,,,
,,,,,,,,,,,,,,a,1,0.66465,space,1.281815,0,17,17,117,1,0_targ_1_dist_green/trial18.png,,,0,1,greenverival,a,52,20,female,2021-02-23_16h44.47.759,exp11,2020.2.6,Win32,60,IwAR2lyB9dd-vyCAj7CxUCfuRwfY1B-LMPXxJsjRhaQhN0EMTYOcSgMIxs2VI,,,,,,,,,,,
,,,,,,,,,,,,,,a,1,2.92861,space,0.37198,0,18,18,194,1,0_targ_16_dist_green/trial20.png,,,0,16,greenverival,a,52,20,female,2021-02-23_16h44.47.759,exp11,2020.2.6,Win32,60,IwAR2lyB9dd-vyCAj7CxUCfuRwfY1B-LMPXxJsjRhaQhN0EMTYOcSgMIxs2VI,,,,,,,,,,,
,,,,,,,,,,,,,,a,1,0.73649,space,0.35147,0,19,19,173,1,0_targ_10_dist_green/trial24.png,,,0,10,greenverival,a,52,20,female,2021-02-23_16h44.47.759,exp11,2020.2.6,Win32,60,IwAR2lyB9dd-vyCAj7CxUCfuRwfY1B-LMPXxJsjRhaQhN0EMTYOcSgMIxs2VI,,,,,,,,,,,
,,,,,,,,,,,,,,p,1,0.545025,space,0.022785,0,20,20,12,1,0_dist_green/trial13.png,,,1,0,greenverival,p,52,20,female,2021-02-23_16h44.47.759,exp11,2020.2.6,Win32,60,IwAR2lyB9dd-vyCAj7CxUCfuRwfY1B-LMPXxJsjRhaQhN0EMTYOcSgMIxs2VI,,,,,,,,,,,
,,,,,,,,,,,,,,a,1,1.02135,space,0.333895,0,21,21,137,1,0_targ_4_dist_green/trial13.png,,,0,4,greenverival,a,52,20,female,2021-02-23_16h44.47.759,exp11,2020.2.6,Win32,60,IwAR2lyB9dd-vyCAj7CxUCfuRwfY1B-LMPXxJsjRhaQhN0EMTYOcSgMIxs2VI,,,,,,,,,,,
,,,,,,,,,,,,,,a,1,0.64822,space,0.325865,0,22,22,132,1,0_targ_4_dist_green/trial8.png,,,0,4,greenverival,a,52,20,female,2021-02-23_16h44.47.759,exp11,2020.2.6,Win32,60,IwAR2lyB9dd-vyCAj7CxUCfuRwfY1B-LMPXxJsjRhaQhN0EMTYOcSgMIxs2VI,,,,,,,,,,,
,,,,,,,,,,,,,,a,1,0.532595,space,0.068395,0,23,23,130,1,0_targ_4_dist_green/trial6.png,,,0,4,greenverival,a,52,20,female,2021-02-23_16h44.47.759,exp11,2020.2.6,Win32,60,IwAR2lyB9dd-vyCAj7CxUCfuRwfY1B-LMPXxJsjRhaQhN0EMTYOcSgMIxs2VI,,,,,,,,,,,
,,,,,,,,,,,,,,a,1,0.850395,space,0.044715,0,24,24,113,1,0_targ_1_dist_green/trial14.png,,,0,1,greenverival,a,52,20,female,2021-02-23_16h44.47.759,exp11,2020.2.6,Win32,60,IwAR2lyB9dd-vyCAj7CxUCfuRwfY1B-LMPXxJsjRhaQhN0EMTYOcSgMIxs2VI,,,,,,,,,,,
,,,,,,,,,,,,,,a,1,0.788575,space,0.404485,0,25,25,164,1,0_targ_10_dist_green/trial15.png,,,0,10,greenverival,a,52,20,female,2021-02-23_16h44.47.759,exp11,2020.2.6,Win32,60,IwAR2lyB9dd-vyCAj7CxUCfuRwfY1B-LMPXxJsjRhaQhN0EMTYOcSgMIxs2VI,,,,,,,,,,,
,,,,,,,,,,,,,,a,1,0.77078,space,0.009205,0,26,26,184,1,0_targ_16_dist_green/trial10.png,,,0,16,greenverival,a,52,20,female,2021-02-23_16h44.47.759,exp11,2020.2.6,Win32,60,IwAR2lyB9dd-vyCAj7CxUCfuRwfY1B-LMPXxJsjRhaQhN0EMTYOcSgMIxs2VI,,,,,,,,,,,
,,,,,,,,,,,,,,a,1,1.15081,space,0.068615,0,27,27,116,1,0_targ_1_dist_green/trial17.png,,,0,1,greenverival,a,52,20,female,2021-02-23_16h44.47.759,exp11,2020.2.6,Win32,60,IwAR2lyB9dd-vyCAj7CxUCfuRwfY1B-LMPXxJsjRhaQhN0EMTYOcSgMIxs2VI,,,,,,,,,,,
,,,,,,,,,,,,,,p,1,0.7291,space,0.45077,0,28,28,3,1,0_dist_green/trial4.png,,,1,0,greenverival,p,52,20,female,2021-02-23_16h44.47.759,exp11,2020.2.6,Win32,60,IwAR2lyB9dd-vyCAj7CxUCfuRwfY1B-LMPXxJsjRhaQhN0EMTYOcSgMIxs2VI,,,,,,,,,,,
,,,,,,,,,,,,,,a,1,0.767735,space,0.002665,0,29,29,122,1,0_targ_1_dist_green/trial23.png,,,0,1,greenverival,a,52,20,female,2021-02-23_16h44.47.759,exp11,2020.2.6,Win32,60,IwAR2lyB9dd-vyCAj7CxUCfuRwfY1B-LMPXxJsjRhaQhN0EMTYOcSgMIxs2VI,,,,,,,,,,,
,,,,,,,,,,,,,,a,1,1.05141,space,0.378085,0,30,30,186,1,0_targ_16_dist_green/trial12.png,,,0,16,greenverival,a,52,20,female,2021-02-23_16h44.47.759,exp11,2020.2.6,Win32,60,IwAR2lyB9dd-vyCAj7CxUCfuRwfY1B-LMPXxJsjRhaQhN0EMTYOcSgMIxs2VI,,,,,,,,,,,
,,,,,,,,,,,,,,p,1,0.72755,space,0.422755,0,31,31,8,1,0_dist_green/trial9.png,,,1,0,greenverival,p,52,20,female,2021-02-23_16h44.47.759,exp11,2020.2.6,Win32,60,IwAR2lyB9dd-vyCAj7CxUCfuRwfY1B-LMPXxJsjRhaQhN0EMTYOcSgMIxs2VI,,,,,,,,,,,
,,,,,,,,,,,,,,p,1,0.93149,space,0.417045,0,32,32,15,1,0_dist_green/trial16.png,,,1,0,greenverival,p,52,20,female,2021-02-23_16h44.47.759,exp11,2020.2.6,Win32,60,IwAR2lyB9dd-vyCAj7CxUCfuRwfY1B-LMPXxJsjRhaQhN0EMTYOcSgMIxs2VI,,,,,,,,,,,
,,,,,,,,,,,,,,a,1,0.66419,space,0.01264,0,33,33,150,1,0_targ_10_dist_green/trial1.png,,,0,10,greenverival,a,52,20,female,2021-02-23_16h44.47.759,exp11,2020.2.6,Win32,60,IwAR2lyB9dd-vyCAj7CxUCfuRwfY1B-LMPXxJsjRhaQhN0EMTYOcSgMIxs2VI,,,,,,,,,,,
,,,,,,,,,,,,,,p,1,1.190055,space,0.424965,0,34,34,90,1,15_dist_green/trial16.png,,,1,15,greenverival,p,52,20,female,2021-02-23_16h44.47.759,exp11,2020.2.6,Win32,60,IwAR2lyB9dd-vyCAj7CxUCfuRwfY1B-LMPXxJsjRhaQhN0EMTYOcSgMIxs2VI,,,,,,,,,,,
,,,,,,,,,,,,,,a,1,0.7025,space,0.065395,0,35,35,135,1,0_targ_4_dist_green/trial11.png,,,0,4,greenverival,a,52,20,female,2021-02-23_16h44.47.759,exp11,2020.2.6,Win32,60,IwAR2lyB9dd-vyCAj7CxUCfuRwfY1B-LMPXxJsjRhaQhN0EMTYOcSgMIxs2VI,,,,,,,,,,,
,,,,,,,,,,,,,,p,1,1.02017,space,0.373365,0,36,36,68,1,9_dist_green/trial19.png,,,1,9,greenverival,p,52,20,female,2021-02-23_16h44.47.759,exp11,2020.2.6,Win32,60,IwAR2lyB9dd-vyCAj7CxUCfuRwfY1B-LMPXxJsjRhaQhN0EMTYOcSgMIxs2VI,,,,,,,,,,,
,,,,,,,,,,,,,,a,1,0.593875,space,0.06986,0,37,37,172,1,0_targ_10_dist_green/trial23.png,,,0,10,greenverival,a,52,20,female,2021-02-23_16h44.47.759,exp11,2020.2.6,Win32,60,IwAR2lyB9dd-vyCAj7CxUCfuRwfY1B-LMPXxJsjRhaQhN0EMTYOcSgMIxs2VI,,,,,,,,,,,
,,,,,,,,,,,,,,p,0,0.869575,space,1.33815,0,38,38,170,1,0_targ_10_dist_green/trial21.png,,,0,10,greenverival,a,52,20,female,2021-02-23_16h44.47.759,exp11,2020.2.6,Win32,60,IwAR2lyB9dd-vyCAj7CxUCfuRwfY1B-LMPXxJsjRhaQhN0EMTYOcSgMIxs2VI,,,,,,,,,,,
,,,,,,,,,,,,,,a,1,0.58031,space,0.03021,0,39,39,167,1,0_targ_10_dist_green/trial18.png,,,0,10,greenverival,a,52,20,female,2021-02-23_16h44.47.759,exp11,2020.2.6,Win32,60,IwAR2lyB9dd-vyCAj7CxUCfuRwfY1B-LMPXxJsjRhaQhN0EMTYOcSgMIxs2VI,,,,,,,,,,,
,,,,,,,,,,,,,,p,1,0.816525,space,0.339375,0,40,40,30,1,3_dist_green/trial6.png,,,1,3,greenverival,p,52,20,female,2021-02-23_16h44.47.759,exp11,2020.2.6,Win32,60,IwAR2lyB9dd-vyCAj7CxUCfuRwfY1B-LMPXxJsjRhaQhN0EMTYOcSgMIxs2VI,,,,,,,,,,,
,,,,,,,,,,,,,,p,1,0.64111,space,0.300305,0,41,41,42,1,3_dist_green/trial18.png,,,1,3,greenverival,p,52,20,female,2021-02-23_16h44.47.759,exp11,2020.2.6,Win32,60,IwAR2lyB9dd-vyCAj7CxUCfuRwfY1B-LMPXxJsjRhaQhN0EMTYOcSgMIxs2VI,,,,,,,,,,,
,,,,,,,,,,,,,,p,1,0.85434,space,0.012335,0,42,42,77,1,15_dist_green/trial3.png,,,1,15,greenverival,p,52,20,female,2021-02-23_16h44.47.759,exp11,2020.2.6,Win32,60,IwAR2lyB9dd-vyCAj7CxUCfuRwfY1B-LMPXxJsjRhaQhN0EMTYOcSgMIxs2VI,,,,,,,,,,,
,,,,,,,,,,,,,,a,1,0.69647,space,0.059905,0,43,43,121,1,0_targ_1_dist_green/trial22.png,,,0,1,greenverival,a,52,20,female,2021-02-23_16h44.47.759,exp11,2020.2.6,Win32,60,IwAR2lyB9dd-vyCAj7CxUCfuRwfY1B-LMPXxJsjRhaQhN0EMTYOcSgMIxs2VI,,,,,,,,,,,
,,,,,,,,,,,,,,p,1,0.67593,space,0.46938,0,44,44,60,1,9_dist_green/trial11.png,,,1,9,greenverival,p,52,20,female,2021-02-23_16h44.47.759,exp11,2020.2.6,Win32,60,IwAR2lyB9dd-vyCAj7CxUCfuRwfY1B-LMPXxJsjRhaQhN0EMTYOcSgMIxs2VI,,,,,,,,,,,
,,,,,,,,,,,,,,a,1,0.617605,space,0.001585,0,45,45,111,1,0_targ_1_dist_green/trial12.png,,,0,1,greenverival,a,52,20,female,2021-02-23_16h44.47.759,exp11,2020.2.6,Win32,60,IwAR2lyB9dd-vyCAj7CxUCfuRwfY1B-LMPXxJsjRhaQhN0EMTYOcSgMIxs2VI,,,,,,,,,,,
,,,,,,,,,,,,,,a,1,0.734635,space,0.31922,0,46,46,108,1,0_targ_1_dist_green/trial9.png,,,0,1,greenverival,a,52,20,female,2021-02-23_16h44.47.759,exp11,2020.2.6,Win32,60,IwAR2lyB9dd-vyCAj7CxUCfuRwfY1B-LMPXxJsjRhaQhN0EMTYOcSgMIxs2VI,,,,,,,,,,,
,,,,,,,,,,,,,,p,1,0.5487,space,0.406745,0,47,47,37,1,3_dist_green/trial13.png,,,1,3,greenverival,p,52,20,female,2021-02-23_16h44.47.759,exp11,2020.2.6,Win32,60,IwAR2lyB9dd-vyCAj7CxUCfuRwfY1B-LMPXxJsjRhaQhN0EMTYOcSgMIxs2VI,,,,,,,,,,,
,,,,,,,,,,,,,,a,1,0.646185,space,0.035435,0,48,48,112,1,0_targ_1_dist_green/trial13.png,,,0,1,greenverival,a,52,20,female,2021-02-23_16h44.47.759,exp11,2020.2.6,Win32,60,IwAR2lyB9dd-vyCAj7CxUCfuRwfY1B-LMPXxJsjRhaQhN0EMTYOcSgMIxs2VI,,,,,,,,,,,
,,,,,,,,,,,,,,p,1,0.699425,space,0.38685,0,49,49,32,1,3_dist_green/trial8.png,,,1,3,greenverival,p,52,20,female,2021-02-23_16h44.47.759,exp11,2020.2.6,Win32,60,IwAR2lyB9dd-vyCAj7CxUCfuRwfY1B-LMPXxJsjRhaQhN0EMTYOcSgMIxs2VI,,,,,,,,,,,
,,,,,,,,,,,,,,a,1,0.572775,space,0.017675,0,50,50,106,1,0_targ_1_dist_green/trial7.png,,,0,1,greenverival,a,52,20,female,2021-02-23_16h44.47.759,exp11,2020.2.6,Win32,60,IwAR2lyB9dd-vyCAj7CxUCfuRwfY1B-LMPXxJsjRhaQhN0EMTYOcSgMIxs2VI,,,,,,,,,,,
,,,,,,,,,,,,,,p,1,0.665885,space,0.303875,0,51,51,23,1,0_dist_green/trial24.png,,,1,0,greenverival,p,52,20,female,2021-02-23_16h44.47.759,exp11,2020.2.6,Win32,60,IwAR2lyB9dd-vyCAj7CxUCfuRwfY1B-LMPXxJsjRhaQhN0EMTYOcSgMIxs2VI,,,,,,,,,,,
,,,,,,,,,,,,,,p,1,0.775665,space,0.335145,0,52,52,20,1,0_dist_green/trial21.png,,,1,0,greenverival,p,52,20,female,2021-02-23_16h44.47.759,exp11,2020.2.6,Win32,60,IwAR2lyB9dd-vyCAj7CxUCfuRwfY1B-LMPXxJsjRhaQhN0EMTYOcSgMIxs2VI,,,,,,,,,,,
,,,,,,,,,,,,,,p,1,0.75523,space,0.022275,0,53,53,52,1,9_dist_green/trial3.png,,,1,9,greenverival,p,52,20,female,2021-02-23_16h44.47.759,exp11,2020.2.6,Win32,60,IwAR2lyB9dd-vyCAj7CxUCfuRwfY1B-LMPXxJsjRhaQhN0EMTYOcSgMIxs2VI,,,,,,,,,,,
,,,,,,,,,,,,,,a,1,0.82796,space,0.00077,0,54,54,185,1,0_targ_16_dist_green/trial11.png,,,0,16,greenverival,a,52,20,female,2021-02-23_16h44.47.759,exp11,2020.2.6,Win32,60,IwAR2lyB9dd-vyCAj7CxUCfuRwfY1B-LMPXxJsjRhaQhN0EMTYOcSgMIxs2VI,,,,,,,,,,,
,,,,,,,,,,,,,,a,1,1.023405,space,0.37273,0,55,55,179,1,0_targ_16_dist_green/trial5.png,,,0,16,greenverival,a,52,20,female,2021-02-23_16h44.47.759,exp11,2020.2.6,Win32,60,IwAR2lyB9dd-vyCAj7CxUCfuRwfY1B-LMPXxJsjRhaQhN0EMTYOcSgMIxs2VI,,,,,,,,,,,
,,,,,,,,,,,,,,a,1,0.7103,space,0.01534,0,56,56,149,1,0_targ_4_dist_green/trial25.png,,,0,4,greenverival,a,52,20,female,2021-02-23_16h44.47.759,exp11,2020.2.6,Win32,60,IwAR2lyB9dd-vyCAj7CxUCfuRwfY1B-LMPXxJsjRhaQhN0EMTYOcSgMIxs2VI,,,,,,,,,,,
,,,,,,,,,,,,,,a,1,0.79286,space,0.33325,0,57,57,189,1,0_targ_16_dist_green/trial15.png,,,0,16,greenverival,a,52,20,female,2021-02-23_16h44.47.759,exp11,2020.2.6,Win32,60,IwAR2lyB9dd-vyCAj7CxUCfuRwfY1B-LMPXxJsjRhaQhN0EMTYOcSgMIxs2VI,,,,,,,,,,,
,,,,,,,,,,,,,,p,1,0.6767,space,0.26582,0,58,58,44,1,3_dist_green/trial20.png,,,1,3,greenverival,p,52,20,female,2021-02-23_16h44.47.759,exp11,2020.2.6,Win32,60,IwAR2lyB9dd-vyCAj7CxUCfuRwfY1B-LMPXxJsjRhaQhN0EMTYOcSgMIxs2VI,,,,,,,,,,,
,,,,,,,,,,,,,,p,1,0.627285,space,0.25068,0,59,59,10,1,0_dist_green/trial11.png,,,1,0,greenverival,p,52,20,female,2021-02-23_16h44.47.759,exp11,2020.2.6,Win32,60,IwAR2lyB9dd-vyCAj7CxUCfuRwfY1B-LMPXxJsjRhaQhN0EMTYOcSgMIxs2VI,,,,,,,,,,,
,,,,,,,,,,,,,,p,1,0.612765,space,0.30041,0,60,60,11,1,0_dist_green/trial12.png,,,1,0,greenverival,p,52,20,female,2021-02-23_16h44.47.759,exp11,2020.2.6,Win32,60,IwAR2lyB9dd-vyCAj7CxUCfuRwfY1B-LMPXxJsjRhaQhN0EMTYOcSgMIxs2VI,,,,,,,,,,,
,,,,,,,,,,,,,,a,1,0.764955,space,0.31724,0,61,61,136,1,0_targ_4_dist_green/trial12.png,,,0,4,greenverival,a,52,20,female,2021-02-23_16h44.47.759,exp11,2020.2.6,Win32,60,IwAR2lyB9dd-vyCAj7CxUCfuRwfY1B-LMPXxJsjRhaQhN0EMTYOcSgMIxs2VI,,,,,,,,,,,
,,,,,,,,,,,,,,p,1,0.74323,space,0.25764,0,62,62,16,1,0_dist_green/trial17.png,,,1,0,greenverival,p,52,20,female,2021-02-23_16h44.47.759,exp11,2020.2.6,Win32,60,IwAR2lyB9dd-vyCAj7CxUCfuRwfY1B-LMPXxJsjRhaQhN0EMTYOcSgMIxs2VI,,,,,,,,,,,
,,,,,,,,,,,,,,p,1,0.72144,space,0.236755,0,63,63,26,1,3_dist_green/trial2.png,,,1,3,greenverival,p,52,20,female,2021-02-23_16h44.47.759,exp11,2020.2.6,Win32,60,IwAR2lyB9dd-vyCAj7CxUCfuRwfY1B-LMPXxJsjRhaQhN0EMTYOcSgMIxs2VI,,,,,,,,,,,
,,,,,,,,,,,,,,p,1,0.75425,space,0.30176,0,64,64,93,1,15_dist_green/trial19.png,,,1,15,greenverival,p,52,20,female,2021-02-23_16h44.47.759,exp11,2020.2.6,Win32,60,IwAR2lyB9dd-vyCAj7CxUCfuRwfY1B-LMPXxJsjRhaQhN0EMTYOcSgMIxs2VI,,,,,,,,,,,
,,,,,,,,,,,,,,a,0,0.74569,space,1.66729,0,65,65,73,1,9_dist_green/trial24.png,,,1,9,greenverival,p,52,20,female,2021-02-23_16h44.47.759,exp11,2020.2.6,Win32,60,IwAR2lyB9dd-vyCAj7CxUCfuRwfY1B-LMPXxJsjRhaQhN0EMTYOcSgMIxs2VI,,,,,,,,,,,
,,,,,,,,,,,,,,a,1,0.625805,space,0.00618,0,66,66,195,1,0_targ_16_dist_green/trial21.png,,,0,16,greenverival,a,52,20,female,2021-02-23_16h44.47.759,exp11,2020.2.6,Win32,60,IwAR2lyB9dd-vyCAj7CxUCfuRwfY1B-LMPXxJsjRhaQhN0EMTYOcSgMIxs2VI,,,,,,,,,,,
,,,,,,,,,,,,,,a,1,0.734915,space,0.359125,0,67,67,115,1,0_targ_1_dist_green/trial6.png,,,0,1,greenverival,a,52,20,female,2021-02-23_16h44.47.759,exp11,2020.2.6,Win32,60,IwAR2lyB9dd-vyCAj7CxUCfuRwfY1B-LMPXxJsjRhaQhN0EMTYOcSgMIxs2VI,,,,,,,,,,,
,,,,,,,,,,,,,,a,1,0.74351,space,0.30108,0,68,68,139,1,0_targ_4_dist_green/trial15.png,,,0,4,greenverival,a,52,20,female,2021-02-23_16h44.47.759,exp11,2020.2.6,Win32,60,IwAR2lyB9dd-vyCAj7CxUCfuRwfY1B-LMPXxJsjRhaQhN0EMTYOcSgMIxs2VI,,,,,,,,,,,
,,,,,,,,,,,,,,p,1,0.715695,space,0.39687,0,69,69,61,1,9_dist_green/trial12.png,,,1,9,greenverival,p,52,20,female,2021-02-23_16h44.47.759,exp11,2020.2.6,Win32,60,IwAR2lyB9dd-vyCAj7CxUCfuRwfY1B-LMPXxJsjRhaQhN0EMTYOcSgMIxs2VI,,,,,,,,,,,
,,,,,,,,,,,,,,p,0,0.85505,space,1.62679,0,70,70,176,1,0_targ_16_dist_green/trial2.png,,,0,16,greenverival,a,52,20,female,2021-02-23_16h44.47.759,exp11,2020.2.6,Win32,60,IwAR2lyB9dd-vyCAj7CxUCfuRwfY1B-LMPXxJsjRhaQhN0EMTYOcSgMIxs2VI,,,,,,,,,,,
,,,,,,,,,,,,,,p,1,0.73569,space,0.25414,0,71,71,69,1,9_dist_green/trial20.png,,,1,9,greenverival,p,52,20,female,2021-02-23_16h44.47.759,exp11,2020.2.6,Win32,60,IwAR2lyB9dd-vyCAj7CxUCfuRwfY1B-LMPXxJsjRhaQhN0EMTYOcSgMIxs2VI,,,,,,,,,,,
,,,,,,,,,,,,,,p,1,0.63938,space,0.3076,0,72,72,35,1,3_dist_green/trial11.png,,,1,3,greenverival,p,52,20,female,2021-02-23_16h44.47.759,exp11,2020.2.6,Win32,60,IwAR2lyB9dd-vyCAj7CxUCfuRwfY1B-LMPXxJsjRhaQhN0EMTYOcSgMIxs2VI,,,,,,,,,,,
,,,,,,,,,,,,,,p,1,0.549255,space,0.25888,0,73,73,19,1,0_dist_green/trial20.png,,,1,0,greenverival,p,52,20,female,2021-02-23_16h44.47.759,exp11,2020.2.6,Win32,60,IwAR2lyB9dd-vyCAj7CxUCfuRwfY1B-LMPXxJsjRhaQhN0EMTYOcSgMIxs2VI,,,,,,,,,,,
,,,,,,,,,,,,,,p,1,0.694785,space,0.244835,0,74,74,25,1,3_dist_green/trial1.png,,,1,3,greenverival,p,52,20,female,2021-02-23_16h44.47.759,exp11,2020.2.6,Win32,60,IwAR2lyB9dd-vyCAj7CxUCfuRwfY1B-LMPXxJsjRhaQhN0EMTYOcSgMIxs2VI,,,,,,,,,,,
,,,,,,,,,,,,,,a,1,0.633605,space,0.35714,0,75,75,197,1,0_targ_16_dist_green/trial23.png,,,0,16,greenverival,a,52,20,female,2021-02-23_16h44.47.759,exp11,2020.2.6,Win32,60,IwAR2lyB9dd-vyCAj7CxUCfuRwfY1B-LMPXxJsjRhaQhN0EMTYOcSgMIxs2VI,,,,,,,,,,,
,,,,,,,,,,,,,,p,1,0.54451,space,0.250745,0,76,76,48,1,3_dist_green/trial24.png,,,1,3,greenverival,p,52,20,female,2021-02-23_16h44.47.759,exp11,2020.2.6,Win32,60,IwAR2lyB9dd-vyCAj7CxUCfuRwfY1B-LMPXxJsjRhaQhN0EMTYOcSgMIxs2VI,,,,,,,,,,,
,,,,,,,,,,,,,,a,1,0.724045,space,0.39429,0,77,77,162,1,0_targ_10_dist_green/trial13.png,,,0,10,greenverival,a,52,20,female,2021-02-23_16h44.47.759,exp11,2020.2.6,Win32,60,IwAR2lyB9dd-vyCAj7CxUCfuRwfY1B-LMPXxJsjRhaQhN0EMTYOcSgMIxs2VI,,,,,,,,,,,
,,,,,,,,,,,,,,a,1,0.5753,space,0.28386,0,78,78,127,1,0_targ_4_dist_green/trial3.png,,,0,4,greenverival,a,52,20,female,2021-02-23_16h44.47.759,exp11,2020.2.6,Win32,60,IwAR2lyB9dd-vyCAj7CxUCfuRwfY1B-LMPXxJsjRhaQhN0EMTYOcSgMIxs2VI,,,,,,,,,,,
,,,,,,,,,,,,,,p,1,0.64736,space,0.244575,0,79,79,86,1,15_dist_green/trial12.png,,,1,15,greenverival,p,52,20,female,2021-02-23_16h44.47.759,exp11,2020.2.6,Win32,60,IwAR2lyB9dd-vyCAj7CxUCfuRwfY1B-LMPXxJsjRhaQhN0EMTYOcSgMIxs2VI,,,,,,,,,,,
,,,,,,,,,,,,,,p,1,0.63496,space,0.249685,0,80,80,36,1,3_dist_green/trial12.png,,,1,3,greenverival,p,52,20,female,2021-02-23_16h44.47.759,exp11,2020.2.6,Win32,60,IwAR2lyB9dd-vyCAj7CxUCfuRwfY1B-LMPXxJsjRhaQhN0EMTYOcSgMIxs2VI,,,,,,,,,,,
,,,,,,,,,,,,,,a,1,0.797345,space,0.12069,0,81,81,188,1,0_targ_16_dist_green/trial14.png,,,0,16,greenverival,a,52,20,female,2021-02-23_16h44.47.759,exp11,2020.2.6,Win32,60,IwAR2lyB9dd-vyCAj7CxUCfuRwfY1B-LMPXxJsjRhaQhN0EMTYOcSgMIxs2VI,,,,,,,,,,,
,,,,,,,,,,,,,,p,1,0.75038,space,0.250975,0,82,82,87,1,15_dist_green/trial13.png,,,1,15,greenverival,p,52,20,female,2021-02-23_16h44.47.759,exp11,2020.2.6,Win32,60,IwAR2lyB9dd-vyCAj7CxUCfuRwfY1B-LMPXxJsjRhaQhN0EMTYOcSgMIxs2VI,,,,,,,,,,,
,,,,,,,,,,,,,,a,1,0.712025,space,0.386675,0,83,83,160,1,0_targ_10_dist_green/trial11.png,,,0,10,greenverival,a,52,20,female,2021-02-23_16h44.47.759,exp11,2020.2.6,Win32,60,IwAR2lyB9dd-vyCAj7CxUCfuRwfY1B-LMPXxJsjRhaQhN0EMTYOcSgMIxs2VI,,,,,,,,,,,
,,,,,,,,,,,,,,a,1,0.81038,space,0.08154,0,84,84,182,1,0_targ_16_dist_green/trial8.png,,,0,16,greenverival,a,52,20,female,2021-02-23_16h44.47.759,exp11,2020.2.6,Win32,60,IwAR2lyB9dd-vyCAj7CxUCfuRwfY1B-LMPXxJsjRhaQhN0EMTYOcSgMIxs2VI,,,,,,,,,,,
,,,,,,,,,,,,,,p,1,0.679425,space,0.21854,0,85,85,46,1,3_dist_green/trial22.png,,,1,3,greenverival,p,52,20,female,2021-02-23_16h44.47.759,exp11,2020.2.6,Win32,60,IwAR2lyB9dd-vyCAj7CxUCfuRwfY1B-LMPXxJsjRhaQhN0EMTYOcSgMIxs2VI,,,,,,,,,,,
,,,,,,,,,,,,,,p,1,0.000485,space,1.556235,0,86,86,43,1,3_dist_green/trial19.png,,,1,3,greenverival,p,52,20,female,2021-02-23_16h44.47.759,exp11,2020.2.6,Win32,60,IwAR2lyB9dd-vyCAj7CxUCfuRwfY1B-LMPXxJsjRhaQhN0EMTYOcSgMIxs2VI,,,,,,,,,,,
,,,,,,,,,,,,,,a,1,1.062235,space,0.387655,0,87,87,144,1,0_targ_4_dist_green/trial20.png,,,0,4,greenverival,a,52,20,female,2021-02-23_16h44.47.759,exp11,2020.2.6,Win32,60,IwAR2lyB9dd-vyCAj7CxUCfuRwfY1B-LMPXxJsjRhaQhN0EMTYOcSgMIxs2VI,,,,,,,,,,,
,,,,,,,,,,,,,,p,1,0.830795,space,0.216325,0,88,88,97,1,15_dist_green/trial23.png,,,1,15,greenverival,p,52,20,female,2021-02-23_16h44.47.759,exp11,2020.2.6,Win32,60,IwAR2lyB9dd-vyCAj7CxUCfuRwfY1B-LMPXxJsjRhaQhN0EMTYOcSgMIxs2VI,,,,,,,,,,,
,,,,,,,,,,,,,,p,1,0.626375,space,0.21984,0,89,89,98,1,15_dist_green/trial24.png,,,1,15,greenverival,p,52,20,female,2021-02-23_16h44.47.759,exp11,2020.2.6,Win32,60,IwAR2lyB9dd-vyCAj7CxUCfuRwfY1B-LMPXxJsjRhaQhN0EMTYOcSgMIxs2VI,,,,,,,,,,,
,,,,,,,,,,,,,,a,0,1.23876,space,1.34124,0,90,90,83,1,15_dist_green/trial9.png,,,1,15,greenverival,p,52,20,female,2021-02-23_16h44.47.759,exp11,2020.2.6,Win32,60,IwAR2lyB9dd-vyCAj7CxUCfuRwfY1B-LMPXxJsjRhaQhN0EMTYOcSgMIxs2VI,,,,,,,,,,,
,,,,,,,,,,,,,,a,1,0.713135,space,0.267165,0,91,91,146,1,0_targ_4_dist_green/trial22.png,,,0,4,greenverival,a,52,20,female,2021-02-23_16h44.47.759,exp11,2020.2.6,Win32,60,IwAR2lyB9dd-vyCAj7CxUCfuRwfY1B-LMPXxJsjRhaQhN0EMTYOcSgMIxs2VI,,,,,,,,,,,
,,,,,,,,,,,,,,a,1,0.57455,space,0.326095,0,92,92,104,1,0_targ_1_dist_green/trial5.png,,,0,1,greenverival,a,52,20,female,2021-02-23_16h44.47.759,exp11,2020.2.6,Win32,60,IwAR2lyB9dd-vyCAj7CxUCfuRwfY1B-LMPXxJsjRhaQhN0EMTYOcSgMIxs2VI,,,,,,,,,,,
,,,,,,,,,,,,,,p,1,0.66046,space,0.25474,0,93,93,71,1,9_dist_green/trial22.png,,,1,9,greenverival,p,52,20,female,2021-02-23_16h44.47.759,exp11,2020.2.6,Win32,60,IwAR2lyB9dd-vyCAj7CxUCfuRwfY1B-LMPXxJsjRhaQhN0EMTYOcSgMIxs2VI,,,,,,,,,,,
,,,,,,,,,,,,,,a,1,1.83635,space,0.227335,0,94,94,125,1,0_targ_4_dist_green/trial1.png,,,0,4,greenverival,a,52,20,female,2021-02-23_16h44.47.759,exp11,2020.2.6,Win32,60,IwAR2lyB9dd-vyCAj7CxUCfuRwfY1B-LMPXxJsjRhaQhN0EMTYOcSgMIxs2VI,,,,,,,,,,,
,,,,,,,,,,,,,,p,1,0.984595,space,0.286245,0,95,95,51,1,9_dist_green/trial2.png,,,1,9,greenverival,p,52,20,female,2021-02-23_16h44.47.759,exp11,2020.2.6,Win32,60,IwAR2lyB9dd-vyCAj7CxUCfuRwfY1B-LMPXxJsjRhaQhN0EMTYOcSgMIxs2VI,,,,,,,,,,,
,,,,,,,,,,,,,,p,1,0.60249,space,0.308455,0,96,96,41,1,3_dist_green/trial17.png,,,1,3,greenverival,p,52,20,female,2021-02-23_16h44.47.759,exp11,2020.2.6,Win32,60,IwAR2lyB9dd-vyCAj7CxUCfuRwfY1B-LMPXxJsjRhaQhN0EMTYOcSgMIxs2VI,,,,,,,,,,,
,,,,,,,,,,,,,,p,1,0.67762,space,0.28776,0,97,97,79,1,15_dist_green/trial5.png,,,1,15,greenverival,p,52,20,female,2021-02-23_16h44.47.759,exp11,2020.2.6,Win32,60,IwAR2lyB9dd-vyCAj7CxUCfuRwfY1B-LMPXxJsjRhaQhN0EMTYOcSgMIxs2VI,,,,,,,,,,,
,,,,,,,,,,,,,,p,0,0.00047,space,2.200365,0,98,98,157,1,0_targ_10_dist_green/trial8.png,,,0,10,greenverival,a,52,20,female,2021-02-23_16h44.47.759,exp11,2020.2.6,Win32,60,IwAR2lyB9dd-vyCAj7CxUCfuRwfY1B-LMPXxJsjRhaQhN0EMTYOcSgMIxs2VI,,,,,,,,,,,
,,,,,,,,,,,,,,p,1,1.412,space,0.32265,0,99,99,59,1,9_dist_green/trial10.png,,,1,9,greenverival,p,52,20,female,2021-02-23_16h44.47.759,exp11,2020.2.6,Win32,60,IwAR2lyB9dd-vyCAj7CxUCfuRwfY1B-LMPXxJsjRhaQhN0EMTYOcSgMIxs2VI,,,,,,,,,,,
,,,,,,,,,,,,,,a,1,1.01652,space,0.2542,0,100,100,196,1,0_targ_16_dist_green/trial22.png,,,0,16,greenverival,a,52,20,female,2021-02-23_16h44.47.759,exp11,2020.2.6,Win32,60,IwAR2lyB9dd-vyCAj7CxUCfuRwfY1B-LMPXxJsjRhaQhN0EMTYOcSgMIxs2VI,,,,,,,,,,,
,,,,,,,,,,,,,,a,1,0.8415,space,0.310975,0,101,101,103,1,0_targ_1_dist_green/trial4.png,,,0,1,greenverival,a,52,20,female,2021-02-23_16h44.47.759,exp11,2020.2.6,Win32,60,IwAR2lyB9dd-vyCAj7CxUCfuRwfY1B-LMPXxJsjRhaQhN0EMTYOcSgMIxs2VI,,,,,,,,,,,
,,,,,,,,,,,,,,a,1,0.95702,space,0.352665,0,102,102,178,1,0_targ_16_dist_green/trial4.png,,,0,16,greenverival,a,52,20,female,2021-02-23_16h44.47.759,exp11,2020.2.6,Win32,60,IwAR2lyB9dd-vyCAj7CxUCfuRwfY1B-LMPXxJsjRhaQhN0EMTYOcSgMIxs2VI,,,,,,,,,,,
,,,,,,,,,,,,,,a,1,0.613695,space,0.32866,0,103,103,128,1,0_targ_4_dist_green/trial4.png,,,0,4,greenverival,a,52,20,female,2021-02-23_16h44.47.759,exp11,2020.2.6,Win32,60,IwAR2lyB9dd-vyCAj7CxUCfuRwfY1B-LMPXxJsjRhaQhN0EMTYOcSgMIxs2VI,,,,,,,,,,,
,,,,,,,,,,,,,,a,1,1.452635,space,0.06825,0,104,104,147,1,0_targ_4_dist_green/trial23.png,,,0,4,greenverival,a,52,20,female,2021-02-23_16h44.47.759,exp11,2020.2.6,Win32,60,IwAR2lyB9dd-vyCAj7CxUCfuRwfY1B-LMPXxJsjRhaQhN0EMTYOcSgMIxs2VI,,,,,,,,,,,
,,,,,,,,,,,,,,a,1,0.637875,space,0.4363,0,105,105,148,1,0_targ_4_dist_green/trial24.png,,,0,4,greenverival,a,52,20,female,2021-02-23_16h44.47.759,exp11,2020.2.6,Win32,60,IwAR2lyB9dd-vyCAj7CxUCfuRwfY1B-LMPXxJsjRhaQhN0EMTYOcSgMIxs2VI,,,,,,,,,,,
,,,,,,,,,,,,,,a,1,0.638175,space,0.33856,0,106,106,133,1,0_targ_4_dist_green/trial9.png,,,0,4,greenverival,a,52,20,female,2021-02-23_16h44.47.759,exp11,2020.2.6,Win32,60,IwAR2lyB9dd-vyCAj7CxUCfuRwfY1B-LMPXxJsjRhaQhN0EMTYOcSgMIxs2VI,,,,,,,,,,,
,,,,,,,,,,,,,,a,1,0.615435,space,0.333765,0,107,107,153,1,0_targ_10_dist_green/trial4.png,,,0,10,greenverival,a,52,20,female,2021-02-23_16h44.47.759,exp11,2020.2.6,Win32,60,IwAR2lyB9dd-vyCAj7CxUCfuRwfY1B-LMPXxJsjRhaQhN0EMTYOcSgMIxs2VI,,,,,,,,,,,
,,,,,,,,,,,,,,a,1,0.742415,space,0.273445,0,108,108,107,1,0_targ_1_dist_green/trial8.png,,,0,1,greenverival,a,52,20,female,2021-02-23_16h44.47.759,exp11,2020.2.6,Win32,60,IwAR2lyB9dd-vyCAj7CxUCfuRwfY1B-LMPXxJsjRhaQhN0EMTYOcSgMIxs2VI,,,,,,,,,,,
,,,,,,,,,,,,,,p,1,0.595385,space,0.36112,0,109,109,0,1,0_dist_green/trial1.png,,,1,0,greenverival,p,52,20,female,2021-02-23_16h44.47.759,exp11,2020.2.6,Win32,60,IwAR2lyB9dd-vyCAj7CxUCfuRwfY1B-LMPXxJsjRhaQhN0EMTYOcSgMIxs2VI,,,,,,,,,,,
,,,,,,,,,,,,,,p,1,0.675805,space,0.23521,0,110,110,13,1,0_dist_green/trial14.png,,,1,0,greenverival,p,52,20,female,2021-02-23_16h44.47.759,exp11,2020.2.6,Win32,60,IwAR2lyB9dd-vyCAj7CxUCfuRwfY1B-LMPXxJsjRhaQhN0EMTYOcSgMIxs2VI,,,,,,,,,,,
,,,,,,,,,,,,,,a,1,1.013395,space,0.401585,0,111,111,183,1,0_targ_16_dist_green/trial9.png,,,0,16,greenverival,a,52,20,female,2021-02-23_16h44.47.759,exp11,2020.2.6,Win32,60,IwAR2lyB9dd-vyCAj7CxUCfuRwfY1B-LMPXxJsjRhaQhN0EMTYOcSgMIxs2VI,,,,,,,,,,,
,,,,,,,,,,,,,,p,1,0.576645,space,0.350505,0,112,112,66,1,9_dist_green/trial17.png,,,1,9,greenverival,p,52,20,female,2021-02-23_16h44.47.759,exp11,2020.2.6,Win32,60,IwAR2lyB9dd-vyCAj7CxUCfuRwfY1B-LMPXxJsjRhaQhN0EMTYOcSgMIxs2VI,,,,,,,,,,,
,,,,,,,,,,,,,,p,1,0.6854,space,0.241135,0,113,113,4,1,0_dist_green/trial5.png,,,1,0,greenverival,p,52,20,female,2021-02-23_16h44.47.759,exp11,2020.2.6,Win32,60,IwAR2lyB9dd-vyCAj7CxUCfuRwfY1B-LMPXxJsjRhaQhN0EMTYOcSgMIxs2VI,,,,,,,,,,,
,,,,,,,,,,,,,,p,1,0.542785,space,0.24926,0,114,114,6,1,0_dist_green/trial7.png,,,1,0,greenverival,p,52,20,female,2021-02-23_16h44.47.759,exp11,2020.2.6,Win32,60,IwAR2lyB9dd-vyCAj7CxUCfuRwfY1B-LMPXxJsjRhaQhN0EMTYOcSgMIxs2VI,,,,,,,,,,,
,,,,,,,,,,,,,,p,1,0.63935,space,0.32242,0,115,115,57,1,9_dist_green/trial8.png,,,1,9,greenverival,p,52,20,female,2021-02-23_16h44.47.759,exp11,2020.2.6,Win32,60,IwAR2lyB9dd-vyCAj7CxUCfuRwfY1B-LMPXxJsjRhaQhN0EMTYOcSgMIxs2VI,,,,,,,,,,,
,,,,,,,,,,,,,,p,1,0.70026,space,0.360205,0,116,116,70,1,9_dist_green/trial21.png,,,1,9,greenverival,p,52,20,female,2021-02-23_16h44.47.759,exp11,2020.2.6,Win32,60,IwAR2lyB9dd-vyCAj7CxUCfuRwfY1B-LMPXxJsjRhaQhN0EMTYOcSgMIxs2VI,,,,,,,,,,,
,,,,,,,,,,,,,,a,1,0.62508,space,0.291925,0,117,117,151,1,0_targ_10_dist_green/trial2.png,,,0,10,greenverival,a,52,20,female,2021-02-23_16h44.47.759,exp11,2020.2.6,Win32,60,IwAR2lyB9dd-vyCAj7CxUCfuRwfY1B-LMPXxJsjRhaQhN0EMTYOcSgMIxs2VI,,,,,,,,,,,
,,,,,,,,,,,,,,a,1,0.890135,space,0.284335,0,118,118,198,1,0_targ_16_dist_green/trial24.png,,,0,16,greenverival,a,52,20,female,2021-02-23_16h44.47.759,exp11,2020.2.6,Win32,60,IwAR2lyB9dd-vyCAj7CxUCfuRwfY1B-LMPXxJsjRhaQhN0EMTYOcSgMIxs2VI,,,,,,,,,,,
,,,,,,,,,,,,,,p,1,0.742215,space,0.31101,0,119,119,7,1,0_dist_green/trial8.png,,,1,0,greenverival,p,52,20,female,2021-02-23_16h44.47.759,exp11,2020.2.6,Win32,60,IwAR2lyB9dd-vyCAj7CxUCfuRwfY1B-LMPXxJsjRhaQhN0EMTYOcSgMIxs2VI,,,,,,,,,,,
,,,,,,,,,,,,,,a,1,0.651125,space,0.258225,0,120,120,180,1,0_targ_16_dist_green/trial6.png,,,0,16,greenverival,a,52,20,female,2021-02-23_16h44.47.759,exp11,2020.2.6,Win32,60,IwAR2lyB9dd-vyCAj7CxUCfuRwfY1B-LMPXxJsjRhaQhN0EMTYOcSgMIxs2VI,,,,,,,,,,,
,,,,,,,,,,,,,,p,1,0.6,space,0.256145,0,121,121,63,1,9_dist_green/trial14.png,,,1,9,greenverival,p,52,20,female,2021-02-23_16h44.47.759,exp11,2020.2.6,Win32,60,IwAR2lyB9dd-vyCAj7CxUCfuRwfY1B-LMPXxJsjRhaQhN0EMTYOcSgMIxs2VI,,,,,,,,,,,
,,,,,,,,,,,,,,a,1,0.67717,space,0.261085,0,122,122,192,1,0_targ_16_dist_green/trial18.png,,,0,16,greenverival,a,52,20,female,2021-02-23_16h44.47.759,exp11,2020.2.6,Win32,60,IwAR2lyB9dd-vyCAj7CxUCfuRwfY1B-LMPXxJsjRhaQhN0EMTYOcSgMIxs2VI,,,,,,,,,,,
,,,,,,,,,,,,,,a,1,0.67824,space,0.27175,0,123,123,168,1,0_targ_10_dist_green/trial19.png,,,0,10,greenverival,a,52,20,female,2021-02-23_16h44.47.759,exp11,2020.2.6,Win32,60,IwAR2lyB9dd-vyCAj7CxUCfuRwfY1B-LMPXxJsjRhaQhN0EMTYOcSgMIxs2VI,,,,,,,,,,,
,,,,,,,,,,,,,,p,1,0.624835,space,0.269095,0,124,124,88,1,15_dist_green/trial14.png,,,1,15,greenverival,p,52,20,female,2021-02-23_16h44.47.759,exp11,2020.2.6,Win32,60,IwAR2lyB9dd-vyCAj7CxUCfuRwfY1B-LMPXxJsjRhaQhN0EMTYOcSgMIxs2VI,,,,,,,,,,,
,,,,,,,,,,,,,,a,1,0.74188,space,0.38657,0,125,125,123,1,0_targ_1_dist_green/trial24.png,,,0,1,greenverival,a,52,20,female,2021-02-23_16h44.47.759,exp11,2020.2.6,Win32,60,IwAR2lyB9dd-vyCAj7CxUCfuRwfY1B-LMPXxJsjRhaQhN0EMTYOcSgMIxs2VI,,,,,,,,,,,
,,,,,,,,,,,,,,p,1,0.708025,space,0.275695,0,126,126,54,1,9_dist_green/trial5.png,,,1,9,greenverival,p,52,20,female,2021-02-23_16h44.47.759,exp11,2020.2.6,Win32,60,IwAR2lyB9dd-vyCAj7CxUCfuRwfY1B-LMPXxJsjRhaQhN0EMTYOcSgMIxs2VI,,,,,,,,,,,
,,,,,,,,,,,,,,a,1,0.74659,space,0.3043,0,127,127,159,1,0_targ_10_dist_green/trial10.png,,,0,10,greenverival,a,52,20,female,2021-02-23_16h44.47.759,exp11,2020.2.6,Win32,60,IwAR2lyB9dd-vyCAj7CxUCfuRwfY1B-LMPXxJsjRhaQhN0EMTYOcSgMIxs2VI,,,,,,,,,,,
,,,,,,,,,,,,,,p,1,0.584625,space,0.4209,0,128,128,40,1,3_dist_green/trial16.png,,,1,3,greenverival,p,52,20,female,2021-02-23_16h44.47.759,exp11,2020.2.6,Win32,60,IwAR2lyB9dd-vyCAj7CxUCfuRwfY1B-LMPXxJsjRhaQhN0EMTYOcSgMIxs2VI,,,,,,,,,,,
,,,,,,,,,,,,,,a,1,0.65696,space,0.301455,0,129,129,193,1,0_targ_16_dist_green/trial19.png,,,0,16,greenverival,a,52,20,female,2021-02-23_16h44.47.759,exp11,2020.2.6,Win32,60,IwAR2lyB9dd-vyCAj7CxUCfuRwfY1B-LMPXxJsjRhaQhN0EMTYOcSgMIxs2VI,,,,,,,,,,,
,,,,,,,,,,,,,,a,1,0.781355,space,0.31762,0,130,130,175,1,0_targ_16_dist_green/trial1.png,,,0,16,greenverival,a,52,20,female,2021-02-23_16h44.47.759,exp11,2020.2.6,Win32,60,IwAR2lyB9dd-vyCAj7CxUCfuRwfY1B-LMPXxJsjRhaQhN0EMTYOcSgMIxs2VI,,,,,,,,,,,
,,,,,,,,,,,,,,p,1,0.826345,space,0.232675,0,131,131,82,1,15_dist_green/trial8.png,,,1,15,greenverival,p,52,20,female,2021-02-23_16h44.47.759,exp11,2020.2.6,Win32,60,IwAR2lyB9dd-vyCAj7CxUCfuRwfY1B-LMPXxJsjRhaQhN0EMTYOcSgMIxs2VI,,,,,,,,,,,
,,,,,,,,,,,,,,a,1,0.59131,space,0.36754,0,132,132,174,1,0_targ_10_dist_green/trial25.png,,,0,10,greenverival,a,52,20,female,2021-02-23_16h44.47.759,exp11,2020.2.6,Win32,60,IwAR2lyB9dd-vyCAj7CxUCfuRwfY1B-LMPXxJsjRhaQhN0EMTYOcSgMIxs2VI,,,,,,,,,,,
,,,,,,,,,,,,,,p,1,0.659445,space,0.351585,0,133,133,21,1,0_dist_green/trial22.png,,,1,0,greenverival,p,52,20,female,2021-02-23_16h44.47.759,exp11,2020.2.6,Win32,60,IwAR2lyB9dd-vyCAj7CxUCfuRwfY1B-LMPXxJsjRhaQhN0EMTYOcSgMIxs2VI,,,,,,,,,,,
,,,,,,,,,,,,,,p,1,0.564565,space,0.31894,0,134,134,24,1,0_dist_green/trial25.png,,,1,0,greenverival,p,52,20,female,2021-02-23_16h44.47.759,exp11,2020.2.6,Win32,60,IwAR2lyB9dd-vyCAj7CxUCfuRwfY1B-LMPXxJsjRhaQhN0EMTYOcSgMIxs2VI,,,,,,,,,,,
,,,,,,,,,,,,,,a,1,0.594585,space,0.351705,0,135,135,187,1,0_targ_16_dist_green/trial13.png,,,0,16,greenverival,a,52,20,female,2021-02-23_16h44.47.759,exp11,2020.2.6,Win32,60,IwAR2lyB9dd-vyCAj7CxUCfuRwfY1B-LMPXxJsjRhaQhN0EMTYOcSgMIxs2VI,,,,,,,,,,,
,,,,,,,,,,,,,,p,1,0.55338,space,0.24608,0,136,136,72,1,9_dist_green/trial23.png,,,1,9,greenverival,p,52,20,female,2021-02-23_16h44.47.759,exp11,2020.2.6,Win32,60,IwAR2lyB9dd-vyCAj7CxUCfuRwfY1B-LMPXxJsjRhaQhN0EMTYOcSgMIxs2VI,,,,,,,,,,,
,,,,,,,,,,,,,,p,1,0.732815,space,0.001425,0,137,137,56,1,9_dist_green/trial7.png,,,1,9,greenverival,p,52,20,female,2021-02-23_16h44.47.759,exp11,2020.2.6,Win32,60,IwAR2lyB9dd-vyCAj7CxUCfuRwfY1B-LMPXxJsjRhaQhN0EMTYOcSgMIxs2VI,,,,,,,,,,,
,,,,,,,,,,,,,,p,1,0.856645,space,0.53973,0,138,138,67,1,9_dist_green/trial18.png,,,1,9,greenverival,p,52,20,female,2021-02-23_16h44.47.759,exp11,2020.2.6,Win32,60,IwAR2lyB9dd-vyCAj7CxUCfuRwfY1B-LMPXxJsjRhaQhN0EMTYOcSgMIxs2VI,,,,,,,,,,,
,,,,,,,,,,,,,,a,1,1.194675,space,0.35058,0,139,139,110,1,0_targ_1_dist_green/trial11.png,,,0,1,greenverival,a,52,20,female,2021-02-23_16h44.47.759,exp11,2020.2.6,Win32,60,IwAR2lyB9dd-vyCAj7CxUCfuRwfY1B-LMPXxJsjRhaQhN0EMTYOcSgMIxs2VI,,,,,,,,,,,
,,,,,,,,,,,,,,a,1,0.985815,space,0.455595,0,140,140,199,1,0_targ_16_dist_green/trial25.png,,,0,16,greenverival,a,52,20,female,2021-02-23_16h44.47.759,exp11,2020.2.6,Win32,60,IwAR2lyB9dd-vyCAj7CxUCfuRwfY1B-LMPXxJsjRhaQhN0EMTYOcSgMIxs2VI,,,,,,,,,,,
,,,,,,,,,,,,,,p,1,0.597965,space,0.268655,0,141,141,89,1,15_dist_green/trial15.png,,,1,15,greenverival,p,52,20,female,2021-02-23_16h44.47.759,exp11,2020.2.6,Win32,60,IwAR2lyB9dd-vyCAj7CxUCfuRwfY1B-LMPXxJsjRhaQhN0EMTYOcSgMIxs2VI,,,,,,,,,,,
,,,,,,,,,,,,,,p,1,0.636045,space,0.008775,0,142,142,34,1,3_dist_green/trial10.png,,,1,3,greenverival,p,52,20,female,2021-02-23_16h44.47.759,exp11,2020.2.6,Win32,60,IwAR2lyB9dd-vyCAj7CxUCfuRwfY1B-LMPXxJsjRhaQhN0EMTYOcSgMIxs2VI,,,,,,,,,,,
,,,,,,,,,,,,,,a,1,1.090855,space,0.366815,0,143,143,105,1,0_targ_1_dist_green/trial6.png,,,0,1,greenverival,a,52,20,female,2021-02-23_16h44.47.759,exp11,2020.2.6,Win32,60,IwAR2lyB9dd-vyCAj7CxUCfuRwfY1B-LMPXxJsjRhaQhN0EMTYOcSgMIxs2VI,,,,,,,,,,,
,,,,,,,,,,,,,,p,1,0.63484,space,0.358865,0,144,144,5,1,0_dist_green/trial6.png,,,1,0,greenverival,p,52,20,female,2021-02-23_16h44.47.759,exp11,2020.2.6,Win32,60,IwAR2lyB9dd-vyCAj7CxUCfuRwfY1B-LMPXxJsjRhaQhN0EMTYOcSgMIxs2VI,,,,,,,,,,,
,,,,,,,,,,,,,,a,1,0.703215,space,0.26561,0,145,145,163,1,0_targ_10_dist_green/trial14.png,,,0,10,greenverival,a,52,20,female,2021-02-23_16h44.47.759,exp11,2020.2.6,Win32,60,IwAR2lyB9dd-vyCAj7CxUCfuRwfY1B-LMPXxJsjRhaQhN0EMTYOcSgMIxs2VI,,,,,,,,,,,
,,,,,,,,,,,,,,p,0,0.75351,space,1.674725,0,146,146,155,1,0_targ_10_dist_green/trial6.png,,,0,10,greenverival,a,52,20,female,2021-02-23_16h44.47.759,exp11,2020.2.6,Win32,60,IwAR2lyB9dd-vyCAj7CxUCfuRwfY1B-LMPXxJsjRhaQhN0EMTYOcSgMIxs2VI,,,,,,,,,,,
,,,,,,,,,,,,,,a,1,1.074895,space,0.475735,0,147,147,166,1,0_targ_10_dist_green/trial17.png,,,0,10,greenverival,a,52,20,female,2021-02-23_16h44.47.759,exp11,2020.2.6,Win32,60,IwAR2lyB9dd-vyCAj7CxUCfuRwfY1B-LMPXxJsjRhaQhN0EMTYOcSgMIxs2VI,,,,,,,,,,,
,,,,,,,,,,,,,,p,1,0.666245,space,0.301145,0,148,148,53,1,9_dist_green/trial4.png,,,1,9,greenverival,p,52,20,female,2021-02-23_16h44.47.759,exp11,2020.2.6,Win32,60,IwAR2lyB9dd-vyCAj7CxUCfuRwfY1B-LMPXxJsjRhaQhN0EMTYOcSgMIxs2VI,,,,,,,,,,,
,,,,,,,,,,,,,,a,1,0.74651,space,0.30087,0,149,149,124,1,0_targ_1_dist_green/trial25.png,,,0,1,greenverival,a,52,20,female,2021-02-23_16h44.47.759,exp11,2020.2.6,Win32,60,IwAR2lyB9dd-vyCAj7CxUCfuRwfY1B-LMPXxJsjRhaQhN0EMTYOcSgMIxs2VI,,,,,,,,,,,
,,,,,,,,,,,,,,a,1,1.6205,space,0.36705,0,150,150,191,1,0_targ_16_dist_green/trial17.png,,,0,16,greenverival,a,52,20,female,2021-02-23_16h44.47.759,exp11,2020.2.6,Win32,60,IwAR2lyB9dd-vyCAj7CxUCfuRwfY1B-LMPXxJsjRhaQhN0EMTYOcSgMIxs2VI,,,,,,,,,,,
,,,,,,,,,,,,,,p,1,0.50726,space,0.26149,0,151,151,29,1,3_dist_green/trial5.png,,,1,3,greenverival,p,52,20,female,2021-02-23_16h44.47.759,exp11,2020.2.6,Win32,60,IwAR2lyB9dd-vyCAj7CxUCfuRwfY1B-LMPXxJsjRhaQhN0EMTYOcSgMIxs2VI,,,,,,,,,,,
,,,,,,,,,,,,,,p,1,0.56421,space,0.25644,0,152,152,28,1,3_dist_green/trial4.png,,,1,3,greenverival,p,52,20,female,2021-02-23_16h44.47.759,exp11,2020.2.6,Win32,60,IwAR2lyB9dd-vyCAj7CxUCfuRwfY1B-LMPXxJsjRhaQhN0EMTYOcSgMIxs2VI,,,,,,,,,,,
,,,,,,,,,,,,,,p,1,0.5277,space,0.243495,0,153,153,64,1,9_dist_green/trial15.png,,,1,9,greenverival,p,52,20,female,2021-02-23_16h44.47.759,exp11,2020.2.6,Win32,60,IwAR2lyB9dd-vyCAj7CxUCfuRwfY1B-LMPXxJsjRhaQhN0EMTYOcSgMIxs2VI,,,,,,,,,,,
,,,,,,,,,,,,,,p,1,0.471815,space,0.311005,0,154,154,14,1,0_dist_green/trial15.png,,,1,0,greenverival,p,52,20,female,2021-02-23_16h44.47.759,exp11,2020.2.6,Win32,60,IwAR2lyB9dd-vyCAj7CxUCfuRwfY1B-LMPXxJsjRhaQhN0EMTYOcSgMIxs2VI,,,,,,,,,,,
,,,,,,,,,,,,,,p,1,0.54533,space,0.284565,0,155,155,99,1,15_dist_green/trial25.png,,,1,15,greenverival,p,52,20,female,2021-02-23_16h44.47.759,exp11,2020.2.6,Win32,60,IwAR2lyB9dd-vyCAj7CxUCfuRwfY1B-LMPXxJsjRhaQhN0EMTYOcSgMIxs2VI,,,,,,,,,,,
,,,,,,,,,,,,,,a,1,0.98475,space,0.315675,0,156,156,118,1,0_targ_1_dist_green/trial19.png,,,0,1,greenverival,a,52,20,female,2021-02-23_16h44.47.759,exp11,2020.2.6,Win32,60,IwAR2lyB9dd-vyCAj7CxUCfuRwfY1B-LMPXxJsjRhaQhN0EMTYOcSgMIxs2VI,,,,,,,,,,,
,,,,,,,,,,,,,,p,1,0.625465,space,0.36534,0,157,157,65,1,9_dist_green/trial16.png,,,1,9,greenverival,p,52,20,female,2021-02-23_16h44.47.759,exp11,2020.2.6,Win32,60,IwAR2lyB9dd-vyCAj7CxUCfuRwfY1B-LMPXxJsjRhaQhN0EMTYOcSgMIxs2VI,,,,,,,,,,,
,,,,,,,,,,,,,,p,1,0.63532,space,0.276425,0,158,158,74,1,9_dist_green/trial25.png,,,1,9,greenverival,p,52,20,female,2021-02-23_16h44.47.759,exp11,2020.2.6,Win32,60,IwAR2lyB9dd-vyCAj7CxUCfuRwfY1B-LMPXxJsjRhaQhN0EMTYOcSgMIxs2VI,,,,,,,,,,,
,,,,,,,,,,,,,,p,1,1.452425,space,0.20041,0,159,159,58,1,9_dist_green/trial9.png,,,1,9,greenverival,p,52,20,female,2021-02-23_16h44.47.759,exp11,2020.2.6,Win32,60,IwAR2lyB9dd-vyCAj7CxUCfuRwfY1B-LMPXxJsjRhaQhN0EMTYOcSgMIxs2VI,,,,,,,,,,,
,,,,,,,,,,,,,,a,1,0.71197,space,0.30079,0,160,160,161,1,0_targ_10_dist_green/trial12.png,,,0,10,greenverival,a,52,20,female,2021-02-23_16h44.47.759,exp11,2020.2.6,Win32,60,IwAR2lyB9dd-vyCAj7CxUCfuRwfY1B-LMPXxJsjRhaQhN0EMTYOcSgMIxs2VI,,,,,,,,,,,
,,,,,,,,,,,,,,p,1,0.518795,space,0.227075,0,161,161,31,1,3_dist_green/trial7.png,,,1,3,greenverival,p,52,20,female,2021-02-23_16h44.47.759,exp11,2020.2.6,Win32,60,IwAR2lyB9dd-vyCAj7CxUCfuRwfY1B-LMPXxJsjRhaQhN0EMTYOcSgMIxs2VI,,,,,,,,,,,
,,,,,,,,,,,,,,p,1,2.05107,space,0.276975,0,162,162,84,1,15_dist_green/trial10.png,,,1,15,greenverival,p,52,20,female,2021-02-23_16h44.47.759,exp11,2020.2.6,Win32,60,IwAR2lyB9dd-vyCAj7CxUCfuRwfY1B-LMPXxJsjRhaQhN0EMTYOcSgMIxs2VI,,,,,,,,,,,
,,,,,,,,,,,,,,a,1,0.830605,space,0.372685,0,163,163,156,1,0_targ_10_dist_green/trial7.png,,,0,10,greenverival,a,52,20,female,2021-02-23_16h44.47.759,exp11,2020.2.6,Win32,60,IwAR2lyB9dd-vyCAj7CxUCfuRwfY1B-LMPXxJsjRhaQhN0EMTYOcSgMIxs2VI,,,,,,,,,,,
,,,,,,,,,,,,,,a,1,1.02621,space,0.37619,0,164,164,158,1,0_targ_10_dist_green/trial9.png,,,0,10,greenverival,a,52,20,female,2021-02-23_16h44.47.759,exp11,2020.2.6,Win32,60,IwAR2lyB9dd-vyCAj7CxUCfuRwfY1B-LMPXxJsjRhaQhN0EMTYOcSgMIxs2VI,,,,,,,,,,,
,,,,,,,,,,,,,,p,1,0.716425,space,0.26657,0,165,165,92,1,15_dist_green/trial18.png,,,1,15,greenverival,p,52,20,female,2021-02-23_16h44.47.759,exp11,2020.2.6,Win32,60,IwAR2lyB9dd-vyCAj7CxUCfuRwfY1B-LMPXxJsjRhaQhN0EMTYOcSgMIxs2VI,,,,,,,,,,,
,,,,,,,,,,,,,,a,1,0.62505,space,0.402365,0,166,166,102,1,0_targ_1_dist_green/trial3.png,,,0,1,greenverival,a,52,20,female,2021-02-23_16h44.47.759,exp11,2020.2.6,Win32,60,IwAR2lyB9dd-vyCAj7CxUCfuRwfY1B-LMPXxJsjRhaQhN0EMTYOcSgMIxs2VI,,,,,,,,,,,
,,,,,,,,,,,,,,a,1,0.834085,space,0.33258,0,167,167,171,1,0_targ_10_dist_green/trial22.png,,,0,10,greenverival,a,52,20,female,2021-02-23_16h44.47.759,exp11,2020.2.6,Win32,60,IwAR2lyB9dd-vyCAj7CxUCfuRwfY1B-LMPXxJsjRhaQhN0EMTYOcSgMIxs2VI,,,,,,,,,,,
,,,,,,,,,,,,,,p,1,0.547695,space,0.271015,0,168,168,18,1,0_dist_green/trial19.png,,,1,0,greenverival,p,52,20,female,2021-02-23_16h44.47.759,exp11,2020.2.6,Win32,60,IwAR2lyB9dd-vyCAj7CxUCfuRwfY1B-LMPXxJsjRhaQhN0EMTYOcSgMIxs2VI,,,,,,,,,,,
,,,,,,,,,,,,,,p,0,0.679465,space,0.40106,0,169,169,101,1,0_targ_1_dist_green/trial2.png,,,0,1,greenverival,a,52,20,female,2021-02-23_16h44.47.759,exp11,2020.2.6,Win32,60,IwAR2lyB9dd-vyCAj7CxUCfuRwfY1B-LMPXxJsjRhaQhN0EMTYOcSgMIxs2VI,,,,,,,,,,,
,,,,,,,,,,,,,,a,1,0.587665,space,0.229945,0,170,170,140,1,0_targ_4_dist_green/trial6.png,,,0,4,greenverival,a,52,20,female,2021-02-23_16h44.47.759,exp11,2020.2.6,Win32,60,IwAR2lyB9dd-vyCAj7CxUCfuRwfY1B-LMPXxJsjRhaQhN0EMTYOcSgMIxs2VI,,,,,,,,,,,
,,,,,,,,,,,,,,p,1,0.61221,space,0.193295,0,171,171,62,1,9_dist_green/trial13.png,,,1,9,greenverival,p,52,20,female,2021-02-23_16h44.47.759,exp11,2020.2.6,Win32,60,IwAR2lyB9dd-vyCAj7CxUCfuRwfY1B-LMPXxJsjRhaQhN0EMTYOcSgMIxs2VI,,,,,,,,,,,
,,,,,,,,,,,,,,a,1,0.64795,space,0.252815,0,172,172,100,1,0_targ_1_dist_green/trial1.png,,,0,1,greenverival,a,52,20,female,2021-02-23_16h44.47.759,exp11,2020.2.6,Win32,60,IwAR2lyB9dd-vyCAj7CxUCfuRwfY1B-LMPXxJsjRhaQhN0EMTYOcSgMIxs2VI,,,,,,,,,,,
,,,,,,,,,,,,,,p,1,0.747295,space,0.38661,0,173,173,76,1,15_dist_green/trial2.png,,,1,15,greenverival,p,52,20,female,2021-02-23_16h44.47.759,exp11,2020.2.6,Win32,60,IwAR2lyB9dd-vyCAj7CxUCfuRwfY1B-LMPXxJsjRhaQhN0EMTYOcSgMIxs2VI,,,,,,,,,,,
,,,,,,,,,,,,,,p,1,0.65233,space,0.286015,0,174,174,17,1,0_dist_green/trial18.png,,,1,0,greenverival,p,52,20,female,2021-02-23_16h44.47.759,exp11,2020.2.6,Win32,60,IwAR2lyB9dd-vyCAj7CxUCfuRwfY1B-LMPXxJsjRhaQhN0EMTYOcSgMIxs2VI,,,,,,,,,,,
,,,,,,,,,,,,,,a,1,0.80355,space,0.319865,0,175,175,152,1,0_targ_10_dist_green/trial3.png,,,0,10,greenverival,a,52,20,female,2021-02-23_16h44.47.759,exp11,2020.2.6,Win32,60,IwAR2lyB9dd-vyCAj7CxUCfuRwfY1B-LMPXxJsjRhaQhN0EMTYOcSgMIxs2VI,,,,,,,,,,,
,,,,,,,,,,,,,,a,1,0.983475,space,0.31739,0,176,176,134,1,0_targ_4_dist_green/trial10.png,,,0,4,greenverival,a,52,20,female,2021-02-23_16h44.47.759,exp11,2020.2.6,Win32,60,IwAR2lyB9dd-vyCAj7CxUCfuRwfY1B-LMPXxJsjRhaQhN0EMTYOcSgMIxs2VI,,,,,,,,,,,
,,,,,,,,,,,,,,p,1,0.58145,space,0.21762,0,177,177,50,1,9_dist_green/trial1.png,,,1,9,greenverival,p,52,20,female,2021-02-23_16h44.47.759,exp11,2020.2.6,Win32,60,IwAR2lyB9dd-vyCAj7CxUCfuRwfY1B-LMPXxJsjRhaQhN0EMTYOcSgMIxs2VI,,,,,,,,,,,
,,,,,,,,,,,,,,p,1,1.003255,space,0.23561,0,178,178,85,1,15_dist_green/trial11.png,,,1,15,greenverival,p,52,20,female,2021-02-23_16h44.47.759,exp11,2020.2.6,Win32,60,IwAR2lyB9dd-vyCAj7CxUCfuRwfY1B-LMPXxJsjRhaQhN0EMTYOcSgMIxs2VI,,,,,,,,,,,
,,,,,,,,,,,,,,p,1,0.477495,space,0.211515,0,179,179,27,1,3_dist_green/trial3.png,,,1,3,greenverival,p,52,20,female,2021-02-23_16h44.47.759,exp11,2020.2.6,Win32,60,IwAR2lyB9dd-vyCAj7CxUCfuRwfY1B-LMPXxJsjRhaQhN0EMTYOcSgMIxs2VI,,,,,,,,,,,
,,,,,,,,,,,,,,a,1,0.839765,space,0.27847,0,180,180,126,1,0_targ_4_dist_green/trial2.png,,,0,4,greenverival,a,52,20,female,2021-02-23_16h44.47.759,exp11,2020.2.6,Win32,60,IwAR2lyB9dd-vyCAj7CxUCfuRwfY1B-LMPXxJsjRhaQhN0EMTYOcSgMIxs2VI,,,,,,,,,,,
,,,,,,,,,,,,,,a,1,0.67803,space,0.3673,0,181,181,114,1,0_targ_1_dist_green/trial15.png,,,0,1,greenverival,a,52,20,female,2021-02-23_16h44.47.759,exp11,2020.2.6,Win32,60,IwAR2lyB9dd-vyCAj7CxUCfuRwfY1B-LMPXxJsjRhaQhN0EMTYOcSgMIxs2VI,,,,,,,,,,,
,,,,,,,,,,,,,,p,1,0.52383,space,0.28835,0,182,182,94,1,15_dist_green/trial20.png,,,1,15,greenverival,p,52,20,female,2021-02-23_16h44.47.759,exp11,2020.2.6,Win32,60,IwAR2lyB9dd-vyCAj7CxUCfuRwfY1B-LMPXxJsjRhaQhN0EMTYOcSgMIxs2VI,,,,,,,,,,,
,,,,,,,,,,,,,,a,1,0.67225,space,0.350035,0,183,183,169,1,0_targ_10_dist_green/trial20.png,,,0,10,greenverival,a,52,20,female,2021-02-23_16h44.47.759,exp11,2020.2.6,Win32,60,IwAR2lyB9dd-vyCAj7CxUCfuRwfY1B-LMPXxJsjRhaQhN0EMTYOcSgMIxs2VI,,,,,,,,,,,
,,,,,,,,,,,,,,a,1,0.99716,space,0.286695,0,184,184,141,1,0_targ_4_dist_green/trial17.png,,,0,4,greenverival,a,52,20,female,2021-02-23_16h44.47.759,exp11,2020.2.6,Win32,60,IwAR2lyB9dd-vyCAj7CxUCfuRwfY1B-LMPXxJsjRhaQhN0EMTYOcSgMIxs2VI,,,,,,,,,,,
,,,,,,,,,,,,,,a,1,0.74694,space,0.31973,0,185,185,142,1,0_targ_4_dist_green/trial18.png,,,0,4,greenverival,a,52,20,female,2021-02-23_16h44.47.759,exp11,2020.2.6,Win32,60,IwAR2lyB9dd-vyCAj7CxUCfuRwfY1B-LMPXxJsjRhaQhN0EMTYOcSgMIxs2VI,,,,,,,,,,,
,,,,,,,,,,,,,,a,1,0.58713,space,0.27158,0,186,186,138,1,0_targ_4_dist_green/trial14.png,,,0,4,greenverival,a,52,20,female,2021-02-23_16h44.47.759,exp11,2020.2.6,Win32,60,IwAR2lyB9dd-vyCAj7CxUCfuRwfY1B-LMPXxJsjRhaQhN0EMTYOcSgMIxs2VI,,,,,,,,,,,
,,,,,,,,,,,,,,p,1,0.647875,space,0.292865,0,187,187,91,1,15_dist_green/trial17.png,,,1,15,greenverival,p,52,20,female,2021-02-23_16h44.47.759,exp11,2020.2.6,Win32,60,IwAR2lyB9dd-vyCAj7CxUCfuRwfY1B-LMPXxJsjRhaQhN0EMTYOcSgMIxs2VI,,,,,,,,,,,
,,,,,,,,,,,,,,p,1,0.566585,space,0.23971,0,188,188,22,1,0_dist_green/trial23.png,,,1,0,greenverival,p,52,20,female,2021-02-23_16h44.47.759,exp11,2020.2.6,Win32,60,IwAR2lyB9dd-vyCAj7CxUCfuRwfY1B-LMPXxJsjRhaQhN0EMTYOcSgMIxs2VI,,,,,,,,,,,
,,,,,,,,,,,,,,a,1,0.771505,space,0.410845,0,189,189,181,1,0_targ_16_dist_green/trial7.png,,,0,16,greenverival,a,52,20,female,2021-02-23_16h44.47.759,exp11,2020.2.6,Win32,60,IwAR2lyB9dd-vyCAj7CxUCfuRwfY1B-LMPXxJsjRhaQhN0EMTYOcSgMIxs2VI,,,,,,,,,,,
,,,,,,,,,,,,,,a,1,0.56737,space,0.21731,0,190,190,129,1,0_targ_4_dist_green/trial5.png,,,0,4,greenverival,a,52,20,female,2021-02-23_16h44.47.759,exp11,2020.2.6,Win32,60,IwAR2lyB9dd-vyCAj7CxUCfuRwfY1B-LMPXxJsjRhaQhN0EMTYOcSgMIxs2VI,,,,,,,,,,,
,,,,,,,,,,,,,,p,1,0.69216,space,0.224135,0,191,191,9,1,0_dist_green/trial10.png,,,1,0,greenverival,p,52,20,female,2021-02-23_16h44.47.759,exp11,2020.2.6,Win32,60,IwAR2lyB9dd-vyCAj7CxUCfuRwfY1B-LMPXxJsjRhaQhN0EMTYOcSgMIxs2VI,,,,,,,,,,,
,,,,,,,,,,,,,,a,1,0.705775,space,0.31129,0,192,192,190,1,0_targ_16_dist_green/trial16.png,,,0,16,greenverival,a,52,20,female,2021-02-23_16h44.47.759,exp11,2020.2.6,Win32,60,IwAR2lyB9dd-vyCAj7CxUCfuRwfY1B-LMPXxJsjRhaQhN0EMTYOcSgMIxs2VI,,,,,,,,,,,
,,,,,,,,,,,,,,a,1,2.01186,space,0.282995,0,193,193,165,1,0_targ_10_dist_green/trial16.png,,,0,10,greenverival,a,52,20,female,2021-02-23_16h44.47.759,exp11,2020.2.6,Win32,60,IwAR2lyB9dd-vyCAj7CxUCfuRwfY1B-LMPXxJsjRhaQhN0EMTYOcSgMIxs2VI,,,,,,,,,,,
,,,,,,,,,,,,,,a,1,0.78323,space,0.284085,0,194,194,109,1,0_targ_1_dist_green/trial10.png,,,0,1,greenverival,a,52,20,female,2021-02-23_16h44.47.759,exp11,2020.2.6,Win32,60,IwAR2lyB9dd-vyCAj7CxUCfuRwfY1B-LMPXxJsjRhaQhN0EMTYOcSgMIxs2VI,,,,,,,,,,,
,,,,,,,,,,,,,,p,1,0.58253,space,0.18788,0,195,195,47,1,3_dist_green/trial23.png,,,1,3,greenverival,p,52,20,female,2021-02-23_16h44.47.759,exp11,2020.2.6,Win32,60,IwAR2lyB9dd-vyCAj7CxUCfuRwfY1B-LMPXxJsjRhaQhN0EMTYOcSgMIxs2VI,,,,,,,,,,,
,,,,,,,,,,,,,,p,1,0.789375,space,0.234935,0,196,196,75,1,15_dist_green/trial1.png,,,1,15,greenverival,p,52,20,female,2021-02-23_16h44.47.759,exp11,2020.2.6,Win32,60,IwAR2lyB9dd-vyCAj7CxUCfuRwfY1B-LMPXxJsjRhaQhN0EMTYOcSgMIxs2VI,,,,,,,,,,,
,,,,,,,,,,,,,,p,1,0.599165,space,0.28407,0,197,197,81,1,15_dist_green/trial7.png,,,1,15,greenverival,p,52,20,female,2021-02-23_16h44.47.759,exp11,2020.2.6,Win32,60,IwAR2lyB9dd-vyCAj7CxUCfuRwfY1B-LMPXxJsjRhaQhN0EMTYOcSgMIxs2VI,,,,,,,,,,,
,,,,,,,,,,,,,,p,1,0.485295,space,0.26717,0,198,198,49,1,3_dist_green/trial25.png,,,1,3,greenverival,p,52,20,female,2021-02-23_16h44.47.759,exp11,2020.2.6,Win32,60,IwAR2lyB9dd-vyCAj7CxUCfuRwfY1B-LMPXxJsjRhaQhN0EMTYOcSgMIxs2VI,,,,,,,,,,,
,,,,,,,,,,,,,,p,1,0.58138,space,0.217575,0,199,199,95,1,15_dist_green/trial21.png,,,1,15,greenverival,p,52,20,female,2021-02-23_16h44.47.759,exp11,2020.2.6,Win32,60,IwAR2lyB9dd-vyCAj7CxUCfuRwfY1B-LMPXxJsjRhaQhN0EMTYOcSgMIxs2VI,,,,,,,,,,,
,,,,,,,,,,,,,,,,,,,,,,,,,,,,,,,52,20,female,2021-02-23_16h44.47.759,exp11,2020.2.6,Win32,60,IwAR2lyB9dd-vyCAj7CxUCfuRwfY1B-LMPXxJsjRhaQhN0EMTYOcSgMIxs2VI,0,1,1,0,1,conGreen.xlsx,green vertical,Look for green vertical bar (target) and indicate if it is present or absent in the array. If green vertical target is present press 'p' and if absent press 'a'. Press SPACE to start.,,,
