key_resp_6.keys,key_resp_6.rt,key_resp_7.keys,key_resp_7.rt,key_resp_8.keys,key_resp_8.rt,key_resp_10.keys,key_resp_10.rt,key_resp_9.keys,key_resp_9.rt,key_resp_3.keys,key_resp_3.rt,key_resp_5.keys,key_resp_5.rt,key_resp.keys,key_resp.corr,key_resp.rt,key_resp_4.keys,key_resp_4.rt,trials.thisRepN,trials.thisTrialN,trials.thisN,trials.thisIndex,trials.ran,ImageFile,tarPos,tarSize,targPres,numDist,targetName,correctAns,participant,age,sex,date,expName,psychopyVersion,OS,frameRate,fbclid,trials_2.thisRepN,trials_2.thisTrialN,trials_2.thisN,trials_2.thisIndex,trials_2.ran,condsFile,targName,instructionText,colTarget,sizeTarg,posit
space,2.74702,space,2.445245,space,1.55556,space,21.95036,space,5.61095,space,34.537345,space,6.39356,a,1,1.893875,space,4.32398,0,0,0,151,1,0_targ_10_dist_red/trial2.png,,,0,10,redHorizontal,a,54,21,female,2021-02-17_16h57.09.628,exp11,2020.2.6,Win32,60,IwAR0EYiExLoNyz0Chnc-27F3elrmreO99-FQdgmw-aBQB0uyjA8bh53CpzJs,,,,,,,,,,,
,,,,,,,,,,,,,,p,1,0.81432,space,1.0206,0,1,1,12,1,0_dist_red/trial13.png,,,1,0,redHorizontal,p,54,21,female,2021-02-17_16h57.09.628,exp11,2020.2.6,Win32,60,IwAR0EYiExLoNyz0Chnc-27F3elrmreO99-FQdgmw-aBQB0uyjA8bh53CpzJs,,,,,,,,,,,
,,,,,,,,,,,,,,a,1,0.85152,space,0.54188,0,2,2,134,1,0_targ_4_dist_red/trial10.png,,,0,4,redHorizontal,a,54,21,female,2021-02-17_16h57.09.628,exp11,2020.2.6,Win32,60,IwAR0EYiExLoNyz0Chnc-27F3elrmreO99-FQdgmw-aBQB0uyjA8bh53CpzJs,,,,,,,,,,,
,,,,,,,,,,,,,,p,1,1.00997,space,0.668135,0,3,3,54,1,9_dist_red/trial5.png,,,1,9,redHorizontal,p,54,21,female,2021-02-17_16h57.09.628,exp11,2020.2.6,Win32,60,IwAR0EYiExLoNyz0Chnc-27F3elrmreO99-FQdgmw-aBQB0uyjA8bh53CpzJs,,,,,,,,,,,
,,,,,,,,,,,,,,p,1,1.149965,space,0.65169,0,4,4,77,1,15_dist_red/trial3.png,,,1,15,redHorizontal,p,54,21,female,2021-02-17_16h57.09.628,exp11,2020.2.6,Win32,60,IwAR0EYiExLoNyz0Chnc-27F3elrmreO99-FQdgmw-aBQB0uyjA8bh53CpzJs,,,,,,,,,,,
,,,,,,,,,,,,,,a,1,0.793425,space,0.482875,0,5,5,127,1,0_targ_4_dist_red/trial3.png,,,0,4,redHorizontal,a,54,21,female,2021-02-17_16h57.09.628,exp11,2020.2.6,Win32,60,IwAR0EYiExLoNyz0Chnc-27F3elrmreO99-FQdgmw-aBQB0uyjA8bh53CpzJs,,,,,,,,,,,
,,,,,,,,,,,,,,p,0,1.21074,space,0.548985,0,6,6,120,1,0_targ_1_dist_red/trial21.png,,,0,1,redHorizontal,a,54,21,female,2021-02-17_16h57.09.628,exp11,2020.2.6,Win32,60,IwAR0EYiExLoNyz0Chnc-27F3elrmreO99-FQdgmw-aBQB0uyjA8bh53CpzJs,,,,,,,,,,,
,,,,,,,,,,,,,,p,1,2.079095,space,0.464915,0,7,7,87,1,15_dist_red/trial13.png,,,1,15,redHorizontal,p,54,21,female,2021-02-17_16h57.09.628,exp11,2020.2.6,Win32,60,IwAR0EYiExLoNyz0Chnc-27F3elrmreO99-FQdgmw-aBQB0uyjA8bh53CpzJs,,,,,,,,,,,
,,,,,,,,,,,,,,p,1,0.83614,space,0.683845,0,8,8,10,1,0_dist_red/trial11.png,,,1,0,redHorizontal,p,54,21,female,2021-02-17_16h57.09.628,exp11,2020.2.6,Win32,60,IwAR0EYiExLoNyz0Chnc-27F3elrmreO99-FQdgmw-aBQB0uyjA8bh53CpzJs,,,,,,,,,,,
,,,,,,,,,,,,,,p,1,0.70225,space,0.553255,0,9,9,26,1,3_dist_red/trial2.png,,,1,3,redHorizontal,p,54,21,female,2021-02-17_16h57.09.628,exp11,2020.2.6,Win32,60,IwAR0EYiExLoNyz0Chnc-27F3elrmreO99-FQdgmw-aBQB0uyjA8bh53CpzJs,,,,,,,,,,,
,,,,,,,,,,,,,,a,1,0.920975,space,0.468275,0,10,10,174,1,0_targ_10_dist_red/trial25.png,,,0,10,redHorizontal,a,54,21,female,2021-02-17_16h57.09.628,exp11,2020.2.6,Win32,60,IwAR0EYiExLoNyz0Chnc-27F3elrmreO99-FQdgmw-aBQB0uyjA8bh53CpzJs,,,,,,,,,,,
,,,,,,,,,,,,,,p,1,0.69275,space,0.38481,0,11,11,14,1,0_dist_red/trial15.png,,,1,0,redHorizontal,p,54,21,female,2021-02-17_16h57.09.628,exp11,2020.2.6,Win32,60,IwAR0EYiExLoNyz0Chnc-27F3elrmreO99-FQdgmw-aBQB0uyjA8bh53CpzJs,,,,,,,,,,,
,,,,,,,,,,,,,,a,1,1.339685,space,0.931965,0,12,12,162,1,0_targ_10_dist_red/trial13.png,,,0,10,redHorizontal,a,54,21,female,2021-02-17_16h57.09.628,exp11,2020.2.6,Win32,60,IwAR0EYiExLoNyz0Chnc-27F3elrmreO99-FQdgmw-aBQB0uyjA8bh53CpzJs,,,,,,,,,,,
,,,,,,,,,,,,,,p,1,0.803245,space,0.64229,0,13,13,7,1,0_dist_red/trial8.png,,,1,0,redHorizontal,p,54,21,female,2021-02-17_16h57.09.628,exp11,2020.2.6,Win32,60,IwAR0EYiExLoNyz0Chnc-27F3elrmreO99-FQdgmw-aBQB0uyjA8bh53CpzJs,,,,,,,,,,,
,,,,,,,,,,,,,,p,1,0.6654,space,0.48189,0,14,14,40,1,3_dist_red/trial16.png,,,1,3,redHorizontal,p,54,21,female,2021-02-17_16h57.09.628,exp11,2020.2.6,Win32,60,IwAR0EYiExLoNyz0Chnc-27F3elrmreO99-FQdgmw-aBQB0uyjA8bh53CpzJs,,,,,,,,,,,
,,,,,,,,,,,,,,a,1,1.08279,space,0.41873,0,15,15,145,1,0_targ_4_dist_red/trial21.png,,,0,4,redHorizontal,a,54,21,female,2021-02-17_16h57.09.628,exp11,2020.2.6,Win32,60,IwAR0EYiExLoNyz0Chnc-27F3elrmreO99-FQdgmw-aBQB0uyjA8bh53CpzJs,,,,,,,,,,,
,,,,,,,,,,,,,,a,1,0.839185,space,0.407825,0,16,16,131,1,0_targ_4_dist_red/trial7.png,,,0,4,redHorizontal,a,54,21,female,2021-02-17_16h57.09.628,exp11,2020.2.6,Win32,60,IwAR0EYiExLoNyz0Chnc-27F3elrmreO99-FQdgmw-aBQB0uyjA8bh53CpzJs,,,,,,,,,,,
,,,,,,,,,,,,,,a,1,0.873605,space,0.45139,0,17,17,167,1,0_targ_10_dist_red/trial18.png,,,0,10,redHorizontal,a,54,21,female,2021-02-17_16h57.09.628,exp11,2020.2.6,Win32,60,IwAR0EYiExLoNyz0Chnc-27F3elrmreO99-FQdgmw-aBQB0uyjA8bh53CpzJs,,,,,,,,,,,
,,,,,,,,,,,,,,p,1,0.665915,space,0.38367,0,18,18,96,1,15_dist_red/trial22.png,,,1,15,redHorizontal,p,54,21,female,2021-02-17_16h57.09.628,exp11,2020.2.6,Win32,60,IwAR0EYiExLoNyz0Chnc-27F3elrmreO99-FQdgmw-aBQB0uyjA8bh53CpzJs,,,,,,,,,,,
,,,,,,,,,,,,,,p,1,0.91993,space,0.34485,0,19,19,78,1,15_dist_red/trial4.png,,,1,15,redHorizontal,p,54,21,female,2021-02-17_16h57.09.628,exp11,2020.2.6,Win32,60,IwAR0EYiExLoNyz0Chnc-27F3elrmreO99-FQdgmw-aBQB0uyjA8bh53CpzJs,,,,,,,,,,,
,,,,,,,,,,,,,,p,1,0.844445,space,0.31838,0,20,20,79,1,15_dist_red/trial5.png,,,1,15,redHorizontal,p,54,21,female,2021-02-17_16h57.09.628,exp11,2020.2.6,Win32,60,IwAR0EYiExLoNyz0Chnc-27F3elrmreO99-FQdgmw-aBQB0uyjA8bh53CpzJs,,,,,,,,,,,
,,,,,,,,,,,,,,p,1,0.568,space,0.298665,0,21,21,11,1,0_dist_red/trial12.png,,,1,0,redHorizontal,p,54,21,female,2021-02-17_16h57.09.628,exp11,2020.2.6,Win32,60,IwAR0EYiExLoNyz0Chnc-27F3elrmreO99-FQdgmw-aBQB0uyjA8bh53CpzJs,,,,,,,,,,,
,,,,,,,,,,,,,,a,1,0.63515,space,0.33472,0,22,22,148,1,0_targ_4_dist_red/trial24.png,,,0,4,redHorizontal,a,54,21,female,2021-02-17_16h57.09.628,exp11,2020.2.6,Win32,60,IwAR0EYiExLoNyz0Chnc-27F3elrmreO99-FQdgmw-aBQB0uyjA8bh53CpzJs,,,,,,,,,,,
,,,,,,,,,,,,,,p,1,0.851725,space,0.259795,0,23,23,75,1,15_dist_red/trial1.png,,,1,15,redHorizontal,p,54,21,female,2021-02-17_16h57.09.628,exp11,2020.2.6,Win32,60,IwAR0EYiExLoNyz0Chnc-27F3elrmreO99-FQdgmw-aBQB0uyjA8bh53CpzJs,,,,,,,,,,,
,,,,,,,,,,,,,,a,1,0.69604,space,0.300315,0,24,24,106,1,0_targ_1_dist_red/trial7.png,,,0,1,redHorizontal,a,54,21,female,2021-02-17_16h57.09.628,exp11,2020.2.6,Win32,60,IwAR0EYiExLoNyz0Chnc-27F3elrmreO99-FQdgmw-aBQB0uyjA8bh53CpzJs,,,,,,,,,,,
,,,,,,,,,,,,,,a,1,0.939795,space,0.307365,0,25,25,140,1,0_targ_4_dist_red/trial6.png,,,0,4,redHorizontal,a,54,21,female,2021-02-17_16h57.09.628,exp11,2020.2.6,Win32,60,IwAR0EYiExLoNyz0Chnc-27F3elrmreO99-FQdgmw-aBQB0uyjA8bh53CpzJs,,,,,,,,,,,
,,,,,,,,,,,,,,p,1,1.070775,space,0.303915,0,26,26,89,1,15_dist_red/trial15.png,,,1,15,redHorizontal,p,54,21,female,2021-02-17_16h57.09.628,exp11,2020.2.6,Win32,60,IwAR0EYiExLoNyz0Chnc-27F3elrmreO99-FQdgmw-aBQB0uyjA8bh53CpzJs,,,,,,,,,,,
,,,,,,,,,,,,,,p,1,0.681265,space,0.27369,0,27,27,88,1,15_dist_red/trial14.png,,,1,15,redHorizontal,p,54,21,female,2021-02-17_16h57.09.628,exp11,2020.2.6,Win32,60,IwAR0EYiExLoNyz0Chnc-27F3elrmreO99-FQdgmw-aBQB0uyjA8bh53CpzJs,,,,,,,,,,,
,,,,,,,,,,,,,,a,1,0.94161,space,0.33565,0,28,28,172,1,0_targ_10_dist_red/trial23.png,,,0,10,redHorizontal,a,54,21,female,2021-02-17_16h57.09.628,exp11,2020.2.6,Win32,60,IwAR0EYiExLoNyz0Chnc-27F3elrmreO99-FQdgmw-aBQB0uyjA8bh53CpzJs,,,,,,,,,,,
,,,,,,,,,,,,,,p,1,0.898795,space,0.3206,0,29,29,84,1,15_dist_red/trial10.png,,,1,15,redHorizontal,p,54,21,female,2021-02-17_16h57.09.628,exp11,2020.2.6,Win32,60,IwAR0EYiExLoNyz0Chnc-27F3elrmreO99-FQdgmw-aBQB0uyjA8bh53CpzJs,,,,,,,,,,,
,,,,,,,,,,,,,,a,1,0.688815,space,0.26754,0,30,30,147,1,0_targ_4_dist_red/trial23.png,,,0,4,redHorizontal,a,54,21,female,2021-02-17_16h57.09.628,exp11,2020.2.6,Win32,60,IwAR0EYiExLoNyz0Chnc-27F3elrmreO99-FQdgmw-aBQB0uyjA8bh53CpzJs,,,,,,,,,,,
,,,,,,,,,,,,,,a,1,1.017635,space,0.26835,0,31,31,179,1,0_targ_16_dist_red/trial5.png,,,0,16,redHorizontal,a,54,21,female,2021-02-17_16h57.09.628,exp11,2020.2.6,Win32,60,IwAR0EYiExLoNyz0Chnc-27F3elrmreO99-FQdgmw-aBQB0uyjA8bh53CpzJs,,,,,,,,,,,
,,,,,,,,,,,,,,a,1,1.340745,space,0.29736,0,32,32,191,1,0_targ_16_dist_red/trial17.png,,,0,16,redHorizontal,a,54,21,female,2021-02-17_16h57.09.628,exp11,2020.2.6,Win32,60,IwAR0EYiExLoNyz0Chnc-27F3elrmreO99-FQdgmw-aBQB0uyjA8bh53CpzJs,,,,,,,,,,,
,,,,,,,,,,,,,,a,1,1.58303,space,0.85216,0,33,33,195,1,0_targ_16_dist_red/trial21.png,,,0,16,redHorizontal,a,54,21,female,2021-02-17_16h57.09.628,exp11,2020.2.6,Win32,60,IwAR0EYiExLoNyz0Chnc-27F3elrmreO99-FQdgmw-aBQB0uyjA8bh53CpzJs,,,,,,,,,,,
,,,,,,,,,,,,,,a,1,1.13496,space,0.54221,0,34,34,102,1,0_targ_1_dist_red/trial3.png,,,0,1,redHorizontal,a,54,21,female,2021-02-17_16h57.09.628,exp11,2020.2.6,Win32,60,IwAR0EYiExLoNyz0Chnc-27F3elrmreO99-FQdgmw-aBQB0uyjA8bh53CpzJs,,,,,,,,,,,
,,,,,,,,,,,,,,p,1,0.587645,space,0.4019,0,35,35,20,1,0_dist_red/trial21.png,,,1,0,redHorizontal,p,54,21,female,2021-02-17_16h57.09.628,exp11,2020.2.6,Win32,60,IwAR0EYiExLoNyz0Chnc-27F3elrmreO99-FQdgmw-aBQB0uyjA8bh53CpzJs,,,,,,,,,,,
,,,,,,,,,,,,,,p,1,1.006455,space,0.521865,0,36,36,91,1,15_dist_red/trial17.png,,,1,15,redHorizontal,p,54,21,female,2021-02-17_16h57.09.628,exp11,2020.2.6,Win32,60,IwAR0EYiExLoNyz0Chnc-27F3elrmreO99-FQdgmw-aBQB0uyjA8bh53CpzJs,,,,,,,,,,,
,,,,,,,,,,,,,,p,1,0.66363,space,0.37006,0,37,37,35,1,3_dist_red/trial11.png,,,1,3,redHorizontal,p,54,21,female,2021-02-17_16h57.09.628,exp11,2020.2.6,Win32,60,IwAR0EYiExLoNyz0Chnc-27F3elrmreO99-FQdgmw-aBQB0uyjA8bh53CpzJs,,,,,,,,,,,
,,,,,,,,,,,,,,p,1,0.542765,space,0.4011,0,38,38,48,1,3_dist_red/trial24.png,,,1,3,redHorizontal,p,54,21,female,2021-02-17_16h57.09.628,exp11,2020.2.6,Win32,60,IwAR0EYiExLoNyz0Chnc-27F3elrmreO99-FQdgmw-aBQB0uyjA8bh53CpzJs,,,,,,,,,,,
,,,,,,,,,,,,,,p,1,0.511,space,0.44008,0,39,39,28,1,3_dist_red/trial4.png,,,1,3,redHorizontal,p,54,21,female,2021-02-17_16h57.09.628,exp11,2020.2.6,Win32,60,IwAR0EYiExLoNyz0Chnc-27F3elrmreO99-FQdgmw-aBQB0uyjA8bh53CpzJs,,,,,,,,,,,
,,,,,,,,,,,,,,p,1,0.485255,space,0.36914,0,40,40,9,1,0_dist_red/trial10.png,,,1,0,redHorizontal,p,54,21,female,2021-02-17_16h57.09.628,exp11,2020.2.6,Win32,60,IwAR0EYiExLoNyz0Chnc-27F3elrmreO99-FQdgmw-aBQB0uyjA8bh53CpzJs,,,,,,,,,,,
,,,,,,,,,,,,,,a,1,0.674545,space,0.36986,0,41,41,173,1,0_targ_10_dist_red/trial24.png,,,0,10,redHorizontal,a,54,21,female,2021-02-17_16h57.09.628,exp11,2020.2.6,Win32,60,IwAR0EYiExLoNyz0Chnc-27F3elrmreO99-FQdgmw-aBQB0uyjA8bh53CpzJs,,,,,,,,,,,
,,,,,,,,,,,,,,a,1,0.61577,space,0.41724,0,42,42,142,1,0_targ_4_dist_red/trial18.png,,,0,4,redHorizontal,a,54,21,female,2021-02-17_16h57.09.628,exp11,2020.2.6,Win32,60,IwAR0EYiExLoNyz0Chnc-27F3elrmreO99-FQdgmw-aBQB0uyjA8bh53CpzJs,,,,,,,,,,,
,,,,,,,,,,,,,,a,1,0.556005,space,0.4387,0,43,43,128,1,0_targ_4_dist_red/trial4.png,,,0,4,redHorizontal,a,54,21,female,2021-02-17_16h57.09.628,exp11,2020.2.6,Win32,60,IwAR0EYiExLoNyz0Chnc-27F3elrmreO99-FQdgmw-aBQB0uyjA8bh53CpzJs,,,,,,,,,,,
,,,,,,,,,,,,,,p,1,0.633675,space,0.422785,0,44,44,49,1,3_dist_red/trial25.png,,,1,3,redHorizontal,p,54,21,female,2021-02-17_16h57.09.628,exp11,2020.2.6,Win32,60,IwAR0EYiExLoNyz0Chnc-27F3elrmreO99-FQdgmw-aBQB0uyjA8bh53CpzJs,,,,,,,,,,,
,,,,,,,,,,,,,,a,1,0.819505,space,0.35561,0,45,45,170,1,0_targ_10_dist_red/trial21.png,,,0,10,redHorizontal,a,54,21,female,2021-02-17_16h57.09.628,exp11,2020.2.6,Win32,60,IwAR0EYiExLoNyz0Chnc-27F3elrmreO99-FQdgmw-aBQB0uyjA8bh53CpzJs,,,,,,,,,,,
,,,,,,,,,,,,,,p,1,0.70889,space,0.384815,0,46,46,44,1,3_dist_red/trial20.png,,,1,3,redHorizontal,p,54,21,female,2021-02-17_16h57.09.628,exp11,2020.2.6,Win32,60,IwAR0EYiExLoNyz0Chnc-27F3elrmreO99-FQdgmw-aBQB0uyjA8bh53CpzJs,,,,,,,,,,,
,,,,,,,,,,,,,,p,1,1.137495,space,0.301475,0,47,47,46,1,3_dist_red/trial22.png,,,1,3,redHorizontal,p,54,21,female,2021-02-17_16h57.09.628,exp11,2020.2.6,Win32,60,IwAR0EYiExLoNyz0Chnc-27F3elrmreO99-FQdgmw-aBQB0uyjA8bh53CpzJs,,,,,,,,,,,
,,,,,,,,,,,,,,p,1,0.63646,space,0.31699,0,48,48,63,1,9_dist_red/trial14.png,,,1,9,redHorizontal,p,54,21,female,2021-02-17_16h57.09.628,exp11,2020.2.6,Win32,60,IwAR0EYiExLoNyz0Chnc-27F3elrmreO99-FQdgmw-aBQB0uyjA8bh53CpzJs,,,,,,,,,,,
,,,,,,,,,,,,,,a,1,0.713165,space,0.301315,0,49,49,139,1,0_targ_4_dist_red/trial15.png,,,0,4,redHorizontal,a,54,21,female,2021-02-17_16h57.09.628,exp11,2020.2.6,Win32,60,IwAR0EYiExLoNyz0Chnc-27F3elrmreO99-FQdgmw-aBQB0uyjA8bh53CpzJs,,,,,,,,,,,
,,,,,,,,,,,,,,p,1,0.578015,space,0.288835,0,50,50,15,1,0_dist_red/trial16.png,,,1,0,redHorizontal,p,54,21,female,2021-02-17_16h57.09.628,exp11,2020.2.6,Win32,60,IwAR0EYiExLoNyz0Chnc-27F3elrmreO99-FQdgmw-aBQB0uyjA8bh53CpzJs,,,,,,,,,,,
,,,,,,,,,,,,,,p,1,0.88482,space,0.261515,0,51,51,73,1,9_dist_red/trial24.png,,,1,9,redHorizontal,p,54,21,female,2021-02-17_16h57.09.628,exp11,2020.2.6,Win32,60,IwAR0EYiExLoNyz0Chnc-27F3elrmreO99-FQdgmw-aBQB0uyjA8bh53CpzJs,,,,,,,,,,,
,,,,,,,,,,,,,,a,1,0.721835,space,0.35757,0,52,52,165,1,0_targ_10_dist_red/trial16.png,,,0,10,redHorizontal,a,54,21,female,2021-02-17_16h57.09.628,exp11,2020.2.6,Win32,60,IwAR0EYiExLoNyz0Chnc-27F3elrmreO99-FQdgmw-aBQB0uyjA8bh53CpzJs,,,,,,,,,,,
,,,,,,,,,,,,,,a,1,0.83296,space,0.31103,0,53,53,161,1,0_targ_10_dist_red/trial12.png,,,0,10,redHorizontal,a,54,21,female,2021-02-17_16h57.09.628,exp11,2020.2.6,Win32,60,IwAR0EYiExLoNyz0Chnc-27F3elrmreO99-FQdgmw-aBQB0uyjA8bh53CpzJs,,,,,,,,,,,
,,,,,,,,,,,,,,a,1,0.904265,space,0.31848,0,54,54,154,1,0_targ_10_dist_red/trial5.png,,,0,10,redHorizontal,a,54,21,female,2021-02-17_16h57.09.628,exp11,2020.2.6,Win32,60,IwAR0EYiExLoNyz0Chnc-27F3elrmreO99-FQdgmw-aBQB0uyjA8bh53CpzJs,,,,,,,,,,,
,,,,,,,,,,,,,,p,1,0.693585,space,0.270325,0,55,55,33,1,3_dist_red/trial9.png,,,1,3,redHorizontal,p,54,21,female,2021-02-17_16h57.09.628,exp11,2020.2.6,Win32,60,IwAR0EYiExLoNyz0Chnc-27F3elrmreO99-FQdgmw-aBQB0uyjA8bh53CpzJs,,,,,,,,,,,
,,,,,,,,,,,,,,a,1,0.88493,space,0.522375,0,56,56,107,1,0_targ_1_dist_red/trial8.png,,,0,1,redHorizontal,a,54,21,female,2021-02-17_16h57.09.628,exp11,2020.2.6,Win32,60,IwAR0EYiExLoNyz0Chnc-27F3elrmreO99-FQdgmw-aBQB0uyjA8bh53CpzJs,,,,,,,,,,,
,,,,,,,,,,,,,,a,1,0.94155,space,0.304115,0,57,57,138,1,0_targ_4_dist_red/trial14.png,,,0,4,redHorizontal,a,54,21,female,2021-02-17_16h57.09.628,exp11,2020.2.6,Win32,60,IwAR0EYiExLoNyz0Chnc-27F3elrmreO99-FQdgmw-aBQB0uyjA8bh53CpzJs,,,,,,,,,,,
,,,,,,,,,,,,,,p,1,0.58669,space,0.187385,0,58,58,41,1,3_dist_red/trial17.png,,,1,3,redHorizontal,p,54,21,female,2021-02-17_16h57.09.628,exp11,2020.2.6,Win32,60,IwAR0EYiExLoNyz0Chnc-27F3elrmreO99-FQdgmw-aBQB0uyjA8bh53CpzJs,,,,,,,,,,,
,,,,,,,,,,,,,,a,1,1.15516,space,0.251285,0,59,59,193,1,0_targ_16_dist_red/trial19.png,,,0,16,redHorizontal,a,54,21,female,2021-02-17_16h57.09.628,exp11,2020.2.6,Win32,60,IwAR0EYiExLoNyz0Chnc-27F3elrmreO99-FQdgmw-aBQB0uyjA8bh53CpzJs,,,,,,,,,,,
,,,,,,,,,,,,,,p,1,0.811175,space,0.1516,0,60,60,99,1,15_dist_red/trial25.png,,,1,15,redHorizontal,p,54,21,female,2021-02-17_16h57.09.628,exp11,2020.2.6,Win32,60,IwAR0EYiExLoNyz0Chnc-27F3elrmreO99-FQdgmw-aBQB0uyjA8bh53CpzJs,,,,,,,,,,,
,,,,,,,,,,,,,,a,1,0.763945,space,0.231885,0,61,61,146,1,0_targ_4_dist_red/trial22.png,,,0,4,redHorizontal,a,54,21,female,2021-02-17_16h57.09.628,exp11,2020.2.6,Win32,60,IwAR0EYiExLoNyz0Chnc-27F3elrmreO99-FQdgmw-aBQB0uyjA8bh53CpzJs,,,,,,,,,,,
,,,,,,,,,,,,,,a,1,0.6523,space,0.167695,0,62,62,143,1,0_targ_4_dist_red/trial19.png,,,0,4,redHorizontal,a,54,21,female,2021-02-17_16h57.09.628,exp11,2020.2.6,Win32,60,IwAR0EYiExLoNyz0Chnc-27F3elrmreO99-FQdgmw-aBQB0uyjA8bh53CpzJs,,,,,,,,,,,
,,,,,,,,,,,,,,a,1,0.79562,space,0.140125,0,63,63,115,1,0_targ_1_dist_red/trial6.png,,,0,1,redHorizontal,a,54,21,female,2021-02-17_16h57.09.628,exp11,2020.2.6,Win32,60,IwAR0EYiExLoNyz0Chnc-27F3elrmreO99-FQdgmw-aBQB0uyjA8bh53CpzJs,,,,,,,,,,,
,,,,,,,,,,,,,,p,1,0.8827,space,0.107355,0,64,64,72,1,9_dist_red/trial23.png,,,1,9,redHorizontal,p,54,21,female,2021-02-17_16h57.09.628,exp11,2020.2.6,Win32,60,IwAR0EYiExLoNyz0Chnc-27F3elrmreO99-FQdgmw-aBQB0uyjA8bh53CpzJs,,,,,,,,,,,
,,,,,,,,,,,,,,a,1,1.11913,space,0.10281,0,65,65,187,1,0_targ_16_dist_red/trial13.png,,,0,16,redHorizontal,a,54,21,female,2021-02-17_16h57.09.628,exp11,2020.2.6,Win32,60,IwAR0EYiExLoNyz0Chnc-27F3elrmreO99-FQdgmw-aBQB0uyjA8bh53CpzJs,,,,,,,,,,,
,,,,,,,,,,,,,,a,1,0.79353,space,0.100425,0,66,66,119,1,0_targ_1_dist_red/trial20.png,,,0,1,redHorizontal,a,54,21,female,2021-02-17_16h57.09.628,exp11,2020.2.6,Win32,60,IwAR0EYiExLoNyz0Chnc-27F3elrmreO99-FQdgmw-aBQB0uyjA8bh53CpzJs,,,,,,,,,,,
,,,,,,,,,,,,,,p,1,1.062525,space,0.077215,0,67,67,21,1,0_dist_red/trial22.png,,,1,0,redHorizontal,p,54,21,female,2021-02-17_16h57.09.628,exp11,2020.2.6,Win32,60,IwAR0EYiExLoNyz0Chnc-27F3elrmreO99-FQdgmw-aBQB0uyjA8bh53CpzJs,,,,,,,,,,,
,,,,,,,,,,,,,,a,1,0.68589,space,0.021525,0,68,68,132,1,0_targ_4_dist_red/trial8.png,,,0,4,redHorizontal,a,54,21,female,2021-02-17_16h57.09.628,exp11,2020.2.6,Win32,60,IwAR0EYiExLoNyz0Chnc-27F3elrmreO99-FQdgmw-aBQB0uyjA8bh53CpzJs,,,,,,,,,,,
,,,,,,,,,,,,,,a,1,1.472215,space,0.069095,0,69,69,141,1,0_targ_4_dist_red/trial17.png,,,0,4,redHorizontal,a,54,21,female,2021-02-17_16h57.09.628,exp11,2020.2.6,Win32,60,IwAR0EYiExLoNyz0Chnc-27F3elrmreO99-FQdgmw-aBQB0uyjA8bh53CpzJs,,,,,,,,,,,
,,,,,,,,,,,,,,a,1,1.124845,space,0.1234,0,70,70,176,1,0_targ_16_dist_red/trial2.png,,,0,16,redHorizontal,a,54,21,female,2021-02-17_16h57.09.628,exp11,2020.2.6,Win32,60,IwAR0EYiExLoNyz0Chnc-27F3elrmreO99-FQdgmw-aBQB0uyjA8bh53CpzJs,,,,,,,,,,,
,,,,,,,,,,,,,,p,1,0.757685,space,0.10095,0,71,71,0,1,0_dist_red/trial1.png,,,1,0,redHorizontal,p,54,21,female,2021-02-17_16h57.09.628,exp11,2020.2.6,Win32,60,IwAR0EYiExLoNyz0Chnc-27F3elrmreO99-FQdgmw-aBQB0uyjA8bh53CpzJs,,,,,,,,,,,
,,,,,,,,,,,,,,p,1,0.64256,space,0.085085,0,72,72,23,1,0_dist_red/trial24.png,,,1,0,redHorizontal,p,54,21,female,2021-02-17_16h57.09.628,exp11,2020.2.6,Win32,60,IwAR0EYiExLoNyz0Chnc-27F3elrmreO99-FQdgmw-aBQB0uyjA8bh53CpzJs,,,,,,,,,,,
,,,,,,,,,,,,,,p,1,0.62804,space,0.66848,0,73,73,3,1,0_dist_red/trial4.png,,,1,0,redHorizontal,p,54,21,female,2021-02-17_16h57.09.628,exp11,2020.2.6,Win32,60,IwAR0EYiExLoNyz0Chnc-27F3elrmreO99-FQdgmw-aBQB0uyjA8bh53CpzJs,,,,,,,,,,,
,,,,,,,,,,,,,,p,1,0.831885,space,0.518765,0,74,74,4,1,0_dist_red/trial5.png,,,1,0,redHorizontal,p,54,21,female,2021-02-17_16h57.09.628,exp11,2020.2.6,Win32,60,IwAR0EYiExLoNyz0Chnc-27F3elrmreO99-FQdgmw-aBQB0uyjA8bh53CpzJs,,,,,,,,,,,
,,,,,,,,,,,,,,a,1,0.58079,space,0.368755,0,75,75,129,1,0_targ_4_dist_red/trial5.png,,,0,4,redHorizontal,a,54,21,female,2021-02-17_16h57.09.628,exp11,2020.2.6,Win32,60,IwAR0EYiExLoNyz0Chnc-27F3elrmreO99-FQdgmw-aBQB0uyjA8bh53CpzJs,,,,,,,,,,,
,,,,,,,,,,,,,,p,1,1.52433,space,0.134705,0,76,76,71,1,9_dist_red/trial22.png,,,1,9,redHorizontal,p,54,21,female,2021-02-17_16h57.09.628,exp11,2020.2.6,Win32,60,IwAR0EYiExLoNyz0Chnc-27F3elrmreO99-FQdgmw-aBQB0uyjA8bh53CpzJs,,,,,,,,,,,
,,,,,,,,,,,,,,p,1,0.58203,space,0.10523,0,77,77,53,1,9_dist_red/trial4.png,,,1,9,redHorizontal,p,54,21,female,2021-02-17_16h57.09.628,exp11,2020.2.6,Win32,60,IwAR0EYiExLoNyz0Chnc-27F3elrmreO99-FQdgmw-aBQB0uyjA8bh53CpzJs,,,,,,,,,,,
,,,,,,,,,,,,,,a,1,0.56272,space,0.285855,0,78,78,118,1,0_targ_1_dist_red/trial19.png,,,0,1,redHorizontal,a,54,21,female,2021-02-17_16h57.09.628,exp11,2020.2.6,Win32,60,IwAR0EYiExLoNyz0Chnc-27F3elrmreO99-FQdgmw-aBQB0uyjA8bh53CpzJs,,,,,,,,,,,
,,,,,,,,,,,,,,p,1,0.909515,space,0.23446,0,79,79,81,1,15_dist_red/trial7.png,,,1,15,redHorizontal,p,54,21,female,2021-02-17_16h57.09.628,exp11,2020.2.6,Win32,60,IwAR0EYiExLoNyz0Chnc-27F3elrmreO99-FQdgmw-aBQB0uyjA8bh53CpzJs,,,,,,,,,,,
,,,,,,,,,,,,,,p,1,0.82927,space,0.20368,0,80,80,94,1,15_dist_red/trial20.png,,,1,15,redHorizontal,p,54,21,female,2021-02-17_16h57.09.628,exp11,2020.2.6,Win32,60,IwAR0EYiExLoNyz0Chnc-27F3elrmreO99-FQdgmw-aBQB0uyjA8bh53CpzJs,,,,,,,,,,,
,,,,,,,,,,,,,,p,1,0.547015,space,0.217455,0,81,81,45,1,3_dist_red/trial21.png,,,1,3,redHorizontal,p,54,21,female,2021-02-17_16h57.09.628,exp11,2020.2.6,Win32,60,IwAR0EYiExLoNyz0Chnc-27F3elrmreO99-FQdgmw-aBQB0uyjA8bh53CpzJs,,,,,,,,,,,
,,,,,,,,,,,,,,p,1,0.48247,space,0.18618,0,82,82,27,1,3_dist_red/trial3.png,,,1,3,redHorizontal,p,54,21,female,2021-02-17_16h57.09.628,exp11,2020.2.6,Win32,60,IwAR0EYiExLoNyz0Chnc-27F3elrmreO99-FQdgmw-aBQB0uyjA8bh53CpzJs,,,,,,,,,,,
,,,,,,,,,,,,,,a,1,0.57971,space,0.20758,0,83,83,123,1,0_targ_1_dist_red/trial24.png,,,0,1,redHorizontal,a,54,21,female,2021-02-17_16h57.09.628,exp11,2020.2.6,Win32,60,IwAR0EYiExLoNyz0Chnc-27F3elrmreO99-FQdgmw-aBQB0uyjA8bh53CpzJs,,,,,,,,,,,
,,,,,,,,,,,,,,p,1,0.5165,space,0.18607,0,84,84,6,1,0_dist_red/trial7.png,,,1,0,redHorizontal,p,54,21,female,2021-02-17_16h57.09.628,exp11,2020.2.6,Win32,60,IwAR0EYiExLoNyz0Chnc-27F3elrmreO99-FQdgmw-aBQB0uyjA8bh53CpzJs,,,,,,,,,,,
,,,,,,,,,,,,,,p,1,0.91858,space,0.0887,0,85,85,30,1,3_dist_red/trial6.png,,,1,3,redHorizontal,p,54,21,female,2021-02-17_16h57.09.628,exp11,2020.2.6,Win32,60,IwAR0EYiExLoNyz0Chnc-27F3elrmreO99-FQdgmw-aBQB0uyjA8bh53CpzJs,,,,,,,,,,,
,,,,,,,,,,,,,,p,1,0.44701,space,0.117915,0,86,86,2,1,0_dist_red/trial3.png,,,1,0,redHorizontal,p,54,21,female,2021-02-17_16h57.09.628,exp11,2020.2.6,Win32,60,IwAR0EYiExLoNyz0Chnc-27F3elrmreO99-FQdgmw-aBQB0uyjA8bh53CpzJs,,,,,,,,,,,
,,,,,,,,,,,,,,p,1,0.581865,space,0.147315,0,87,87,68,1,9_dist_red/trial19.png,,,1,9,redHorizontal,p,54,21,female,2021-02-17_16h57.09.628,exp11,2020.2.6,Win32,60,IwAR0EYiExLoNyz0Chnc-27F3elrmreO99-FQdgmw-aBQB0uyjA8bh53CpzJs,,,,,,,,,,,
,,,,,,,,,,,,,,a,1,0.657165,space,0.155505,0,88,88,111,1,0_targ_1_dist_red/trial12.png,,,0,1,redHorizontal,a,54,21,female,2021-02-17_16h57.09.628,exp11,2020.2.6,Win32,60,IwAR0EYiExLoNyz0Chnc-27F3elrmreO99-FQdgmw-aBQB0uyjA8bh53CpzJs,,,,,,,,,,,
,,,,,,,,,,,,,,a,1,0.573915,space,0.13653,0,89,89,109,1,0_targ_1_dist_red/trial10.png,,,0,1,redHorizontal,a,54,21,female,2021-02-17_16h57.09.628,exp11,2020.2.6,Win32,60,IwAR0EYiExLoNyz0Chnc-27F3elrmreO99-FQdgmw-aBQB0uyjA8bh53CpzJs,,,,,,,,,,,
,,,,,,,,,,,,,,p,1,0.64532,space,0.10253,0,90,90,97,1,15_dist_red/trial23.png,,,1,15,redHorizontal,p,54,21,female,2021-02-17_16h57.09.628,exp11,2020.2.6,Win32,60,IwAR0EYiExLoNyz0Chnc-27F3elrmreO99-FQdgmw-aBQB0uyjA8bh53CpzJs,,,,,,,,,,,
,,,,,,,,,,,,,,a,1,1.20076,space,0.101865,0,91,91,183,1,0_targ_16_dist_red/trial9.png,,,0,16,redHorizontal,a,54,21,female,2021-02-17_16h57.09.628,exp11,2020.2.6,Win32,60,IwAR0EYiExLoNyz0Chnc-27F3elrmreO99-FQdgmw-aBQB0uyjA8bh53CpzJs,,,,,,,,,,,
,,,,,,,,,,,,,,p,1,0.765725,space,0.087385,0,92,92,98,1,15_dist_red/trial24.png,,,1,15,redHorizontal,p,54,21,female,2021-02-17_16h57.09.628,exp11,2020.2.6,Win32,60,IwAR0EYiExLoNyz0Chnc-27F3elrmreO99-FQdgmw-aBQB0uyjA8bh53CpzJs,,,,,,,,,,,
,,,,,,,,,,,,,,a,1,0.89727,space,0.1306,0,93,93,116,1,0_targ_1_dist_red/trial17.png,,,0,1,redHorizontal,a,54,21,female,2021-02-17_16h57.09.628,exp11,2020.2.6,Win32,60,IwAR0EYiExLoNyz0Chnc-27F3elrmreO99-FQdgmw-aBQB0uyjA8bh53CpzJs,,,,,,,,,,,
,,,,,,,,,,,,,,p,1,1.25036,space,0.05207,0,94,94,50,1,9_dist_red/trial1.png,,,1,9,redHorizontal,p,54,21,female,2021-02-17_16h57.09.628,exp11,2020.2.6,Win32,60,IwAR0EYiExLoNyz0Chnc-27F3elrmreO99-FQdgmw-aBQB0uyjA8bh53CpzJs,,,,,,,,,,,
,,,,,,,,,,,,,,a,1,1.12569,space,0.07043,0,95,95,149,1,0_targ_4_dist_red/trial25.png,,,0,4,redHorizontal,a,54,21,female,2021-02-17_16h57.09.628,exp11,2020.2.6,Win32,60,IwAR0EYiExLoNyz0Chnc-27F3elrmreO99-FQdgmw-aBQB0uyjA8bh53CpzJs,,,,,,,,,,,
,,,,,,,,,,,,,,p,1,0.784415,space,0.085125,0,96,96,67,1,9_dist_red/trial18.png,,,1,9,redHorizontal,p,54,21,female,2021-02-17_16h57.09.628,exp11,2020.2.6,Win32,60,IwAR0EYiExLoNyz0Chnc-27F3elrmreO99-FQdgmw-aBQB0uyjA8bh53CpzJs,,,,,,,,,,,
,,,,,,,,,,,,,,a,1,0.73457,space,0.118555,0,97,97,130,1,0_targ_4_dist_red/trial6.png,,,0,4,redHorizontal,a,54,21,female,2021-02-17_16h57.09.628,exp11,2020.2.6,Win32,60,IwAR0EYiExLoNyz0Chnc-27F3elrmreO99-FQdgmw-aBQB0uyjA8bh53CpzJs,,,,,,,,,,,
,,,,,,,,,,,,,,a,1,1.100365,space,0.11946,0,98,98,180,1,0_targ_16_dist_red/trial6.png,,,0,16,redHorizontal,a,54,21,female,2021-02-17_16h57.09.628,exp11,2020.2.6,Win32,60,IwAR0EYiExLoNyz0Chnc-27F3elrmreO99-FQdgmw-aBQB0uyjA8bh53CpzJs,,,,,,,,,,,
,,,,,,,,,,,,,,p,1,0.72612,space,0.10273,0,99,99,58,1,9_dist_red/trial9.png,,,1,9,redHorizontal,p,54,21,female,2021-02-17_16h57.09.628,exp11,2020.2.6,Win32,60,IwAR0EYiExLoNyz0Chnc-27F3elrmreO99-FQdgmw-aBQB0uyjA8bh53CpzJs,,,,,,,,,,,
,,,,,,,,,,,,,,a,1,1.32411,space,0.110285,0,100,100,199,1,0_targ_16_dist_red/trial25.png,,,0,16,redHorizontal,a,54,21,female,2021-02-17_16h57.09.628,exp11,2020.2.6,Win32,60,IwAR0EYiExLoNyz0Chnc-27F3elrmreO99-FQdgmw-aBQB0uyjA8bh53CpzJs,,,,,,,,,,,
,,,,,,,,,,,,,,p,1,0.819505,space,0.05312,0,101,101,76,1,15_dist_red/trial2.png,,,1,15,redHorizontal,p,54,21,female,2021-02-17_16h57.09.628,exp11,2020.2.6,Win32,60,IwAR0EYiExLoNyz0Chnc-27F3elrmreO99-FQdgmw-aBQB0uyjA8bh53CpzJs,,,,,,,,,,,
,,,,,,,,,,,,,,a,1,0.749405,space,0.15078,0,102,102,117,1,0_targ_1_dist_red/trial18.png,,,0,1,redHorizontal,a,54,21,female,2021-02-17_16h57.09.628,exp11,2020.2.6,Win32,60,IwAR0EYiExLoNyz0Chnc-27F3elrmreO99-FQdgmw-aBQB0uyjA8bh53CpzJs,,,,,,,,,,,
,,,,,,,,,,,,,,p,1,0.80249,space,0.05095,0,103,103,25,1,3_dist_red/trial1.png,,,1,3,redHorizontal,p,54,21,female,2021-02-17_16h57.09.628,exp11,2020.2.6,Win32,60,IwAR0EYiExLoNyz0Chnc-27F3elrmreO99-FQdgmw-aBQB0uyjA8bh53CpzJs,,,,,,,,,,,
,,,,,,,,,,,,,,p,1,0.66139,space,0.05895,0,104,104,38,1,3_dist_red/trial14.png,,,1,3,redHorizontal,p,54,21,female,2021-02-17_16h57.09.628,exp11,2020.2.6,Win32,60,IwAR0EYiExLoNyz0Chnc-27F3elrmreO99-FQdgmw-aBQB0uyjA8bh53CpzJs,,,,,,,,,,,
,,,,,,,,,,,,,,a,1,1.018315,space,0.106775,0,105,105,190,1,0_targ_16_dist_red/trial16.png,,,0,16,redHorizontal,a,54,21,female,2021-02-17_16h57.09.628,exp11,2020.2.6,Win32,60,IwAR0EYiExLoNyz0Chnc-27F3elrmreO99-FQdgmw-aBQB0uyjA8bh53CpzJs,,,,,,,,,,,
,,,,,,,,,,,,,,p,1,0.7755,space,0.01872,0,106,106,56,1,9_dist_red/trial7.png,,,1,9,redHorizontal,p,54,21,female,2021-02-17_16h57.09.628,exp11,2020.2.6,Win32,60,IwAR0EYiExLoNyz0Chnc-27F3elrmreO99-FQdgmw-aBQB0uyjA8bh53CpzJs,,,,,,,,,,,
,,,,,,,,,,,,,,p,1,0.829465,space,0.00161,0,107,107,64,1,9_dist_red/trial15.png,,,1,9,redHorizontal,p,54,21,female,2021-02-17_16h57.09.628,exp11,2020.2.6,Win32,60,IwAR0EYiExLoNyz0Chnc-27F3elrmreO99-FQdgmw-aBQB0uyjA8bh53CpzJs,,,,,,,,,,,
,,,,,,,,,,,,,,p,1,0.912055,space,1.233425,0,108,108,39,1,3_dist_red/trial15.png,,,1,3,redHorizontal,p,54,21,female,2021-02-17_16h57.09.628,exp11,2020.2.6,Win32,60,IwAR0EYiExLoNyz0Chnc-27F3elrmreO99-FQdgmw-aBQB0uyjA8bh53CpzJs,,,,,,,,,,,
,,,,,,,,,,,,,,a,1,0.6181,space,0.057715,0,109,109,125,1,0_targ_4_dist_red/trial1.png,,,0,4,redHorizontal,a,54,21,female,2021-02-17_16h57.09.628,exp11,2020.2.6,Win32,60,IwAR0EYiExLoNyz0Chnc-27F3elrmreO99-FQdgmw-aBQB0uyjA8bh53CpzJs,,,,,,,,,,,
,,,,,,,,,,,,,,a,1,0.954525,space,0.069325,0,110,110,144,1,0_targ_4_dist_red/trial20.png,,,0,4,redHorizontal,a,54,21,female,2021-02-17_16h57.09.628,exp11,2020.2.6,Win32,60,IwAR0EYiExLoNyz0Chnc-27F3elrmreO99-FQdgmw-aBQB0uyjA8bh53CpzJs,,,,,,,,,,,
,,,,,,,,,,,,,,p,1,0.685085,space,0.121015,0,111,111,60,1,9_dist_red/trial11.png,,,1,9,redHorizontal,p,54,21,female,2021-02-17_16h57.09.628,exp11,2020.2.6,Win32,60,IwAR0EYiExLoNyz0Chnc-27F3elrmreO99-FQdgmw-aBQB0uyjA8bh53CpzJs,,,,,,,,,,,
,,,,,,,,,,,,,,a,1,0.906565,space,0.126145,0,112,112,156,1,0_targ_10_dist_red/trial7.png,,,0,10,redHorizontal,a,54,21,female,2021-02-17_16h57.09.628,exp11,2020.2.6,Win32,60,IwAR0EYiExLoNyz0Chnc-27F3elrmreO99-FQdgmw-aBQB0uyjA8bh53CpzJs,,,,,,,,,,,
,,,,,,,,,,,,,,a,1,0.557185,space,0.134995,0,113,113,113,1,0_targ_1_dist_red/trial14.png,,,0,1,redHorizontal,a,54,21,female,2021-02-17_16h57.09.628,exp11,2020.2.6,Win32,60,IwAR0EYiExLoNyz0Chnc-27F3elrmreO99-FQdgmw-aBQB0uyjA8bh53CpzJs,,,,,,,,,,,
,,,,,,,,,,,,,,p,1,1.065605,space,0.10788,0,114,114,55,1,9_dist_red/trial6.png,,,1,9,redHorizontal,p,54,21,female,2021-02-17_16h57.09.628,exp11,2020.2.6,Win32,60,IwAR0EYiExLoNyz0Chnc-27F3elrmreO99-FQdgmw-aBQB0uyjA8bh53CpzJs,,,,,,,,,,,
,,,,,,,,,,,,,,a,1,0.792415,space,0.118535,0,115,115,175,1,0_targ_16_dist_red/trial1.png,,,0,16,redHorizontal,a,54,21,female,2021-02-17_16h57.09.628,exp11,2020.2.6,Win32,60,IwAR0EYiExLoNyz0Chnc-27F3elrmreO99-FQdgmw-aBQB0uyjA8bh53CpzJs,,,,,,,,,,,
,,,,,,,,,,,,,,a,1,0.702075,space,0.731675,0,116,116,105,1,0_targ_1_dist_red/trial6.png,,,0,1,redHorizontal,a,54,21,female,2021-02-17_16h57.09.628,exp11,2020.2.6,Win32,60,IwAR0EYiExLoNyz0Chnc-27F3elrmreO99-FQdgmw-aBQB0uyjA8bh53CpzJs,,,,,,,,,,,
,,,,,,,,,,,,,,p,1,0.50992,space,0.350695,0,117,117,19,1,0_dist_red/trial20.png,,,1,0,redHorizontal,p,54,21,female,2021-02-17_16h57.09.628,exp11,2020.2.6,Win32,60,IwAR0EYiExLoNyz0Chnc-27F3elrmreO99-FQdgmw-aBQB0uyjA8bh53CpzJs,,,,,,,,,,,
,,,,,,,,,,,,,,p,1,0.568485,space,0.169985,0,118,118,85,1,15_dist_red/trial11.png,,,1,15,redHorizontal,p,54,21,female,2021-02-17_16h57.09.628,exp11,2020.2.6,Win32,60,IwAR0EYiExLoNyz0Chnc-27F3elrmreO99-FQdgmw-aBQB0uyjA8bh53CpzJs,,,,,,,,,,,
,,,,,,,,,,,,,,a,1,0.56679,space,0.30153,0,119,119,135,1,0_targ_4_dist_red/trial11.png,,,0,4,redHorizontal,a,54,21,female,2021-02-17_16h57.09.628,exp11,2020.2.6,Win32,60,IwAR0EYiExLoNyz0Chnc-27F3elrmreO99-FQdgmw-aBQB0uyjA8bh53CpzJs,,,,,,,,,,,
,,,,,,,,,,,,,,a,1,0.325545,space,0.37135,0,120,120,155,1,0_targ_10_dist_red/trial6.png,,,0,10,redHorizontal,a,54,21,female,2021-02-17_16h57.09.628,exp11,2020.2.6,Win32,60,IwAR0EYiExLoNyz0Chnc-27F3elrmreO99-FQdgmw-aBQB0uyjA8bh53CpzJs,,,,,,,,,,,
,,,,,,,,,,,,,,a,1,0.61299,space,0.267425,0,121,121,124,1,0_targ_1_dist_red/trial25.png,,,0,1,redHorizontal,a,54,21,female,2021-02-17_16h57.09.628,exp11,2020.2.6,Win32,60,IwAR0EYiExLoNyz0Chnc-27F3elrmreO99-FQdgmw-aBQB0uyjA8bh53CpzJs,,,,,,,,,,,
,,,,,,,,,,,,,,a,1,0.93224,space,0.242335,0,122,122,159,1,0_targ_10_dist_red/trial10.png,,,0,10,redHorizontal,a,54,21,female,2021-02-17_16h57.09.628,exp11,2020.2.6,Win32,60,IwAR0EYiExLoNyz0Chnc-27F3elrmreO99-FQdgmw-aBQB0uyjA8bh53CpzJs,,,,,,,,,,,
,,,,,,,,,,,,,,p,1,0.544665,space,0.20985,0,123,123,24,1,0_dist_red/trial25.png,,,1,0,redHorizontal,p,54,21,female,2021-02-17_16h57.09.628,exp11,2020.2.6,Win32,60,IwAR0EYiExLoNyz0Chnc-27F3elrmreO99-FQdgmw-aBQB0uyjA8bh53CpzJs,,,,,,,,,,,
,,,,,,,,,,,,,,a,1,0.510345,space,0.14801,0,124,124,133,1,0_targ_4_dist_red/trial9.png,,,0,4,redHorizontal,a,54,21,female,2021-02-17_16h57.09.628,exp11,2020.2.6,Win32,60,IwAR0EYiExLoNyz0Chnc-27F3elrmreO99-FQdgmw-aBQB0uyjA8bh53CpzJs,,,,,,,,,,,
,,,,,,,,,,,,,,p,1,0.541045,space,0.12562,0,125,125,61,1,9_dist_red/trial12.png,,,1,9,redHorizontal,p,54,21,female,2021-02-17_16h57.09.628,exp11,2020.2.6,Win32,60,IwAR0EYiExLoNyz0Chnc-27F3elrmreO99-FQdgmw-aBQB0uyjA8bh53CpzJs,,,,,,,,,,,
,,,,,,,,,,,,,,a,1,0.55437,space,0.06763,0,126,126,136,1,0_targ_4_dist_red/trial12.png,,,0,4,redHorizontal,a,54,21,female,2021-02-17_16h57.09.628,exp11,2020.2.6,Win32,60,IwAR0EYiExLoNyz0Chnc-27F3elrmreO99-FQdgmw-aBQB0uyjA8bh53CpzJs,,,,,,,,,,,
,,,,,,,,,,,,,,a,1,0.62752,space,0.09952,0,127,127,108,1,0_targ_1_dist_red/trial9.png,,,0,1,redHorizontal,a,54,21,female,2021-02-17_16h57.09.628,exp11,2020.2.6,Win32,60,IwAR0EYiExLoNyz0Chnc-27F3elrmreO99-FQdgmw-aBQB0uyjA8bh53CpzJs,,,,,,,,,,,
,,,,,,,,,,,,,,a,1,0.62435,space,0.0681,0,128,128,164,1,0_targ_10_dist_red/trial15.png,,,0,10,redHorizontal,a,54,21,female,2021-02-17_16h57.09.628,exp11,2020.2.6,Win32,60,IwAR0EYiExLoNyz0Chnc-27F3elrmreO99-FQdgmw-aBQB0uyjA8bh53CpzJs,,,,,,,,,,,
,,,,,,,,,,,,,,p,1,0.543625,space,0.078305,0,129,129,13,1,0_dist_red/trial14.png,,,1,0,redHorizontal,p,54,21,female,2021-02-17_16h57.09.628,exp11,2020.2.6,Win32,60,IwAR0EYiExLoNyz0Chnc-27F3elrmreO99-FQdgmw-aBQB0uyjA8bh53CpzJs,,,,,,,,,,,
,,,,,,,,,,,,,,p,1,0.75127,space,0.03344,0,130,130,62,1,9_dist_red/trial13.png,,,1,9,redHorizontal,p,54,21,female,2021-02-17_16h57.09.628,exp11,2020.2.6,Win32,60,IwAR0EYiExLoNyz0Chnc-27F3elrmreO99-FQdgmw-aBQB0uyjA8bh53CpzJs,,,,,,,,,,,
,,,,,,,,,,,,,,a,1,1.0091,space,0.501285,0,131,131,158,1,0_targ_10_dist_red/trial9.png,,,0,10,redHorizontal,a,54,21,female,2021-02-17_16h57.09.628,exp11,2020.2.6,Win32,60,IwAR0EYiExLoNyz0Chnc-27F3elrmreO99-FQdgmw-aBQB0uyjA8bh53CpzJs,,,,,,,,,,,
,,,,,,,,,,,,,,a,0,0.85852,space,0.205595,0,132,132,80,1,15_dist_red/trial6.png,,,1,15,redHorizontal,p,54,21,female,2021-02-17_16h57.09.628,exp11,2020.2.6,Win32,60,IwAR0EYiExLoNyz0Chnc-27F3elrmreO99-FQdgmw-aBQB0uyjA8bh53CpzJs,,,,,,,,,,,
,,,,,,,,,,,,,,a,1,0.89775,space,0.09613,0,133,133,103,1,0_targ_1_dist_red/trial4.png,,,0,1,redHorizontal,a,54,21,female,2021-02-17_16h57.09.628,exp11,2020.2.6,Win32,60,IwAR0EYiExLoNyz0Chnc-27F3elrmreO99-FQdgmw-aBQB0uyjA8bh53CpzJs,,,,,,,,,,,
,,,,,,,,,,,,,,a,1,0.72805,space,0.068475,0,134,134,126,1,0_targ_4_dist_red/trial2.png,,,0,4,redHorizontal,a,54,21,female,2021-02-17_16h57.09.628,exp11,2020.2.6,Win32,60,IwAR0EYiExLoNyz0Chnc-27F3elrmreO99-FQdgmw-aBQB0uyjA8bh53CpzJs,,,,,,,,,,,
,,,,,,,,,,,,,,p,1,0.88144,space,0.12519,0,135,135,83,1,15_dist_red/trial9.png,,,1,15,redHorizontal,p,54,21,female,2021-02-17_16h57.09.628,exp11,2020.2.6,Win32,60,IwAR0EYiExLoNyz0Chnc-27F3elrmreO99-FQdgmw-aBQB0uyjA8bh53CpzJs,,,,,,,,,,,
,,,,,,,,,,,,,,p,1,0.92594,space,0.08893,0,136,136,32,1,3_dist_red/trial8.png,,,1,3,redHorizontal,p,54,21,female,2021-02-17_16h57.09.628,exp11,2020.2.6,Win32,60,IwAR0EYiExLoNyz0Chnc-27F3elrmreO99-FQdgmw-aBQB0uyjA8bh53CpzJs,,,,,,,,,,,
,,,,,,,,,,,,,,p,1,0.86294,space,0.05225,0,137,137,86,1,15_dist_red/trial12.png,,,1,15,redHorizontal,p,54,21,female,2021-02-17_16h57.09.628,exp11,2020.2.6,Win32,60,IwAR0EYiExLoNyz0Chnc-27F3elrmreO99-FQdgmw-aBQB0uyjA8bh53CpzJs,,,,,,,,,,,
,,,,,,,,,,,,,,a,1,0.98402,space,0.020895,0,138,138,160,1,0_targ_10_dist_red/trial11.png,,,0,10,redHorizontal,a,54,21,female,2021-02-17_16h57.09.628,exp11,2020.2.6,Win32,60,IwAR0EYiExLoNyz0Chnc-27F3elrmreO99-FQdgmw-aBQB0uyjA8bh53CpzJs,,,,,,,,,,,
,,,,,,,,,,,,,,a,1,0.958775,space,0.031235,0,139,139,184,1,0_targ_16_dist_red/trial10.png,,,0,16,redHorizontal,a,54,21,female,2021-02-17_16h57.09.628,exp11,2020.2.6,Win32,60,IwAR0EYiExLoNyz0Chnc-27F3elrmreO99-FQdgmw-aBQB0uyjA8bh53CpzJs,,,,,,,,,,,
,,,,,,,,,,,,,,a,1,0.76679,space,0.047845,0,140,140,121,1,0_targ_1_dist_red/trial22.png,,,0,1,redHorizontal,a,54,21,female,2021-02-17_16h57.09.628,exp11,2020.2.6,Win32,60,IwAR0EYiExLoNyz0Chnc-27F3elrmreO99-FQdgmw-aBQB0uyjA8bh53CpzJs,,,,,,,,,,,
,,,,,,,,,,,,,,a,1,0.87925,space,0.01881,0,141,141,178,1,0_targ_16_dist_red/trial4.png,,,0,16,redHorizontal,a,54,21,female,2021-02-17_16h57.09.628,exp11,2020.2.6,Win32,60,IwAR0EYiExLoNyz0Chnc-27F3elrmreO99-FQdgmw-aBQB0uyjA8bh53CpzJs,,,,,,,,,,,
,,,,,,,,,,,,,,a,1,0.81329,space,0.09273,0,142,142,192,1,0_targ_16_dist_red/trial18.png,,,0,16,redHorizontal,a,54,21,female,2021-02-17_16h57.09.628,exp11,2020.2.6,Win32,60,IwAR0EYiExLoNyz0Chnc-27F3elrmreO99-FQdgmw-aBQB0uyjA8bh53CpzJs,,,,,,,,,,,
,,,,,,,,,,,,,,p,1,0.72416,space,0.185975,0,143,143,52,1,9_dist_red/trial3.png,,,1,9,redHorizontal,p,54,21,female,2021-02-17_16h57.09.628,exp11,2020.2.6,Win32,60,IwAR0EYiExLoNyz0Chnc-27F3elrmreO99-FQdgmw-aBQB0uyjA8bh53CpzJs,,,,,,,,,,,
,,,,,,,,,,,,,,a,1,1.046665,space,0.108395,0,144,144,104,1,0_targ_1_dist_red/trial5.png,,,0,1,redHorizontal,a,54,21,female,2021-02-17_16h57.09.628,exp11,2020.2.6,Win32,60,IwAR0EYiExLoNyz0Chnc-27F3elrmreO99-FQdgmw-aBQB0uyjA8bh53CpzJs,,,,,,,,,,,
,,,,,,,,,,,,,,a,1,1.415405,space,0.084785,0,145,145,194,1,0_targ_16_dist_red/trial20.png,,,0,16,redHorizontal,a,54,21,female,2021-02-17_16h57.09.628,exp11,2020.2.6,Win32,60,IwAR0EYiExLoNyz0Chnc-27F3elrmreO99-FQdgmw-aBQB0uyjA8bh53CpzJs,,,,,,,,,,,
,,,,,,,,,,,,,,p,1,0.664965,space,0.06936,0,146,146,31,1,3_dist_red/trial7.png,,,1,3,redHorizontal,p,54,21,female,2021-02-17_16h57.09.628,exp11,2020.2.6,Win32,60,IwAR0EYiExLoNyz0Chnc-27F3elrmreO99-FQdgmw-aBQB0uyjA8bh53CpzJs,,,,,,,,,,,
,,,,,,,,,,,,,,p,1,0.675355,space,0.00776,0,147,147,1,1,0_dist_red/trial2.png,,,1,0,redHorizontal,p,54,21,female,2021-02-17_16h57.09.628,exp11,2020.2.6,Win32,60,IwAR0EYiExLoNyz0Chnc-27F3elrmreO99-FQdgmw-aBQB0uyjA8bh53CpzJs,,,,,,,,,,,
,,,,,,,,,,,,,,p,1,1.01524,space,0.819715,0,148,148,92,1,15_dist_red/trial18.png,,,1,15,redHorizontal,p,54,21,female,2021-02-17_16h57.09.628,exp11,2020.2.6,Win32,60,IwAR0EYiExLoNyz0Chnc-27F3elrmreO99-FQdgmw-aBQB0uyjA8bh53CpzJs,,,,,,,,,,,
,,,,,,,,,,,,,,a,1,0.82946,space,0.65376,0,149,149,196,1,0_targ_16_dist_red/trial22.png,,,0,16,redHorizontal,a,54,21,female,2021-02-17_16h57.09.628,exp11,2020.2.6,Win32,60,IwAR0EYiExLoNyz0Chnc-27F3elrmreO99-FQdgmw-aBQB0uyjA8bh53CpzJs,,,,,,,,,,,
,,,,,,,,,,,,,,a,1,1.088355,space,0.05159,0,150,150,197,1,0_targ_16_dist_red/trial23.png,,,0,16,redHorizontal,a,54,21,female,2021-02-17_16h57.09.628,exp11,2020.2.6,Win32,60,IwAR0EYiExLoNyz0Chnc-27F3elrmreO99-FQdgmw-aBQB0uyjA8bh53CpzJs,,,,,,,,,,,
,,,,,,,,,,,,,,p,1,0.76233,space,0.04401,0,151,151,16,1,0_dist_red/trial17.png,,,1,0,redHorizontal,p,54,21,female,2021-02-17_16h57.09.628,exp11,2020.2.6,Win32,60,IwAR0EYiExLoNyz0Chnc-27F3elrmreO99-FQdgmw-aBQB0uyjA8bh53CpzJs,,,,,,,,,,,
,,,,,,,,,,,,,,p,1,0.72151,space,0.009335,0,152,152,57,1,9_dist_red/trial8.png,,,1,9,redHorizontal,p,54,21,female,2021-02-17_16h57.09.628,exp11,2020.2.6,Win32,60,IwAR0EYiExLoNyz0Chnc-27F3elrmreO99-FQdgmw-aBQB0uyjA8bh53CpzJs,,,,,,,,,,,
,,,,,,,,,,,,,,p,1,0.963495,space,0.72001,0,153,153,74,1,9_dist_red/trial25.png,,,1,9,redHorizontal,p,54,21,female,2021-02-17_16h57.09.628,exp11,2020.2.6,Win32,60,IwAR0EYiExLoNyz0Chnc-27F3elrmreO99-FQdgmw-aBQB0uyjA8bh53CpzJs,,,,,,,,,,,
,,,,,,,,,,,,,,p,1,0.67044,space,0.008335,0,154,154,66,1,9_dist_red/trial17.png,,,1,9,redHorizontal,p,54,21,female,2021-02-17_16h57.09.628,exp11,2020.2.6,Win32,60,IwAR0EYiExLoNyz0Chnc-27F3elrmreO99-FQdgmw-aBQB0uyjA8bh53CpzJs,,,,,,,,,,,
,,,,,,,,,,,,,,a,1,0.70177,space,0.02761,0,155,155,150,1,0_targ_10_dist_red/trial1.png,,,0,10,redHorizontal,a,54,21,female,2021-02-17_16h57.09.628,exp11,2020.2.6,Win32,60,IwAR0EYiExLoNyz0Chnc-27F3elrmreO99-FQdgmw-aBQB0uyjA8bh53CpzJs,,,,,,,,,,,
,,,,,,,,,,,,,,p,1,0.72957,space,0.660895,0,156,156,65,1,9_dist_red/trial16.png,,,1,9,redHorizontal,p,54,21,female,2021-02-17_16h57.09.628,exp11,2020.2.6,Win32,60,IwAR0EYiExLoNyz0Chnc-27F3elrmreO99-FQdgmw-aBQB0uyjA8bh53CpzJs,,,,,,,,,,,
,,,,,,,,,,,,,,a,1,0.59737,space,0.05213,0,157,157,101,1,0_targ_1_dist_red/trial2.png,,,0,1,redHorizontal,a,54,21,female,2021-02-17_16h57.09.628,exp11,2020.2.6,Win32,60,IwAR0EYiExLoNyz0Chnc-27F3elrmreO99-FQdgmw-aBQB0uyjA8bh53CpzJs,,,,,,,,,,,
,,,,,,,,,,,,,,a,1,0.489405,space,0.06771,0,158,158,100,1,0_targ_1_dist_red/trial1.png,,,0,1,redHorizontal,a,54,21,female,2021-02-17_16h57.09.628,exp11,2020.2.6,Win32,60,IwAR0EYiExLoNyz0Chnc-27F3elrmreO99-FQdgmw-aBQB0uyjA8bh53CpzJs,,,,,,,,,,,
,,,,,,,,,,,,,,a,1,0.91919,space,0.084635,0,159,159,185,1,0_targ_16_dist_red/trial11.png,,,0,16,redHorizontal,a,54,21,female,2021-02-17_16h57.09.628,exp11,2020.2.6,Win32,60,IwAR0EYiExLoNyz0Chnc-27F3elrmreO99-FQdgmw-aBQB0uyjA8bh53CpzJs,,,,,,,,,,,
,,,,,,,,,,,,,,a,1,0.70618,space,0.05338,0,160,160,168,1,0_targ_10_dist_red/trial19.png,,,0,10,redHorizontal,a,54,21,female,2021-02-17_16h57.09.628,exp11,2020.2.6,Win32,60,IwAR0EYiExLoNyz0Chnc-27F3elrmreO99-FQdgmw-aBQB0uyjA8bh53CpzJs,,,,,,,,,,,
,,,,,,,,,,,,,,p,1,0.688265,space,0.061305,0,161,161,17,1,0_dist_red/trial18.png,,,1,0,redHorizontal,p,54,21,female,2021-02-17_16h57.09.628,exp11,2020.2.6,Win32,60,IwAR0EYiExLoNyz0Chnc-27F3elrmreO99-FQdgmw-aBQB0uyjA8bh53CpzJs,,,,,,,,,,,
,,,,,,,,,,,,,,a,1,1.044475,space,0.02501,0,162,162,189,1,0_targ_16_dist_red/trial15.png,,,0,16,redHorizontal,a,54,21,female,2021-02-17_16h57.09.628,exp11,2020.2.6,Win32,60,IwAR0EYiExLoNyz0Chnc-27F3elrmreO99-FQdgmw-aBQB0uyjA8bh53CpzJs,,,,,,,,,,,
,,,,,,,,,,,,,,a,1,0.89004,space,0.88669,0,163,163,181,1,0_targ_16_dist_red/trial7.png,,,0,16,redHorizontal,a,54,21,female,2021-02-17_16h57.09.628,exp11,2020.2.6,Win32,60,IwAR0EYiExLoNyz0Chnc-27F3elrmreO99-FQdgmw-aBQB0uyjA8bh53CpzJs,,,,,,,,,,,
,,,,,,,,,,,,,,p,1,1.07652,space,0.038645,0,164,164,70,1,9_dist_red/trial21.png,,,1,9,redHorizontal,p,54,21,female,2021-02-17_16h57.09.628,exp11,2020.2.6,Win32,60,IwAR0EYiExLoNyz0Chnc-27F3elrmreO99-FQdgmw-aBQB0uyjA8bh53CpzJs,,,,,,,,,,,
,,,,,,,,,,,,,,a,1,1.12891,space,0.125435,0,165,165,114,1,0_targ_1_dist_red/trial15.png,,,0,1,redHorizontal,a,54,21,female,2021-02-17_16h57.09.628,exp11,2020.2.6,Win32,60,IwAR0EYiExLoNyz0Chnc-27F3elrmreO99-FQdgmw-aBQB0uyjA8bh53CpzJs,,,,,,,,,,,
,,,,,,,,,,,,,,p,1,0.649075,space,0.052355,0,166,166,43,1,3_dist_red/trial19.png,,,1,3,redHorizontal,p,54,21,female,2021-02-17_16h57.09.628,exp11,2020.2.6,Win32,60,IwAR0EYiExLoNyz0Chnc-27F3elrmreO99-FQdgmw-aBQB0uyjA8bh53CpzJs,,,,,,,,,,,
,,,,,,,,,,,,,,a,1,0.8136,space,0.07462,0,167,167,169,1,0_targ_10_dist_red/trial20.png,,,0,10,redHorizontal,a,54,21,female,2021-02-17_16h57.09.628,exp11,2020.2.6,Win32,60,IwAR0EYiExLoNyz0Chnc-27F3elrmreO99-FQdgmw-aBQB0uyjA8bh53CpzJs,,,,,,,,,,,
,,,,,,,,,,,,,,a,1,0.81133,space,0.05447,0,168,168,157,1,0_targ_10_dist_red/trial8.png,,,0,10,redHorizontal,a,54,21,female,2021-02-17_16h57.09.628,exp11,2020.2.6,Win32,60,IwAR0EYiExLoNyz0Chnc-27F3elrmreO99-FQdgmw-aBQB0uyjA8bh53CpzJs,,,,,,,,,,,
,,,,,,,,,,,,,,p,1,0.79267,space,0.06719,0,169,169,95,1,15_dist_red/trial21.png,,,1,15,redHorizontal,p,54,21,female,2021-02-17_16h57.09.628,exp11,2020.2.6,Win32,60,IwAR0EYiExLoNyz0Chnc-27F3elrmreO99-FQdgmw-aBQB0uyjA8bh53CpzJs,,,,,,,,,,,
,,,,,,,,,,,,,,a,1,0.784265,space,0.00418,0,170,170,186,1,0_targ_16_dist_red/trial12.png,,,0,16,redHorizontal,a,54,21,female,2021-02-17_16h57.09.628,exp11,2020.2.6,Win32,60,IwAR0EYiExLoNyz0Chnc-27F3elrmreO99-FQdgmw-aBQB0uyjA8bh53CpzJs,,,,,,,,,,,
,,,,,,,,,,,,,,p,1,0.661765,space,0.087435,0,171,171,8,1,0_dist_red/trial9.png,,,1,0,redHorizontal,p,54,21,female,2021-02-17_16h57.09.628,exp11,2020.2.6,Win32,60,IwAR0EYiExLoNyz0Chnc-27F3elrmreO99-FQdgmw-aBQB0uyjA8bh53CpzJs,,,,,,,,,,,
,,,,,,,,,,,,,,p,1,0.65893,space,0.091035,0,172,172,93,1,15_dist_red/trial19.png,,,1,15,redHorizontal,p,54,21,female,2021-02-17_16h57.09.628,exp11,2020.2.6,Win32,60,IwAR0EYiExLoNyz0Chnc-27F3elrmreO99-FQdgmw-aBQB0uyjA8bh53CpzJs,,,,,,,,,,,
,,,,,,,,,,,,,,a,1,0.615345,space,0.07356,0,173,173,137,1,0_targ_4_dist_red/trial13.png,,,0,4,redHorizontal,a,54,21,female,2021-02-17_16h57.09.628,exp11,2020.2.6,Win32,60,IwAR0EYiExLoNyz0Chnc-27F3elrmreO99-FQdgmw-aBQB0uyjA8bh53CpzJs,,,,,,,,,,,
,,,,,,,,,,,,,,p,1,0.679565,space,0.07636,0,174,174,18,1,0_dist_red/trial19.png,,,1,0,redHorizontal,p,54,21,female,2021-02-17_16h57.09.628,exp11,2020.2.6,Win32,60,IwAR0EYiExLoNyz0Chnc-27F3elrmreO99-FQdgmw-aBQB0uyjA8bh53CpzJs,,,,,,,,,,,
,,,,,,,,,,,,,,p,1,0.64471,space,0.088135,0,175,175,37,1,3_dist_red/trial13.png,,,1,3,redHorizontal,p,54,21,female,2021-02-17_16h57.09.628,exp11,2020.2.6,Win32,60,IwAR0EYiExLoNyz0Chnc-27F3elrmreO99-FQdgmw-aBQB0uyjA8bh53CpzJs,,,,,,,,,,,
,,,,,,,,,,,,,,a,1,0.93597,space,0.08432,0,176,176,188,1,0_targ_16_dist_red/trial14.png,,,0,16,redHorizontal,a,54,21,female,2021-02-17_16h57.09.628,exp11,2020.2.6,Win32,60,IwAR0EYiExLoNyz0Chnc-27F3elrmreO99-FQdgmw-aBQB0uyjA8bh53CpzJs,,,,,,,,,,,
,,,,,,,,,,,,,,p,1,0.745755,space,0.055305,0,177,177,29,1,3_dist_red/trial5.png,,,1,3,redHorizontal,p,54,21,female,2021-02-17_16h57.09.628,exp11,2020.2.6,Win32,60,IwAR0EYiExLoNyz0Chnc-27F3elrmreO99-FQdgmw-aBQB0uyjA8bh53CpzJs,,,,,,,,,,,
,,,,,,,,,,,,,,p,1,0.91804,space,0.052165,0,178,178,90,1,15_dist_red/trial16.png,,,1,15,redHorizontal,p,54,21,female,2021-02-17_16h57.09.628,exp11,2020.2.6,Win32,60,IwAR0EYiExLoNyz0Chnc-27F3elrmreO99-FQdgmw-aBQB0uyjA8bh53CpzJs,,,,,,,,,,,
,,,,,,,,,,,,,,a,0,0.66986,space,1.48452,0,179,179,34,1,3_dist_red/trial10.png,,,1,3,redHorizontal,p,54,21,female,2021-02-17_16h57.09.628,exp11,2020.2.6,Win32,60,IwAR0EYiExLoNyz0Chnc-27F3elrmreO99-FQdgmw-aBQB0uyjA8bh53CpzJs,,,,,,,,,,,
,,,,,,,,,,,,,,a,1,0.740655,space,0.113465,0,180,180,171,1,0_targ_10_dist_red/trial22.png,,,0,10,redHorizontal,a,54,21,female,2021-02-17_16h57.09.628,exp11,2020.2.6,Win32,60,IwAR0EYiExLoNyz0Chnc-27F3elrmreO99-FQdgmw-aBQB0uyjA8bh53CpzJs,,,,,,,,,,,
,,,,,,,,,,,,,,a,1,0.79586,space,0.52218,0,181,181,177,1,0_targ_16_dist_red/trial3.png,,,0,16,redHorizontal,a,54,21,female,2021-02-17_16h57.09.628,exp11,2020.2.6,Win32,60,IwAR0EYiExLoNyz0Chnc-27F3elrmreO99-FQdgmw-aBQB0uyjA8bh53CpzJs,,,,,,,,,,,
,,,,,,,,,,,,,,p,1,0.55648,space,0.23629,0,182,182,5,1,0_dist_red/trial6.png,,,1,0,redHorizontal,p,54,21,female,2021-02-17_16h57.09.628,exp11,2020.2.6,Win32,60,IwAR0EYiExLoNyz0Chnc-27F3elrmreO99-FQdgmw-aBQB0uyjA8bh53CpzJs,,,,,,,,,,,
,,,,,,,,,,,,,,p,1,0.49828,space,0.227215,0,183,183,82,1,15_dist_red/trial8.png,,,1,15,redHorizontal,p,54,21,female,2021-02-17_16h57.09.628,exp11,2020.2.6,Win32,60,IwAR0EYiExLoNyz0Chnc-27F3elrmreO99-FQdgmw-aBQB0uyjA8bh53CpzJs,,,,,,,,,,,
,,,,,,,,,,,,,,a,1,0.64586,space,0.12523,0,184,184,112,1,0_targ_1_dist_red/trial13.png,,,0,1,redHorizontal,a,54,21,female,2021-02-17_16h57.09.628,exp11,2020.2.6,Win32,60,IwAR0EYiExLoNyz0Chnc-27F3elrmreO99-FQdgmw-aBQB0uyjA8bh53CpzJs,,,,,,,,,,,
,,,,,,,,,,,,,,p,1,0.982045,space,0.14357,0,185,185,59,1,9_dist_red/trial10.png,,,1,9,redHorizontal,p,54,21,female,2021-02-17_16h57.09.628,exp11,2020.2.6,Win32,60,IwAR0EYiExLoNyz0Chnc-27F3elrmreO99-FQdgmw-aBQB0uyjA8bh53CpzJs,,,,,,,,,,,
,,,,,,,,,,,,,,p,1,0.57846,space,0.135165,0,186,186,47,1,3_dist_red/trial23.png,,,1,3,redHorizontal,p,54,21,female,2021-02-17_16h57.09.628,exp11,2020.2.6,Win32,60,IwAR0EYiExLoNyz0Chnc-27F3elrmreO99-FQdgmw-aBQB0uyjA8bh53CpzJs,,,,,,,,,,,
,,,,,,,,,,,,,,a,1,0.9159,space,0.43414,0,187,187,122,1,0_targ_1_dist_red/trial23.png,,,0,1,redHorizontal,a,54,21,female,2021-02-17_16h57.09.628,exp11,2020.2.6,Win32,60,IwAR0EYiExLoNyz0Chnc-27F3elrmreO99-FQdgmw-aBQB0uyjA8bh53CpzJs,,,,,,,,,,,
,,,,,,,,,,,,,,a,1,0.91273,space,0.318395,0,188,188,110,1,0_targ_1_dist_red/trial11.png,,,0,1,redHorizontal,a,54,21,female,2021-02-17_16h57.09.628,exp11,2020.2.6,Win32,60,IwAR0EYiExLoNyz0Chnc-27F3elrmreO99-FQdgmw-aBQB0uyjA8bh53CpzJs,,,,,,,,,,,
,,,,,,,,,,,,,,a,1,0.55895,space,0.331265,0,189,189,198,1,0_targ_16_dist_red/trial24.png,,,0,16,redHorizontal,a,54,21,female,2021-02-17_16h57.09.628,exp11,2020.2.6,Win32,60,IwAR0EYiExLoNyz0Chnc-27F3elrmreO99-FQdgmw-aBQB0uyjA8bh53CpzJs,,,,,,,,,,,
,,,,,,,,,,,,,,a,1,0.514425,space,0.341895,0,190,190,163,1,0_targ_10_dist_red/trial14.png,,,0,10,redHorizontal,a,54,21,female,2021-02-17_16h57.09.628,exp11,2020.2.6,Win32,60,IwAR0EYiExLoNyz0Chnc-27F3elrmreO99-FQdgmw-aBQB0uyjA8bh53CpzJs,,,,,,,,,,,
,,,,,,,,,,,,,,p,1,0.56537,space,0.333155,0,191,191,36,1,3_dist_red/trial12.png,,,1,3,redHorizontal,p,54,21,female,2021-02-17_16h57.09.628,exp11,2020.2.6,Win32,60,IwAR0EYiExLoNyz0Chnc-27F3elrmreO99-FQdgmw-aBQB0uyjA8bh53CpzJs,,,,,,,,,,,
,,,,,,,,,,,,,,a,1,0.606915,space,0.28714,0,192,192,152,1,0_targ_10_dist_red/trial3.png,,,0,10,redHorizontal,a,54,21,female,2021-02-17_16h57.09.628,exp11,2020.2.6,Win32,60,IwAR0EYiExLoNyz0Chnc-27F3elrmreO99-FQdgmw-aBQB0uyjA8bh53CpzJs,,,,,,,,,,,
,,,,,,,,,,,,,,p,1,0.5217,space,0.335165,0,193,193,22,1,0_dist_red/trial23.png,,,1,0,redHorizontal,p,54,21,female,2021-02-17_16h57.09.628,exp11,2020.2.6,Win32,60,IwAR0EYiExLoNyz0Chnc-27F3elrmreO99-FQdgmw-aBQB0uyjA8bh53CpzJs,,,,,,,,,,,
,,,,,,,,,,,,,,p,1,0.58813,space,0.301005,0,194,194,69,1,9_dist_red/trial20.png,,,1,9,redHorizontal,p,54,21,female,2021-02-17_16h57.09.628,exp11,2020.2.6,Win32,60,IwAR0EYiExLoNyz0Chnc-27F3elrmreO99-FQdgmw-aBQB0uyjA8bh53CpzJs,,,,,,,,,,,
,,,,,,,,,,,,,,p,1,0.512595,space,0.29558,0,195,195,42,1,3_dist_red/trial18.png,,,1,3,redHorizontal,p,54,21,female,2021-02-17_16h57.09.628,exp11,2020.2.6,Win32,60,IwAR0EYiExLoNyz0Chnc-27F3elrmreO99-FQdgmw-aBQB0uyjA8bh53CpzJs,,,,,,,,,,,
,,,,,,,,,,,,,,p,1,0.75367,space,0.30204,0,196,196,51,1,9_dist_red/trial2.png,,,1,9,redHorizontal,p,54,21,female,2021-02-17_16h57.09.628,exp11,2020.2.6,Win32,60,IwAR0EYiExLoNyz0Chnc-27F3elrmreO99-FQdgmw-aBQB0uyjA8bh53CpzJs,,,,,,,,,,,
,,,,,,,,,,,,,,a,1,0.760095,space,0.36826,0,197,197,182,1,0_targ_16_dist_red/trial8.png,,,0,16,redHorizontal,a,54,21,female,2021-02-17_16h57.09.628,exp11,2020.2.6,Win32,60,IwAR0EYiExLoNyz0Chnc-27F3elrmreO99-FQdgmw-aBQB0uyjA8bh53CpzJs,,,,,,,,,,,
,,,,,,,,,,,,,,a,1,0.691945,space,0.31931,0,198,198,166,1,0_targ_10_dist_red/trial17.png,,,0,10,redHorizontal,a,54,21,female,2021-02-17_16h57.09.628,exp11,2020.2.6,Win32,60,IwAR0EYiExLoNyz0Chnc-27F3elrmreO99-FQdgmw-aBQB0uyjA8bh53CpzJs,,,,,,,,,,,
,,,,,,,,,,,,,,a,1,0.62043,space,0.25359,0,199,199,153,1,0_targ_10_dist_red/trial4.png,,,0,10,redHorizontal,a,54,21,female,2021-02-17_16h57.09.628,exp11,2020.2.6,Win32,60,IwAR0EYiExLoNyz0Chnc-27F3elrmreO99-FQdgmw-aBQB0uyjA8bh53CpzJs,,,,,,,,,,,
,,,,,,,,,,,,,,,,,,,,,,,,,,,,,,,54,21,female,2021-02-17_16h57.09.628,exp11,2020.2.6,Win32,60,IwAR0EYiExLoNyz0Chnc-27F3elrmreO99-FQdgmw-aBQB0uyjA8bh53CpzJs,0,0,0,1,1,conRed.xlsx,red horizontal,Look for red horizontal bar (target) and indicate if it is present or absent in the array. If red horizontal target is present press 'p' and if absent press 'a'. Press SPACE to start.,,,
,,,,,,,,,,space,9.322725,space,0.73041,p,1,1.19499,space,0.537185,0,0,0,23,1,0_dist_green/trial24.png,,,1,0,greenverival,p,54,21,female,2021-02-17_16h57.09.628,exp11,2020.2.6,Win32,60,IwAR0EYiExLoNyz0Chnc-27F3elrmreO99-FQdgmw-aBQB0uyjA8bh53CpzJs,,,,,,,,,,,
,,,,,,,,,,,,,,p,1,0.759225,space,0.36876,0,1,1,56,1,9_dist_green/trial7.png,,,1,9,greenverival,p,54,21,female,2021-02-17_16h57.09.628,exp11,2020.2.6,Win32,60,IwAR0EYiExLoNyz0Chnc-27F3elrmreO99-FQdgmw-aBQB0uyjA8bh53CpzJs,,,,,,,,,,,
,,,,,,,,,,,,,,p,1,0.63497,space,0.234425,0,2,2,41,1,3_dist_green/trial17.png,,,1,3,greenverival,p,54,21,female,2021-02-17_16h57.09.628,exp11,2020.2.6,Win32,60,IwAR0EYiExLoNyz0Chnc-27F3elrmreO99-FQdgmw-aBQB0uyjA8bh53CpzJs,,,,,,,,,,,
,,,,,,,,,,,,,,a,1,1.112415,space,0.38715,0,3,3,177,1,0_targ_16_dist_green/trial3.png,,,0,16,greenverival,a,54,21,female,2021-02-17_16h57.09.628,exp11,2020.2.6,Win32,60,IwAR0EYiExLoNyz0Chnc-27F3elrmreO99-FQdgmw-aBQB0uyjA8bh53CpzJs,,,,,,,,,,,
,,,,,,,,,,,,,,p,1,0.607125,space,0.368435,0,4,4,24,1,0_dist_green/trial25.png,,,1,0,greenverival,p,54,21,female,2021-02-17_16h57.09.628,exp11,2020.2.6,Win32,60,IwAR0EYiExLoNyz0Chnc-27F3elrmreO99-FQdgmw-aBQB0uyjA8bh53CpzJs,,,,,,,,,,,
,,,,,,,,,,,,,,p,1,0.696855,space,0.291335,0,5,5,89,1,15_dist_green/trial15.png,,,1,15,greenverival,p,54,21,female,2021-02-17_16h57.09.628,exp11,2020.2.6,Win32,60,IwAR0EYiExLoNyz0Chnc-27F3elrmreO99-FQdgmw-aBQB0uyjA8bh53CpzJs,,,,,,,,,,,
,,,,,,,,,,,,,,p,1,0.545165,space,0.350635,0,6,6,62,1,9_dist_green/trial13.png,,,1,9,greenverival,p,54,21,female,2021-02-17_16h57.09.628,exp11,2020.2.6,Win32,60,IwAR0EYiExLoNyz0Chnc-27F3elrmreO99-FQdgmw-aBQB0uyjA8bh53CpzJs,,,,,,,,,,,
,,,,,,,,,,,,,,p,1,0.5203,space,0.3335,0,7,7,0,1,0_dist_green/trial1.png,,,1,0,greenverival,p,54,21,female,2021-02-17_16h57.09.628,exp11,2020.2.6,Win32,60,IwAR0EYiExLoNyz0Chnc-27F3elrmreO99-FQdgmw-aBQB0uyjA8bh53CpzJs,,,,,,,,,,,
,,,,,,,,,,,,,,a,1,0.809465,space,0.44,0,8,8,183,1,0_targ_16_dist_green/trial9.png,,,0,16,greenverival,a,54,21,female,2021-02-17_16h57.09.628,exp11,2020.2.6,Win32,60,IwAR0EYiExLoNyz0Chnc-27F3elrmreO99-FQdgmw-aBQB0uyjA8bh53CpzJs,,,,,,,,,,,
,,,,,,,,,,,,,,p,1,0.588375,space,0.317465,0,9,9,8,1,0_dist_green/trial9.png,,,1,0,greenverival,p,54,21,female,2021-02-17_16h57.09.628,exp11,2020.2.6,Win32,60,IwAR0EYiExLoNyz0Chnc-27F3elrmreO99-FQdgmw-aBQB0uyjA8bh53CpzJs,,,,,,,,,,,
,,,,,,,,,,,,,,a,1,0.70777,space,0.277805,0,10,10,132,1,0_targ_4_dist_green/trial8.png,,,0,4,greenverival,a,54,21,female,2021-02-17_16h57.09.628,exp11,2020.2.6,Win32,60,IwAR0EYiExLoNyz0Chnc-27F3elrmreO99-FQdgmw-aBQB0uyjA8bh53CpzJs,,,,,,,,,,,
,,,,,,,,,,,,,,p,1,0.75075,space,0.20096,0,11,11,40,1,3_dist_green/trial16.png,,,1,3,greenverival,p,54,21,female,2021-02-17_16h57.09.628,exp11,2020.2.6,Win32,60,IwAR0EYiExLoNyz0Chnc-27F3elrmreO99-FQdgmw-aBQB0uyjA8bh53CpzJs,,,,,,,,,,,
,,,,,,,,,,,,,,p,1,0.741085,space,0.250365,0,12,12,67,1,9_dist_green/trial18.png,,,1,9,greenverival,p,54,21,female,2021-02-17_16h57.09.628,exp11,2020.2.6,Win32,60,IwAR0EYiExLoNyz0Chnc-27F3elrmreO99-FQdgmw-aBQB0uyjA8bh53CpzJs,,,,,,,,,,,
,,,,,,,,,,,,,,p,1,0.83923,space,0.156545,0,13,13,25,1,3_dist_green/trial1.png,,,1,3,greenverival,p,54,21,female,2021-02-17_16h57.09.628,exp11,2020.2.6,Win32,60,IwAR0EYiExLoNyz0Chnc-27F3elrmreO99-FQdgmw-aBQB0uyjA8bh53CpzJs,,,,,,,,,,,
,,,,,,,,,,,,,,a,1,0.71832,space,0.141535,0,14,14,126,1,0_targ_4_dist_green/trial2.png,,,0,4,greenverival,a,54,21,female,2021-02-17_16h57.09.628,exp11,2020.2.6,Win32,60,IwAR0EYiExLoNyz0Chnc-27F3elrmreO99-FQdgmw-aBQB0uyjA8bh53CpzJs,,,,,,,,,,,
,,,,,,,,,,,,,,a,1,0.831275,space,0.10474,0,15,15,152,1,0_targ_10_dist_green/trial3.png,,,0,10,greenverival,a,54,21,female,2021-02-17_16h57.09.628,exp11,2020.2.6,Win32,60,IwAR0EYiExLoNyz0Chnc-27F3elrmreO99-FQdgmw-aBQB0uyjA8bh53CpzJs,,,,,,,,,,,
,,,,,,,,,,,,,,p,1,0.729145,space,0.12179,0,16,16,47,1,3_dist_green/trial23.png,,,1,3,greenverival,p,54,21,female,2021-02-17_16h57.09.628,exp11,2020.2.6,Win32,60,IwAR0EYiExLoNyz0Chnc-27F3elrmreO99-FQdgmw-aBQB0uyjA8bh53CpzJs,,,,,,,,,,,
,,,,,,,,,,,,,,p,1,0.67011,space,0.13361,0,17,17,15,1,0_dist_green/trial16.png,,,1,0,greenverival,p,54,21,female,2021-02-17_16h57.09.628,exp11,2020.2.6,Win32,60,IwAR0EYiExLoNyz0Chnc-27F3elrmreO99-FQdgmw-aBQB0uyjA8bh53CpzJs,,,,,,,,,,,
,,,,,,,,,,,,,,p,1,0.72731,space,0.1464,0,18,18,51,1,9_dist_green/trial2.png,,,1,9,greenverival,p,54,21,female,2021-02-17_16h57.09.628,exp11,2020.2.6,Win32,60,IwAR0EYiExLoNyz0Chnc-27F3elrmreO99-FQdgmw-aBQB0uyjA8bh53CpzJs,,,,,,,,,,,
,,,,,,,,,,,,,,p,1,0.665145,space,0.12426,0,19,19,81,1,15_dist_green/trial7.png,,,1,15,greenverival,p,54,21,female,2021-02-17_16h57.09.628,exp11,2020.2.6,Win32,60,IwAR0EYiExLoNyz0Chnc-27F3elrmreO99-FQdgmw-aBQB0uyjA8bh53CpzJs,,,,,,,,,,,
,,,,,,,,,,,,,,a,1,0.730455,space,0.153705,0,20,20,159,1,0_targ_10_dist_green/trial10.png,,,0,10,greenverival,a,54,21,female,2021-02-17_16h57.09.628,exp11,2020.2.6,Win32,60,IwAR0EYiExLoNyz0Chnc-27F3elrmreO99-FQdgmw-aBQB0uyjA8bh53CpzJs,,,,,,,,,,,
,,,,,,,,,,,,,,a,1,0.64673,space,0.133375,0,21,21,121,1,0_targ_1_dist_green/trial22.png,,,0,1,greenverival,a,54,21,female,2021-02-17_16h57.09.628,exp11,2020.2.6,Win32,60,IwAR0EYiExLoNyz0Chnc-27F3elrmreO99-FQdgmw-aBQB0uyjA8bh53CpzJs,,,,,,,,,,,
,,,,,,,,,,,,,,a,1,0.842015,space,0.127875,0,22,22,150,1,0_targ_10_dist_green/trial1.png,,,0,10,greenverival,a,54,21,female,2021-02-17_16h57.09.628,exp11,2020.2.6,Win32,60,IwAR0EYiExLoNyz0Chnc-27F3elrmreO99-FQdgmw-aBQB0uyjA8bh53CpzJs,,,,,,,,,,,
,,,,,,,,,,,,,,a,1,0.647845,space,0.13461,0,23,23,198,1,0_targ_16_dist_green/trial24.png,,,0,16,greenverival,a,54,21,female,2021-02-17_16h57.09.628,exp11,2020.2.6,Win32,60,IwAR0EYiExLoNyz0Chnc-27F3elrmreO99-FQdgmw-aBQB0uyjA8bh53CpzJs,,,,,,,,,,,
,,,,,,,,,,,,,,a,1,0.58711,space,0.150325,0,24,24,133,1,0_targ_4_dist_green/trial9.png,,,0,4,greenverival,a,54,21,female,2021-02-17_16h57.09.628,exp11,2020.2.6,Win32,60,IwAR0EYiExLoNyz0Chnc-27F3elrmreO99-FQdgmw-aBQB0uyjA8bh53CpzJs,,,,,,,,,,,
,,,,,,,,,,,,,,a,1,0.657265,space,0.36742,0,25,25,102,1,0_targ_1_dist_green/trial3.png,,,0,1,greenverival,a,54,21,female,2021-02-17_16h57.09.628,exp11,2020.2.6,Win32,60,IwAR0EYiExLoNyz0Chnc-27F3elrmreO99-FQdgmw-aBQB0uyjA8bh53CpzJs,,,,,,,,,,,
,,,,,,,,,,,,,,a,1,0.59156,space,0.45044,0,26,26,117,1,0_targ_1_dist_green/trial18.png,,,0,1,greenverival,a,54,21,female,2021-02-17_16h57.09.628,exp11,2020.2.6,Win32,60,IwAR0EYiExLoNyz0Chnc-27F3elrmreO99-FQdgmw-aBQB0uyjA8bh53CpzJs,,,,,,,,,,,
,,,,,,,,,,,,,,a,0,0.403425,space,1.13808,0,27,27,20,1,0_dist_green/trial21.png,,,1,0,greenverival,p,54,21,female,2021-02-17_16h57.09.628,exp11,2020.2.6,Win32,60,IwAR0EYiExLoNyz0Chnc-27F3elrmreO99-FQdgmw-aBQB0uyjA8bh53CpzJs,,,,,,,,,,,
,,,,,,,,,,,,,,a,1,0.77839,space,0.162325,0,28,28,163,1,0_targ_10_dist_green/trial14.png,,,0,10,greenverival,a,54,21,female,2021-02-17_16h57.09.628,exp11,2020.2.6,Win32,60,IwAR0EYiExLoNyz0Chnc-27F3elrmreO99-FQdgmw-aBQB0uyjA8bh53CpzJs,,,,,,,,,,,
,,,,,,,,,,,,,,p,1,0.649855,space,0.11819,0,29,29,72,1,9_dist_green/trial23.png,,,1,9,greenverival,p,54,21,female,2021-02-17_16h57.09.628,exp11,2020.2.6,Win32,60,IwAR0EYiExLoNyz0Chnc-27F3elrmreO99-FQdgmw-aBQB0uyjA8bh53CpzJs,,,,,,,,,,,
,,,,,,,,,,,,,,a,1,0.677945,space,0.150415,0,30,30,136,1,0_targ_4_dist_green/trial12.png,,,0,4,greenverival,a,54,21,female,2021-02-17_16h57.09.628,exp11,2020.2.6,Win32,60,IwAR0EYiExLoNyz0Chnc-27F3elrmreO99-FQdgmw-aBQB0uyjA8bh53CpzJs,,,,,,,,,,,
,,,,,,,,,,,,,,p,1,0.68404,space,0.167075,0,31,31,27,1,3_dist_green/trial3.png,,,1,3,greenverival,p,54,21,female,2021-02-17_16h57.09.628,exp11,2020.2.6,Win32,60,IwAR0EYiExLoNyz0Chnc-27F3elrmreO99-FQdgmw-aBQB0uyjA8bh53CpzJs,,,,,,,,,,,
,,,,,,,,,,,,,,a,1,0.86795,space,0.571245,0,32,32,169,1,0_targ_10_dist_green/trial20.png,,,0,10,greenverival,a,54,21,female,2021-02-17_16h57.09.628,exp11,2020.2.6,Win32,60,IwAR0EYiExLoNyz0Chnc-27F3elrmreO99-FQdgmw-aBQB0uyjA8bh53CpzJs,,,,,,,,,,,
,,,,,,,,,,,,,,a,1,0.894385,space,0.151455,0,33,33,153,1,0_targ_10_dist_green/trial4.png,,,0,10,greenverival,a,54,21,female,2021-02-17_16h57.09.628,exp11,2020.2.6,Win32,60,IwAR0EYiExLoNyz0Chnc-27F3elrmreO99-FQdgmw-aBQB0uyjA8bh53CpzJs,,,,,,,,,,,
,,,,,,,,,,,,,,a,1,0.81045,space,0.058175,0,34,34,145,1,0_targ_4_dist_green/trial21.png,,,0,4,greenverival,a,54,21,female,2021-02-17_16h57.09.628,exp11,2020.2.6,Win32,60,IwAR0EYiExLoNyz0Chnc-27F3elrmreO99-FQdgmw-aBQB0uyjA8bh53CpzJs,,,,,,,,,,,
,,,,,,,,,,,,,,p,1,0.779,space,0.089255,0,35,35,45,1,3_dist_green/trial21.png,,,1,3,greenverival,p,54,21,female,2021-02-17_16h57.09.628,exp11,2020.2.6,Win32,60,IwAR0EYiExLoNyz0Chnc-27F3elrmreO99-FQdgmw-aBQB0uyjA8bh53CpzJs,,,,,,,,,,,
,,,,,,,,,,,,,,p,1,0.66516,space,0.110735,0,36,36,37,1,3_dist_green/trial13.png,,,1,3,greenverival,p,54,21,female,2021-02-17_16h57.09.628,exp11,2020.2.6,Win32,60,IwAR0EYiExLoNyz0Chnc-27F3elrmreO99-FQdgmw-aBQB0uyjA8bh53CpzJs,,,,,,,,,,,
,,,,,,,,,,,,,,a,1,0.568945,space,0.084665,0,37,37,149,1,0_targ_4_dist_green/trial25.png,,,0,4,greenverival,a,54,21,female,2021-02-17_16h57.09.628,exp11,2020.2.6,Win32,60,IwAR0EYiExLoNyz0Chnc-27F3elrmreO99-FQdgmw-aBQB0uyjA8bh53CpzJs,,,,,,,,,,,
,,,,,,,,,,,,,,p,1,0.540295,space,0.16928,0,38,38,43,1,3_dist_green/trial19.png,,,1,3,greenverival,p,54,21,female,2021-02-17_16h57.09.628,exp11,2020.2.6,Win32,60,IwAR0EYiExLoNyz0Chnc-27F3elrmreO99-FQdgmw-aBQB0uyjA8bh53CpzJs,,,,,,,,,,,
,,,,,,,,,,,,,,p,1,0.63007,space,0.14213,0,39,39,6,1,0_dist_green/trial7.png,,,1,0,greenverival,p,54,21,female,2021-02-17_16h57.09.628,exp11,2020.2.6,Win32,60,IwAR0EYiExLoNyz0Chnc-27F3elrmreO99-FQdgmw-aBQB0uyjA8bh53CpzJs,,,,,,,,,,,
,,,,,,,,,,,,,,p,1,0.676215,space,0.233785,0,40,40,68,1,9_dist_green/trial19.png,,,1,9,greenverival,p,54,21,female,2021-02-17_16h57.09.628,exp11,2020.2.6,Win32,60,IwAR0EYiExLoNyz0Chnc-27F3elrmreO99-FQdgmw-aBQB0uyjA8bh53CpzJs,,,,,,,,,,,
,,,,,,,,,,,,,,a,1,0.975045,space,0.14085,0,41,41,120,1,0_targ_1_dist_green/trial21.png,,,0,1,greenverival,a,54,21,female,2021-02-17_16h57.09.628,exp11,2020.2.6,Win32,60,IwAR0EYiExLoNyz0Chnc-27F3elrmreO99-FQdgmw-aBQB0uyjA8bh53CpzJs,,,,,,,,,,,
,,,,,,,,,,,,,,a,1,0.74782,space,0.151195,0,42,42,172,1,0_targ_10_dist_green/trial23.png,,,0,10,greenverival,a,54,21,female,2021-02-17_16h57.09.628,exp11,2020.2.6,Win32,60,IwAR0EYiExLoNyz0Chnc-27F3elrmreO99-FQdgmw-aBQB0uyjA8bh53CpzJs,,,,,,,,,,,
,,,,,,,,,,,,,,a,1,0.61061,space,0.1385,0,43,43,124,1,0_targ_1_dist_green/trial25.png,,,0,1,greenverival,a,54,21,female,2021-02-17_16h57.09.628,exp11,2020.2.6,Win32,60,IwAR0EYiExLoNyz0Chnc-27F3elrmreO99-FQdgmw-aBQB0uyjA8bh53CpzJs,,,,,,,,,,,
,,,,,,,,,,,,,,p,1,0.83353,space,0.188125,0,44,44,95,1,15_dist_green/trial21.png,,,1,15,greenverival,p,54,21,female,2021-02-17_16h57.09.628,exp11,2020.2.6,Win32,60,IwAR0EYiExLoNyz0Chnc-27F3elrmreO99-FQdgmw-aBQB0uyjA8bh53CpzJs,,,,,,,,,,,
,,,,,,,,,,,,,,a,1,0.979125,space,0.10359,0,45,45,191,1,0_targ_16_dist_green/trial17.png,,,0,16,greenverival,a,54,21,female,2021-02-17_16h57.09.628,exp11,2020.2.6,Win32,60,IwAR0EYiExLoNyz0Chnc-27F3elrmreO99-FQdgmw-aBQB0uyjA8bh53CpzJs,,,,,,,,,,,
,,,,,,,,,,,,,,a,1,1.076,space,0.119395,0,46,46,155,1,0_targ_10_dist_green/trial6.png,,,0,10,greenverival,a,54,21,female,2021-02-17_16h57.09.628,exp11,2020.2.6,Win32,60,IwAR0EYiExLoNyz0Chnc-27F3elrmreO99-FQdgmw-aBQB0uyjA8bh53CpzJs,,,,,,,,,,,
,,,,,,,,,,,,,,a,1,0.854095,space,0.105175,0,47,47,116,1,0_targ_1_dist_green/trial17.png,,,0,1,greenverival,a,54,21,female,2021-02-17_16h57.09.628,exp11,2020.2.6,Win32,60,IwAR0EYiExLoNyz0Chnc-27F3elrmreO99-FQdgmw-aBQB0uyjA8bh53CpzJs,,,,,,,,,,,
,,,,,,,,,,,,,,p,1,0.60887,space,0.13472,0,48,48,13,1,0_dist_green/trial14.png,,,1,0,greenverival,p,54,21,female,2021-02-17_16h57.09.628,exp11,2020.2.6,Win32,60,IwAR0EYiExLoNyz0Chnc-27F3elrmreO99-FQdgmw-aBQB0uyjA8bh53CpzJs,,,,,,,,,,,
,,,,,,,,,,,,,,a,0,0.792565,space,3.219405,0,49,49,53,1,9_dist_green/trial4.png,,,1,9,greenverival,p,54,21,female,2021-02-17_16h57.09.628,exp11,2020.2.6,Win32,60,IwAR0EYiExLoNyz0Chnc-27F3elrmreO99-FQdgmw-aBQB0uyjA8bh53CpzJs,,,,,,,,,,,
,,,,,,,,,,,,,,p,1,0.848675,space,0.33729,0,50,50,74,1,9_dist_green/trial25.png,,,1,9,greenverival,p,54,21,female,2021-02-17_16h57.09.628,exp11,2020.2.6,Win32,60,IwAR0EYiExLoNyz0Chnc-27F3elrmreO99-FQdgmw-aBQB0uyjA8bh53CpzJs,,,,,,,,,,,
,,,,,,,,,,,,,,a,1,0.60416,space,0.33464,0,51,51,107,1,0_targ_1_dist_green/trial8.png,,,0,1,greenverival,a,54,21,female,2021-02-17_16h57.09.628,exp11,2020.2.6,Win32,60,IwAR0EYiExLoNyz0Chnc-27F3elrmreO99-FQdgmw-aBQB0uyjA8bh53CpzJs,,,,,,,,,,,
,,,,,,,,,,,,,,p,1,0.489155,space,0.30022,0,52,52,14,1,0_dist_green/trial15.png,,,1,0,greenverival,p,54,21,female,2021-02-17_16h57.09.628,exp11,2020.2.6,Win32,60,IwAR0EYiExLoNyz0Chnc-27F3elrmreO99-FQdgmw-aBQB0uyjA8bh53CpzJs,,,,,,,,,,,
,,,,,,,,,,,,,,p,1,0.5996,space,0.28779,0,53,53,55,1,9_dist_green/trial6.png,,,1,9,greenverival,p,54,21,female,2021-02-17_16h57.09.628,exp11,2020.2.6,Win32,60,IwAR0EYiExLoNyz0Chnc-27F3elrmreO99-FQdgmw-aBQB0uyjA8bh53CpzJs,,,,,,,,,,,
,,,,,,,,,,,,,,p,1,0.530905,space,0.302415,0,54,54,87,1,15_dist_green/trial13.png,,,1,15,greenverival,p,54,21,female,2021-02-17_16h57.09.628,exp11,2020.2.6,Win32,60,IwAR0EYiExLoNyz0Chnc-27F3elrmreO99-FQdgmw-aBQB0uyjA8bh53CpzJs,,,,,,,,,,,
,,,,,,,,,,,,,,a,1,0.504135,space,0.325465,0,55,55,114,1,0_targ_1_dist_green/trial15.png,,,0,1,greenverival,a,54,21,female,2021-02-17_16h57.09.628,exp11,2020.2.6,Win32,60,IwAR0EYiExLoNyz0Chnc-27F3elrmreO99-FQdgmw-aBQB0uyjA8bh53CpzJs,,,,,,,,,,,
,,,,,,,,,,,,,,p,1,0.59415,space,0.32169,0,56,56,86,1,15_dist_green/trial12.png,,,1,15,greenverival,p,54,21,female,2021-02-17_16h57.09.628,exp11,2020.2.6,Win32,60,IwAR0EYiExLoNyz0Chnc-27F3elrmreO99-FQdgmw-aBQB0uyjA8bh53CpzJs,,,,,,,,,,,
,,,,,,,,,,,,,,a,1,0.68347,space,0.32876,0,57,57,142,1,0_targ_4_dist_green/trial18.png,,,0,4,greenverival,a,54,21,female,2021-02-17_16h57.09.628,exp11,2020.2.6,Win32,60,IwAR0EYiExLoNyz0Chnc-27F3elrmreO99-FQdgmw-aBQB0uyjA8bh53CpzJs,,,,,,,,,,,
,,,,,,,,,,,,,,p,1,0.545935,space,0.33624,0,58,58,57,1,9_dist_green/trial8.png,,,1,9,greenverival,p,54,21,female,2021-02-17_16h57.09.628,exp11,2020.2.6,Win32,60,IwAR0EYiExLoNyz0Chnc-27F3elrmreO99-FQdgmw-aBQB0uyjA8bh53CpzJs,,,,,,,,,,,
,,,,,,,,,,,,,,a,1,0.948145,space,0.287385,0,59,59,112,1,0_targ_1_dist_green/trial13.png,,,0,1,greenverival,a,54,21,female,2021-02-17_16h57.09.628,exp11,2020.2.6,Win32,60,IwAR0EYiExLoNyz0Chnc-27F3elrmreO99-FQdgmw-aBQB0uyjA8bh53CpzJs,,,,,,,,,,,
,,,,,,,,,,,,,,p,1,1.31444,space,0.32546,0,60,60,28,1,3_dist_green/trial4.png,,,1,3,greenverival,p,54,21,female,2021-02-17_16h57.09.628,exp11,2020.2.6,Win32,60,IwAR0EYiExLoNyz0Chnc-27F3elrmreO99-FQdgmw-aBQB0uyjA8bh53CpzJs,,,,,,,,,,,
,,,,,,,,,,,,,,p,1,0.64946,space,0.353155,0,61,61,52,1,9_dist_green/trial3.png,,,1,9,greenverival,p,54,21,female,2021-02-17_16h57.09.628,exp11,2020.2.6,Win32,60,IwAR0EYiExLoNyz0Chnc-27F3elrmreO99-FQdgmw-aBQB0uyjA8bh53CpzJs,,,,,,,,,,,
,,,,,,,,,,,,,,p,1,0.64467,space,0.36792,0,62,62,3,1,0_dist_green/trial4.png,,,1,0,greenverival,p,54,21,female,2021-02-17_16h57.09.628,exp11,2020.2.6,Win32,60,IwAR0EYiExLoNyz0Chnc-27F3elrmreO99-FQdgmw-aBQB0uyjA8bh53CpzJs,,,,,,,,,,,
,,,,,,,,,,,,,,a,1,1.09583,space,0.33527,0,63,63,182,1,0_targ_16_dist_green/trial8.png,,,0,16,greenverival,a,54,21,female,2021-02-17_16h57.09.628,exp11,2020.2.6,Win32,60,IwAR0EYiExLoNyz0Chnc-27F3elrmreO99-FQdgmw-aBQB0uyjA8bh53CpzJs,,,,,,,,,,,
,,,,,,,,,,,,,,p,1,1.07651,space,0.305435,0,64,64,85,1,15_dist_green/trial11.png,,,1,15,greenverival,p,54,21,female,2021-02-17_16h57.09.628,exp11,2020.2.6,Win32,60,IwAR0EYiExLoNyz0Chnc-27F3elrmreO99-FQdgmw-aBQB0uyjA8bh53CpzJs,,,,,,,,,,,
,,,,,,,,,,,,,,a,1,0.670975,space,0.32292,0,65,65,156,1,0_targ_10_dist_green/trial7.png,,,0,10,greenverival,a,54,21,female,2021-02-17_16h57.09.628,exp11,2020.2.6,Win32,60,IwAR0EYiExLoNyz0Chnc-27F3elrmreO99-FQdgmw-aBQB0uyjA8bh53CpzJs,,,,,,,,,,,
,,,,,,,,,,,,,,a,1,0.64931,space,0.313195,0,66,66,197,1,0_targ_16_dist_green/trial23.png,,,0,16,greenverival,a,54,21,female,2021-02-17_16h57.09.628,exp11,2020.2.6,Win32,60,IwAR0EYiExLoNyz0Chnc-27F3elrmreO99-FQdgmw-aBQB0uyjA8bh53CpzJs,,,,,,,,,,,
,,,,,,,,,,,,,,a,1,0.698805,space,0.300975,0,67,67,190,1,0_targ_16_dist_green/trial16.png,,,0,16,greenverival,a,54,21,female,2021-02-17_16h57.09.628,exp11,2020.2.6,Win32,60,IwAR0EYiExLoNyz0Chnc-27F3elrmreO99-FQdgmw-aBQB0uyjA8bh53CpzJs,,,,,,,,,,,
,,,,,,,,,,,,,,p,1,1.106485,space,0.38563,0,68,68,39,1,3_dist_green/trial15.png,,,1,3,greenverival,p,54,21,female,2021-02-17_16h57.09.628,exp11,2020.2.6,Win32,60,IwAR0EYiExLoNyz0Chnc-27F3elrmreO99-FQdgmw-aBQB0uyjA8bh53CpzJs,,,,,,,,,,,
,,,,,,,,,,,,,,a,1,1.42015,space,0.418255,0,69,69,111,1,0_targ_1_dist_green/trial12.png,,,0,1,greenverival,a,54,21,female,2021-02-17_16h57.09.628,exp11,2020.2.6,Win32,60,IwAR0EYiExLoNyz0Chnc-27F3elrmreO99-FQdgmw-aBQB0uyjA8bh53CpzJs,,,,,,,,,,,
,,,,,,,,,,,,,,a,1,0.986725,space,0.419335,0,70,70,184,1,0_targ_16_dist_green/trial10.png,,,0,16,greenverival,a,54,21,female,2021-02-17_16h57.09.628,exp11,2020.2.6,Win32,60,IwAR0EYiExLoNyz0Chnc-27F3elrmreO99-FQdgmw-aBQB0uyjA8bh53CpzJs,,,,,,,,,,,
,,,,,,,,,,,,,,a,1,0.73661,space,0.352635,0,71,71,127,1,0_targ_4_dist_green/trial3.png,,,0,4,greenverival,a,54,21,female,2021-02-17_16h57.09.628,exp11,2020.2.6,Win32,60,IwAR0EYiExLoNyz0Chnc-27F3elrmreO99-FQdgmw-aBQB0uyjA8bh53CpzJs,,,,,,,,,,,
,,,,,,,,,,,,,,p,1,0.73506,space,0.35124,0,72,72,5,1,0_dist_green/trial6.png,,,1,0,greenverival,p,54,21,female,2021-02-17_16h57.09.628,exp11,2020.2.6,Win32,60,IwAR0EYiExLoNyz0Chnc-27F3elrmreO99-FQdgmw-aBQB0uyjA8bh53CpzJs,,,,,,,,,,,
,,,,,,,,,,,,,,a,1,0.977775,space,0.317705,0,73,73,189,1,0_targ_16_dist_green/trial15.png,,,0,16,greenverival,a,54,21,female,2021-02-17_16h57.09.628,exp11,2020.2.6,Win32,60,IwAR0EYiExLoNyz0Chnc-27F3elrmreO99-FQdgmw-aBQB0uyjA8bh53CpzJs,,,,,,,,,,,
,,,,,,,,,,,,,,p,1,1.0678,space,0.366595,0,74,74,58,1,9_dist_green/trial9.png,,,1,9,greenverival,p,54,21,female,2021-02-17_16h57.09.628,exp11,2020.2.6,Win32,60,IwAR0EYiExLoNyz0Chnc-27F3elrmreO99-FQdgmw-aBQB0uyjA8bh53CpzJs,,,,,,,,,,,
,,,,,,,,,,,,,,a,1,0.65122,space,0.340455,0,75,75,154,1,0_targ_10_dist_green/trial5.png,,,0,10,greenverival,a,54,21,female,2021-02-17_16h57.09.628,exp11,2020.2.6,Win32,60,IwAR0EYiExLoNyz0Chnc-27F3elrmreO99-FQdgmw-aBQB0uyjA8bh53CpzJs,,,,,,,,,,,
,,,,,,,,,,,,,,a,1,0.68526,space,0.317635,0,76,76,128,1,0_targ_4_dist_green/trial4.png,,,0,4,greenverival,a,54,21,female,2021-02-17_16h57.09.628,exp11,2020.2.6,Win32,60,IwAR0EYiExLoNyz0Chnc-27F3elrmreO99-FQdgmw-aBQB0uyjA8bh53CpzJs,,,,,,,,,,,
,,,,,,,,,,,,,,p,1,0.641805,space,0.367915,0,77,77,84,1,15_dist_green/trial10.png,,,1,15,greenverival,p,54,21,female,2021-02-17_16h57.09.628,exp11,2020.2.6,Win32,60,IwAR0EYiExLoNyz0Chnc-27F3elrmreO99-FQdgmw-aBQB0uyjA8bh53CpzJs,,,,,,,,,,,
,,,,,,,,,,,,,,a,1,0.62584,space,0.30444,0,78,78,186,1,0_targ_16_dist_green/trial12.png,,,0,16,greenverival,a,54,21,female,2021-02-17_16h57.09.628,exp11,2020.2.6,Win32,60,IwAR0EYiExLoNyz0Chnc-27F3elrmreO99-FQdgmw-aBQB0uyjA8bh53CpzJs,,,,,,,,,,,
,,,,,,,,,,,,,,a,1,0.6349,space,0.303625,0,79,79,143,1,0_targ_4_dist_green/trial19.png,,,0,4,greenverival,a,54,21,female,2021-02-17_16h57.09.628,exp11,2020.2.6,Win32,60,IwAR0EYiExLoNyz0Chnc-27F3elrmreO99-FQdgmw-aBQB0uyjA8bh53CpzJs,,,,,,,,,,,
,,,,,,,,,,,,,,p,1,0.563235,space,0.316675,0,80,80,21,1,0_dist_green/trial22.png,,,1,0,greenverival,p,54,21,female,2021-02-17_16h57.09.628,exp11,2020.2.6,Win32,60,IwAR0EYiExLoNyz0Chnc-27F3elrmreO99-FQdgmw-aBQB0uyjA8bh53CpzJs,,,,,,,,,,,
,,,,,,,,,,,,,,a,1,0.57691,space,0.242425,0,81,81,134,1,0_targ_4_dist_green/trial10.png,,,0,4,greenverival,a,54,21,female,2021-02-17_16h57.09.628,exp11,2020.2.6,Win32,60,IwAR0EYiExLoNyz0Chnc-27F3elrmreO99-FQdgmw-aBQB0uyjA8bh53CpzJs,,,,,,,,,,,
,,,,,,,,,,,,,,p,1,0.87031,space,0.324855,0,82,82,80,1,15_dist_green/trial6.png,,,1,15,greenverival,p,54,21,female,2021-02-17_16h57.09.628,exp11,2020.2.6,Win32,60,IwAR0EYiExLoNyz0Chnc-27F3elrmreO99-FQdgmw-aBQB0uyjA8bh53CpzJs,,,,,,,,,,,
,,,,,,,,,,,,,,p,1,0.474685,space,0.300365,0,83,83,69,1,9_dist_green/trial20.png,,,1,9,greenverival,p,54,21,female,2021-02-17_16h57.09.628,exp11,2020.2.6,Win32,60,IwAR0EYiExLoNyz0Chnc-27F3elrmreO99-FQdgmw-aBQB0uyjA8bh53CpzJs,,,,,,,,,,,
,,,,,,,,,,,,,,p,1,0.778045,space,0.278485,0,84,84,54,1,9_dist_green/trial5.png,,,1,9,greenverival,p,54,21,female,2021-02-17_16h57.09.628,exp11,2020.2.6,Win32,60,IwAR0EYiExLoNyz0Chnc-27F3elrmreO99-FQdgmw-aBQB0uyjA8bh53CpzJs,,,,,,,,,,,
,,,,,,,,,,,,,,p,1,0.478045,space,0.25791,0,85,85,98,1,15_dist_green/trial24.png,,,1,15,greenverival,p,54,21,female,2021-02-17_16h57.09.628,exp11,2020.2.6,Win32,60,IwAR0EYiExLoNyz0Chnc-27F3elrmreO99-FQdgmw-aBQB0uyjA8bh53CpzJs,,,,,,,,,,,
,,,,,,,,,,,,,,p,1,0.515795,space,0.300675,0,86,86,61,1,9_dist_green/trial12.png,,,1,9,greenverival,p,54,21,female,2021-02-17_16h57.09.628,exp11,2020.2.6,Win32,60,IwAR0EYiExLoNyz0Chnc-27F3elrmreO99-FQdgmw-aBQB0uyjA8bh53CpzJs,,,,,,,,,,,
,,,,,,,,,,,,,,a,1,0.86213,space,0.20855,0,87,87,194,1,0_targ_16_dist_green/trial20.png,,,0,16,greenverival,a,54,21,female,2021-02-17_16h57.09.628,exp11,2020.2.6,Win32,60,IwAR0EYiExLoNyz0Chnc-27F3elrmreO99-FQdgmw-aBQB0uyjA8bh53CpzJs,,,,,,,,,,,
,,,,,,,,,,,,,,p,1,0.5485,space,0.17145,0,88,88,11,1,0_dist_green/trial12.png,,,1,0,greenverival,p,54,21,female,2021-02-17_16h57.09.628,exp11,2020.2.6,Win32,60,IwAR0EYiExLoNyz0Chnc-27F3elrmreO99-FQdgmw-aBQB0uyjA8bh53CpzJs,,,,,,,,,,,
,,,,,,,,,,,,,,a,1,0.557765,space,0.1837,0,89,89,130,1,0_targ_4_dist_green/trial6.png,,,0,4,greenverival,a,54,21,female,2021-02-17_16h57.09.628,exp11,2020.2.6,Win32,60,IwAR0EYiExLoNyz0Chnc-27F3elrmreO99-FQdgmw-aBQB0uyjA8bh53CpzJs,,,,,,,,,,,
,,,,,,,,,,,,,,a,1,0.495175,space,0.323365,0,90,90,140,1,0_targ_4_dist_green/trial6.png,,,0,4,greenverival,a,54,21,female,2021-02-17_16h57.09.628,exp11,2020.2.6,Win32,60,IwAR0EYiExLoNyz0Chnc-27F3elrmreO99-FQdgmw-aBQB0uyjA8bh53CpzJs,,,,,,,,,,,
,,,,,,,,,,,,,,a,1,0.60876,space,0.33486,0,91,91,162,1,0_targ_10_dist_green/trial13.png,,,0,10,greenverival,a,54,21,female,2021-02-17_16h57.09.628,exp11,2020.2.6,Win32,60,IwAR0EYiExLoNyz0Chnc-27F3elrmreO99-FQdgmw-aBQB0uyjA8bh53CpzJs,,,,,,,,,,,
,,,,,,,,,,,,,,p,1,0.567165,space,0.27098,0,92,92,18,1,0_dist_green/trial19.png,,,1,0,greenverival,p,54,21,female,2021-02-17_16h57.09.628,exp11,2020.2.6,Win32,60,IwAR0EYiExLoNyz0Chnc-27F3elrmreO99-FQdgmw-aBQB0uyjA8bh53CpzJs,,,,,,,,,,,
,,,,,,,,,,,,,,p,1,0.874325,space,0.333885,0,93,93,79,1,15_dist_green/trial5.png,,,1,15,greenverival,p,54,21,female,2021-02-17_16h57.09.628,exp11,2020.2.6,Win32,60,IwAR0EYiExLoNyz0Chnc-27F3elrmreO99-FQdgmw-aBQB0uyjA8bh53CpzJs,,,,,,,,,,,
,,,,,,,,,,,,,,a,1,0.588235,space,0.324395,0,94,94,135,1,0_targ_4_dist_green/trial11.png,,,0,4,greenverival,a,54,21,female,2021-02-17_16h57.09.628,exp11,2020.2.6,Win32,60,IwAR0EYiExLoNyz0Chnc-27F3elrmreO99-FQdgmw-aBQB0uyjA8bh53CpzJs,,,,,,,,,,,
,,,,,,,,,,,,,,p,1,0.626365,space,0.34171,0,95,95,34,1,3_dist_green/trial10.png,,,1,3,greenverival,p,54,21,female,2021-02-17_16h57.09.628,exp11,2020.2.6,Win32,60,IwAR0EYiExLoNyz0Chnc-27F3elrmreO99-FQdgmw-aBQB0uyjA8bh53CpzJs,,,,,,,,,,,
,,,,,,,,,,,,,,p,1,0.586365,space,0.31056,0,96,96,16,1,0_dist_green/trial17.png,,,1,0,greenverival,p,54,21,female,2021-02-17_16h57.09.628,exp11,2020.2.6,Win32,60,IwAR0EYiExLoNyz0Chnc-27F3elrmreO99-FQdgmw-aBQB0uyjA8bh53CpzJs,,,,,,,,,,,
,,,,,,,,,,,,,,a,1,0.4542,space,0.27492,0,97,97,122,1,0_targ_1_dist_green/trial23.png,,,0,1,greenverival,a,54,21,female,2021-02-17_16h57.09.628,exp11,2020.2.6,Win32,60,IwAR0EYiExLoNyz0Chnc-27F3elrmreO99-FQdgmw-aBQB0uyjA8bh53CpzJs,,,,,,,,,,,
,,,,,,,,,,,,,,a,1,0.82766,space,0.315685,0,98,98,161,1,0_targ_10_dist_green/trial12.png,,,0,10,greenverival,a,54,21,female,2021-02-17_16h57.09.628,exp11,2020.2.6,Win32,60,IwAR0EYiExLoNyz0Chnc-27F3elrmreO99-FQdgmw-aBQB0uyjA8bh53CpzJs,,,,,,,,,,,
,,,,,,,,,,,,,,p,1,0.594215,space,0.291285,0,99,99,71,1,9_dist_green/trial22.png,,,1,9,greenverival,p,54,21,female,2021-02-17_16h57.09.628,exp11,2020.2.6,Win32,60,IwAR0EYiExLoNyz0Chnc-27F3elrmreO99-FQdgmw-aBQB0uyjA8bh53CpzJs,,,,,,,,,,,
,,,,,,,,,,,,,,p,1,0.682185,space,0.325275,0,100,100,65,1,9_dist_green/trial16.png,,,1,9,greenverival,p,54,21,female,2021-02-17_16h57.09.628,exp11,2020.2.6,Win32,60,IwAR0EYiExLoNyz0Chnc-27F3elrmreO99-FQdgmw-aBQB0uyjA8bh53CpzJs,,,,,,,,,,,
,,,,,,,,,,,,,,p,1,0.499825,space,0.33961,0,101,101,7,1,0_dist_green/trial8.png,,,1,0,greenverival,p,54,21,female,2021-02-17_16h57.09.628,exp11,2020.2.6,Win32,60,IwAR0EYiExLoNyz0Chnc-27F3elrmreO99-FQdgmw-aBQB0uyjA8bh53CpzJs,,,,,,,,,,,
,,,,,,,,,,,,,,a,1,0.52759,space,0.267715,0,102,102,123,1,0_targ_1_dist_green/trial24.png,,,0,1,greenverival,a,54,21,female,2021-02-17_16h57.09.628,exp11,2020.2.6,Win32,60,IwAR0EYiExLoNyz0Chnc-27F3elrmreO99-FQdgmw-aBQB0uyjA8bh53CpzJs,,,,,,,,,,,
,,,,,,,,,,,,,,a,1,0.562675,space,0.189765,0,103,103,148,1,0_targ_4_dist_green/trial24.png,,,0,4,greenverival,a,54,21,female,2021-02-17_16h57.09.628,exp11,2020.2.6,Win32,60,IwAR0EYiExLoNyz0Chnc-27F3elrmreO99-FQdgmw-aBQB0uyjA8bh53CpzJs,,,,,,,,,,,
,,,,,,,,,,,,,,a,1,0.635535,space,0.12482,0,104,104,151,1,0_targ_10_dist_green/trial2.png,,,0,10,greenverival,a,54,21,female,2021-02-17_16h57.09.628,exp11,2020.2.6,Win32,60,IwAR0EYiExLoNyz0Chnc-27F3elrmreO99-FQdgmw-aBQB0uyjA8bh53CpzJs,,,,,,,,,,,
,,,,,,,,,,,,,,a,1,0.77768,space,0.104855,0,105,105,175,1,0_targ_16_dist_green/trial1.png,,,0,16,greenverival,a,54,21,female,2021-02-17_16h57.09.628,exp11,2020.2.6,Win32,60,IwAR0EYiExLoNyz0Chnc-27F3elrmreO99-FQdgmw-aBQB0uyjA8bh53CpzJs,,,,,,,,,,,
,,,,,,,,,,,,,,a,1,0.644055,space,0.13633,0,106,106,147,1,0_targ_4_dist_green/trial23.png,,,0,4,greenverival,a,54,21,female,2021-02-17_16h57.09.628,exp11,2020.2.6,Win32,60,IwAR0EYiExLoNyz0Chnc-27F3elrmreO99-FQdgmw-aBQB0uyjA8bh53CpzJs,,,,,,,,,,,
,,,,,,,,,,,,,,p,1,0.63265,space,0.217315,0,107,107,83,1,15_dist_green/trial9.png,,,1,15,greenverival,p,54,21,female,2021-02-17_16h57.09.628,exp11,2020.2.6,Win32,60,IwAR0EYiExLoNyz0Chnc-27F3elrmreO99-FQdgmw-aBQB0uyjA8bh53CpzJs,,,,,,,,,,,
,,,,,,,,,,,,,,a,1,0.654315,space,0.135465,0,108,108,108,1,0_targ_1_dist_green/trial9.png,,,0,1,greenverival,a,54,21,female,2021-02-17_16h57.09.628,exp11,2020.2.6,Win32,60,IwAR0EYiExLoNyz0Chnc-27F3elrmreO99-FQdgmw-aBQB0uyjA8bh53CpzJs,,,,,,,,,,,
,,,,,,,,,,,,,,p,1,0.616485,space,0.174455,0,109,109,33,1,3_dist_green/trial9.png,,,1,3,greenverival,p,54,21,female,2021-02-17_16h57.09.628,exp11,2020.2.6,Win32,60,IwAR0EYiExLoNyz0Chnc-27F3elrmreO99-FQdgmw-aBQB0uyjA8bh53CpzJs,,,,,,,,,,,
,,,,,,,,,,,,,,a,1,0.832465,space,0.21849,0,110,110,179,1,0_targ_16_dist_green/trial5.png,,,0,16,greenverival,a,54,21,female,2021-02-17_16h57.09.628,exp11,2020.2.6,Win32,60,IwAR0EYiExLoNyz0Chnc-27F3elrmreO99-FQdgmw-aBQB0uyjA8bh53CpzJs,,,,,,,,,,,
,,,,,,,,,,,,,,a,1,0.69214,space,0.118,0,111,111,188,1,0_targ_16_dist_green/trial14.png,,,0,16,greenverival,a,54,21,female,2021-02-17_16h57.09.628,exp11,2020.2.6,Win32,60,IwAR0EYiExLoNyz0Chnc-27F3elrmreO99-FQdgmw-aBQB0uyjA8bh53CpzJs,,,,,,,,,,,
,,,,,,,,,,,,,,a,1,0.56653,space,0.151525,0,112,112,157,1,0_targ_10_dist_green/trial8.png,,,0,10,greenverival,a,54,21,female,2021-02-17_16h57.09.628,exp11,2020.2.6,Win32,60,IwAR0EYiExLoNyz0Chnc-27F3elrmreO99-FQdgmw-aBQB0uyjA8bh53CpzJs,,,,,,,,,,,
,,,,,,,,,,,,,,p,1,0.592175,space,0.150585,0,113,113,49,1,3_dist_green/trial25.png,,,1,3,greenverival,p,54,21,female,2021-02-17_16h57.09.628,exp11,2020.2.6,Win32,60,IwAR0EYiExLoNyz0Chnc-27F3elrmreO99-FQdgmw-aBQB0uyjA8bh53CpzJs,,,,,,,,,,,
,,,,,,,,,,,,,,a,1,0.574085,space,0.115405,0,114,114,137,1,0_targ_4_dist_green/trial13.png,,,0,4,greenverival,a,54,21,female,2021-02-17_16h57.09.628,exp11,2020.2.6,Win32,60,IwAR0EYiExLoNyz0Chnc-27F3elrmreO99-FQdgmw-aBQB0uyjA8bh53CpzJs,,,,,,,,,,,
,,,,,,,,,,,,,,p,1,0.50816,space,0.121925,0,115,115,63,1,9_dist_green/trial14.png,,,1,9,greenverival,p,54,21,female,2021-02-17_16h57.09.628,exp11,2020.2.6,Win32,60,IwAR0EYiExLoNyz0Chnc-27F3elrmreO99-FQdgmw-aBQB0uyjA8bh53CpzJs,,,,,,,,,,,
,,,,,,,,,,,,,,a,1,0.564695,space,0.117835,0,116,116,146,1,0_targ_4_dist_green/trial22.png,,,0,4,greenverival,a,54,21,female,2021-02-17_16h57.09.628,exp11,2020.2.6,Win32,60,IwAR0EYiExLoNyz0Chnc-27F3elrmreO99-FQdgmw-aBQB0uyjA8bh53CpzJs,,,,,,,,,,,
,,,,,,,,,,,,,,a,1,0.78947,space,0.106315,0,117,117,185,1,0_targ_16_dist_green/trial11.png,,,0,16,greenverival,a,54,21,female,2021-02-17_16h57.09.628,exp11,2020.2.6,Win32,60,IwAR0EYiExLoNyz0Chnc-27F3elrmreO99-FQdgmw-aBQB0uyjA8bh53CpzJs,,,,,,,,,,,
,,,,,,,,,,,,,,a,1,0.59364,space,0.138205,0,118,118,138,1,0_targ_4_dist_green/trial14.png,,,0,4,greenverival,a,54,21,female,2021-02-17_16h57.09.628,exp11,2020.2.6,Win32,60,IwAR0EYiExLoNyz0Chnc-27F3elrmreO99-FQdgmw-aBQB0uyjA8bh53CpzJs,,,,,,,,,,,
,,,,,,,,,,,,,,p,1,0.564015,space,0.135055,0,119,119,2,1,0_dist_green/trial3.png,,,1,0,greenverival,p,54,21,female,2021-02-17_16h57.09.628,exp11,2020.2.6,Win32,60,IwAR0EYiExLoNyz0Chnc-27F3elrmreO99-FQdgmw-aBQB0uyjA8bh53CpzJs,,,,,,,,,,,
,,,,,,,,,,,,,,a,1,0.45253,space,0.59993,0,120,120,118,1,0_targ_1_dist_green/trial19.png,,,0,1,greenverival,a,54,21,female,2021-02-17_16h57.09.628,exp11,2020.2.6,Win32,60,IwAR0EYiExLoNyz0Chnc-27F3elrmreO99-FQdgmw-aBQB0uyjA8bh53CpzJs,,,,,,,,,,,
,,,,,,,,,,,,,,a,1,0.62687,space,0.253795,0,121,121,105,1,0_targ_1_dist_green/trial6.png,,,0,1,greenverival,a,54,21,female,2021-02-17_16h57.09.628,exp11,2020.2.6,Win32,60,IwAR0EYiExLoNyz0Chnc-27F3elrmreO99-FQdgmw-aBQB0uyjA8bh53CpzJs,,,,,,,,,,,
,,,,,,,,,,,,,,a,1,0.527955,space,0.24378,0,122,122,178,1,0_targ_16_dist_green/trial4.png,,,0,16,greenverival,a,54,21,female,2021-02-17_16h57.09.628,exp11,2020.2.6,Win32,60,IwAR0EYiExLoNyz0Chnc-27F3elrmreO99-FQdgmw-aBQB0uyjA8bh53CpzJs,,,,,,,,,,,
,,,,,,,,,,,,,,p,1,0.650215,space,0.334025,0,123,123,30,1,3_dist_green/trial6.png,,,1,3,greenverival,p,54,21,female,2021-02-17_16h57.09.628,exp11,2020.2.6,Win32,60,IwAR0EYiExLoNyz0Chnc-27F3elrmreO99-FQdgmw-aBQB0uyjA8bh53CpzJs,,,,,,,,,,,
,,,,,,,,,,,,,,p,1,0.87965,space,0.303055,0,124,124,97,1,15_dist_green/trial23.png,,,1,15,greenverival,p,54,21,female,2021-02-17_16h57.09.628,exp11,2020.2.6,Win32,60,IwAR0EYiExLoNyz0Chnc-27F3elrmreO99-FQdgmw-aBQB0uyjA8bh53CpzJs,,,,,,,,,,,
,,,,,,,,,,,,,,a,1,1.101935,space,0.234635,0,125,125,199,1,0_targ_16_dist_green/trial25.png,,,0,16,greenverival,a,54,21,female,2021-02-17_16h57.09.628,exp11,2020.2.6,Win32,60,IwAR0EYiExLoNyz0Chnc-27F3elrmreO99-FQdgmw-aBQB0uyjA8bh53CpzJs,,,,,,,,,,,
,,,,,,,,,,,,,,p,1,0.57587,space,0.26795,0,126,126,60,1,9_dist_green/trial11.png,,,1,9,greenverival,p,54,21,female,2021-02-17_16h57.09.628,exp11,2020.2.6,Win32,60,IwAR0EYiExLoNyz0Chnc-27F3elrmreO99-FQdgmw-aBQB0uyjA8bh53CpzJs,,,,,,,,,,,
,,,,,,,,,,,,,,a,1,0.531345,space,0.15149,0,127,127,115,1,0_targ_1_dist_green/trial6.png,,,0,1,greenverival,a,54,21,female,2021-02-17_16h57.09.628,exp11,2020.2.6,Win32,60,IwAR0EYiExLoNyz0Chnc-27F3elrmreO99-FQdgmw-aBQB0uyjA8bh53CpzJs,,,,,,,,,,,
,,,,,,,,,,,,,,a,1,0.41411,space,0.17052,0,128,128,110,1,0_targ_1_dist_green/trial11.png,,,0,1,greenverival,a,54,21,female,2021-02-17_16h57.09.628,exp11,2020.2.6,Win32,60,IwAR0EYiExLoNyz0Chnc-27F3elrmreO99-FQdgmw-aBQB0uyjA8bh53CpzJs,,,,,,,,,,,
,,,,,,,,,,,,,,p,1,0.672685,space,0.161705,0,129,129,4,1,0_dist_green/trial5.png,,,1,0,greenverival,p,54,21,female,2021-02-17_16h57.09.628,exp11,2020.2.6,Win32,60,IwAR0EYiExLoNyz0Chnc-27F3elrmreO99-FQdgmw-aBQB0uyjA8bh53CpzJs,,,,,,,,,,,
,,,,,,,,,,,,,,p,1,0.73121,space,0.154355,0,130,130,94,1,15_dist_green/trial20.png,,,1,15,greenverival,p,54,21,female,2021-02-17_16h57.09.628,exp11,2020.2.6,Win32,60,IwAR0EYiExLoNyz0Chnc-27F3elrmreO99-FQdgmw-aBQB0uyjA8bh53CpzJs,,,,,,,,,,,
,,,,,,,,,,,,,,a,1,0.620875,space,0.10534,0,131,131,119,1,0_targ_1_dist_green/trial20.png,,,0,1,greenverival,a,54,21,female,2021-02-17_16h57.09.628,exp11,2020.2.6,Win32,60,IwAR0EYiExLoNyz0Chnc-27F3elrmreO99-FQdgmw-aBQB0uyjA8bh53CpzJs,,,,,,,,,,,
,,,,,,,,,,,,,,p,1,0.646395,space,0.11741,0,132,132,29,1,3_dist_green/trial5.png,,,1,3,greenverival,p,54,21,female,2021-02-17_16h57.09.628,exp11,2020.2.6,Win32,60,IwAR0EYiExLoNyz0Chnc-27F3elrmreO99-FQdgmw-aBQB0uyjA8bh53CpzJs,,,,,,,,,,,
,,,,,,,,,,,,,,p,1,0.498585,space,0.14088,0,133,133,9,1,0_dist_green/trial10.png,,,1,0,greenverival,p,54,21,female,2021-02-17_16h57.09.628,exp11,2020.2.6,Win32,60,IwAR0EYiExLoNyz0Chnc-27F3elrmreO99-FQdgmw-aBQB0uyjA8bh53CpzJs,,,,,,,,,,,
,,,,,,,,,,,,,,p,1,0.59846,space,0.21914,0,134,134,35,1,3_dist_green/trial11.png,,,1,3,greenverival,p,54,21,female,2021-02-17_16h57.09.628,exp11,2020.2.6,Win32,60,IwAR0EYiExLoNyz0Chnc-27F3elrmreO99-FQdgmw-aBQB0uyjA8bh53CpzJs,,,,,,,,,,,
,,,,,,,,,,,,,,p,1,0.84055,space,0.169215,0,135,135,75,1,15_dist_green/trial1.png,,,1,15,greenverival,p,54,21,female,2021-02-17_16h57.09.628,exp11,2020.2.6,Win32,60,IwAR0EYiExLoNyz0Chnc-27F3elrmreO99-FQdgmw-aBQB0uyjA8bh53CpzJs,,,,,,,,,,,
,,,,,,,,,,,,,,a,1,0.60948,space,0.101085,0,136,136,141,1,0_targ_4_dist_green/trial17.png,,,0,4,greenverival,a,54,21,female,2021-02-17_16h57.09.628,exp11,2020.2.6,Win32,60,IwAR0EYiExLoNyz0Chnc-27F3elrmreO99-FQdgmw-aBQB0uyjA8bh53CpzJs,,,,,,,,,,,
,,,,,,,,,,,,,,a,1,0.57583,space,0.139765,0,137,137,144,1,0_targ_4_dist_green/trial20.png,,,0,4,greenverival,a,54,21,female,2021-02-17_16h57.09.628,exp11,2020.2.6,Win32,60,IwAR0EYiExLoNyz0Chnc-27F3elrmreO99-FQdgmw-aBQB0uyjA8bh53CpzJs,,,,,,,,,,,
,,,,,,,,,,,,,,a,1,0.646635,space,0.13112,0,138,138,109,1,0_targ_1_dist_green/trial10.png,,,0,1,greenverival,a,54,21,female,2021-02-17_16h57.09.628,exp11,2020.2.6,Win32,60,IwAR0EYiExLoNyz0Chnc-27F3elrmreO99-FQdgmw-aBQB0uyjA8bh53CpzJs,,,,,,,,,,,
,,,,,,,,,,,,,,p,1,1.18515,space,0.11075,0,139,139,50,1,9_dist_green/trial1.png,,,1,9,greenverival,p,54,21,female,2021-02-17_16h57.09.628,exp11,2020.2.6,Win32,60,IwAR0EYiExLoNyz0Chnc-27F3elrmreO99-FQdgmw-aBQB0uyjA8bh53CpzJs,,,,,,,,,,,
,,,,,,,,,,,,,,p,1,1.294255,space,17.849535,0,140,140,48,1,3_dist_green/trial24.png,,,1,3,greenverival,p,54,21,female,2021-02-17_16h57.09.628,exp11,2020.2.6,Win32,60,IwAR0EYiExLoNyz0Chnc-27F3elrmreO99-FQdgmw-aBQB0uyjA8bh53CpzJs,,,,,,,,,,,
,,,,,,,,,,,,,,a,1,0.848005,space,0.40879,0,141,141,139,1,0_targ_4_dist_green/trial15.png,,,0,4,greenverival,a,54,21,female,2021-02-17_16h57.09.628,exp11,2020.2.6,Win32,60,IwAR0EYiExLoNyz0Chnc-27F3elrmreO99-FQdgmw-aBQB0uyjA8bh53CpzJs,,,,,,,,,,,
,,,,,,,,,,,,,,p,1,0.595895,space,0.342345,0,142,142,1,1,0_dist_green/trial2.png,,,1,0,greenverival,p,54,21,female,2021-02-17_16h57.09.628,exp11,2020.2.6,Win32,60,IwAR0EYiExLoNyz0Chnc-27F3elrmreO99-FQdgmw-aBQB0uyjA8bh53CpzJs,,,,,,,,,,,
,,,,,,,,,,,,,,p,1,0.571305,space,0.372105,0,143,143,59,1,9_dist_green/trial10.png,,,1,9,greenverival,p,54,21,female,2021-02-17_16h57.09.628,exp11,2020.2.6,Win32,60,IwAR0EYiExLoNyz0Chnc-27F3elrmreO99-FQdgmw-aBQB0uyjA8bh53CpzJs,,,,,,,,,,,
,,,,,,,,,,,,,,a,1,0.679145,space,0.3738,0,144,144,192,1,0_targ_16_dist_green/trial18.png,,,0,16,greenverival,a,54,21,female,2021-02-17_16h57.09.628,exp11,2020.2.6,Win32,60,IwAR0EYiExLoNyz0Chnc-27F3elrmreO99-FQdgmw-aBQB0uyjA8bh53CpzJs,,,,,,,,,,,
,,,,,,,,,,,,,,p,1,0.65451,space,0.398975,0,145,145,91,1,15_dist_green/trial17.png,,,1,15,greenverival,p,54,21,female,2021-02-17_16h57.09.628,exp11,2020.2.6,Win32,60,IwAR0EYiExLoNyz0Chnc-27F3elrmreO99-FQdgmw-aBQB0uyjA8bh53CpzJs,,,,,,,,,,,
,,,,,,,,,,,,,,p,1,0.754865,space,0.375885,0,146,146,90,1,15_dist_green/trial16.png,,,1,15,greenverival,p,54,21,female,2021-02-17_16h57.09.628,exp11,2020.2.6,Win32,60,IwAR0EYiExLoNyz0Chnc-27F3elrmreO99-FQdgmw-aBQB0uyjA8bh53CpzJs,,,,,,,,,,,
,,,,,,,,,,,,,,a,1,0.59113,space,0.42567,0,147,147,173,1,0_targ_10_dist_green/trial24.png,,,0,10,greenverival,a,54,21,female,2021-02-17_16h57.09.628,exp11,2020.2.6,Win32,60,IwAR0EYiExLoNyz0Chnc-27F3elrmreO99-FQdgmw-aBQB0uyjA8bh53CpzJs,,,,,,,,,,,
,,,,,,,,,,,,,,a,1,0.788595,space,0.41877,0,148,148,176,1,0_targ_16_dist_green/trial2.png,,,0,16,greenverival,a,54,21,female,2021-02-17_16h57.09.628,exp11,2020.2.6,Win32,60,IwAR0EYiExLoNyz0Chnc-27F3elrmreO99-FQdgmw-aBQB0uyjA8bh53CpzJs,,,,,,,,,,,
,,,,,,,,,,,,,,p,1,0.70923,space,0.335405,0,149,149,76,1,15_dist_green/trial2.png,,,1,15,greenverival,p,54,21,female,2021-02-17_16h57.09.628,exp11,2020.2.6,Win32,60,IwAR0EYiExLoNyz0Chnc-27F3elrmreO99-FQdgmw-aBQB0uyjA8bh53CpzJs,,,,,,,,,,,
,,,,,,,,,,,,,,p,1,0.611385,space,0.319735,0,150,150,78,1,15_dist_green/trial4.png,,,1,15,greenverival,p,54,21,female,2021-02-17_16h57.09.628,exp11,2020.2.6,Win32,60,IwAR0EYiExLoNyz0Chnc-27F3elrmreO99-FQdgmw-aBQB0uyjA8bh53CpzJs,,,,,,,,,,,
,,,,,,,,,,,,,,p,1,0.500715,space,0.334535,0,151,151,92,1,15_dist_green/trial18.png,,,1,15,greenverival,p,54,21,female,2021-02-17_16h57.09.628,exp11,2020.2.6,Win32,60,IwAR0EYiExLoNyz0Chnc-27F3elrmreO99-FQdgmw-aBQB0uyjA8bh53CpzJs,,,,,,,,,,,
,,,,,,,,,,,,,,a,1,0.692675,space,0.32274,0,152,152,181,1,0_targ_16_dist_green/trial7.png,,,0,16,greenverival,a,54,21,female,2021-02-17_16h57.09.628,exp11,2020.2.6,Win32,60,IwAR0EYiExLoNyz0Chnc-27F3elrmreO99-FQdgmw-aBQB0uyjA8bh53CpzJs,,,,,,,,,,,
,,,,,,,,,,,,,,p,1,0.507,space,0.31664,0,153,153,32,1,3_dist_green/trial8.png,,,1,3,greenverival,p,54,21,female,2021-02-17_16h57.09.628,exp11,2020.2.6,Win32,60,IwAR0EYiExLoNyz0Chnc-27F3elrmreO99-FQdgmw-aBQB0uyjA8bh53CpzJs,,,,,,,,,,,
,,,,,,,,,,,,,,a,1,0.56312,space,0.36757,0,154,154,165,1,0_targ_10_dist_green/trial16.png,,,0,10,greenverival,a,54,21,female,2021-02-17_16h57.09.628,exp11,2020.2.6,Win32,60,IwAR0EYiExLoNyz0Chnc-27F3elrmreO99-FQdgmw-aBQB0uyjA8bh53CpzJs,,,,,,,,,,,
,,,,,,,,,,,,,,p,1,0.55597,space,0.317515,0,155,155,66,1,9_dist_green/trial17.png,,,1,9,greenverival,p,54,21,female,2021-02-17_16h57.09.628,exp11,2020.2.6,Win32,60,IwAR0EYiExLoNyz0Chnc-27F3elrmreO99-FQdgmw-aBQB0uyjA8bh53CpzJs,,,,,,,,,,,
,,,,,,,,,,,,,,a,1,0.576195,space,0.31803,0,156,156,131,1,0_targ_4_dist_green/trial7.png,,,0,4,greenverival,a,54,21,female,2021-02-17_16h57.09.628,exp11,2020.2.6,Win32,60,IwAR0EYiExLoNyz0Chnc-27F3elrmreO99-FQdgmw-aBQB0uyjA8bh53CpzJs,,,,,,,,,,,
,,,,,,,,,,,,,,a,1,0.528655,space,0.33672,0,157,157,187,1,0_targ_16_dist_green/trial13.png,,,0,16,greenverival,a,54,21,female,2021-02-17_16h57.09.628,exp11,2020.2.6,Win32,60,IwAR0EYiExLoNyz0Chnc-27F3elrmreO99-FQdgmw-aBQB0uyjA8bh53CpzJs,,,,,,,,,,,
,,,,,,,,,,,,,,p,1,0.732285,space,0.323765,0,158,158,99,1,15_dist_green/trial25.png,,,1,15,greenverival,p,54,21,female,2021-02-17_16h57.09.628,exp11,2020.2.6,Win32,60,IwAR0EYiExLoNyz0Chnc-27F3elrmreO99-FQdgmw-aBQB0uyjA8bh53CpzJs,,,,,,,,,,,
,,,,,,,,,,,,,,p,1,0.561055,space,0.35454,0,159,159,38,1,3_dist_green/trial14.png,,,1,3,greenverival,p,54,21,female,2021-02-17_16h57.09.628,exp11,2020.2.6,Win32,60,IwAR0EYiExLoNyz0Chnc-27F3elrmreO99-FQdgmw-aBQB0uyjA8bh53CpzJs,,,,,,,,,,,
,,,,,,,,,,,,,,p,1,0.467355,space,0.3768,0,160,160,12,1,0_dist_green/trial13.png,,,1,0,greenverival,p,54,21,female,2021-02-17_16h57.09.628,exp11,2020.2.6,Win32,60,IwAR0EYiExLoNyz0Chnc-27F3elrmreO99-FQdgmw-aBQB0uyjA8bh53CpzJs,,,,,,,,,,,
,,,,,,,,,,,,,,a,1,0.838705,space,0.270905,0,161,161,170,1,0_targ_10_dist_green/trial21.png,,,0,10,greenverival,a,54,21,female,2021-02-17_16h57.09.628,exp11,2020.2.6,Win32,60,IwAR0EYiExLoNyz0Chnc-27F3elrmreO99-FQdgmw-aBQB0uyjA8bh53CpzJs,,,,,,,,,,,
,,,,,,,,,,,,,,a,1,0.56307,space,0.236435,0,162,162,196,1,0_targ_16_dist_green/trial22.png,,,0,16,greenverival,a,54,21,female,2021-02-17_16h57.09.628,exp11,2020.2.6,Win32,60,IwAR0EYiExLoNyz0Chnc-27F3elrmreO99-FQdgmw-aBQB0uyjA8bh53CpzJs,,,,,,,,,,,
,,,,,,,,,,,,,,p,1,0.493395,space,0.273865,0,163,163,22,1,0_dist_green/trial23.png,,,1,0,greenverival,p,54,21,female,2021-02-17_16h57.09.628,exp11,2020.2.6,Win32,60,IwAR0EYiExLoNyz0Chnc-27F3elrmreO99-FQdgmw-aBQB0uyjA8bh53CpzJs,,,,,,,,,,,
,,,,,,,,,,,,,,p,1,0.489735,space,0.270965,0,164,164,46,1,3_dist_green/trial22.png,,,1,3,greenverival,p,54,21,female,2021-02-17_16h57.09.628,exp11,2020.2.6,Win32,60,IwAR0EYiExLoNyz0Chnc-27F3elrmreO99-FQdgmw-aBQB0uyjA8bh53CpzJs,,,,,,,,,,,
,,,,,,,,,,,,,,a,1,0.60203,space,0.334875,0,165,165,164,1,0_targ_10_dist_green/trial15.png,,,0,10,greenverival,a,54,21,female,2021-02-17_16h57.09.628,exp11,2020.2.6,Win32,60,IwAR0EYiExLoNyz0Chnc-27F3elrmreO99-FQdgmw-aBQB0uyjA8bh53CpzJs,,,,,,,,,,,
,,,,,,,,,,,,,,a,1,0.573515,space,0.242255,0,166,166,193,1,0_targ_16_dist_green/trial19.png,,,0,16,greenverival,a,54,21,female,2021-02-17_16h57.09.628,exp11,2020.2.6,Win32,60,IwAR0EYiExLoNyz0Chnc-27F3elrmreO99-FQdgmw-aBQB0uyjA8bh53CpzJs,,,,,,,,,,,
,,,,,,,,,,,,,,a,1,0.53984,space,0.194185,0,167,167,168,1,0_targ_10_dist_green/trial19.png,,,0,10,greenverival,a,54,21,female,2021-02-17_16h57.09.628,exp11,2020.2.6,Win32,60,IwAR0EYiExLoNyz0Chnc-27F3elrmreO99-FQdgmw-aBQB0uyjA8bh53CpzJs,,,,,,,,,,,
,,,,,,,,,,,,,,a,1,0.59226,space,0.433065,0,168,168,125,1,0_targ_4_dist_green/trial1.png,,,0,4,greenverival,a,54,21,female,2021-02-17_16h57.09.628,exp11,2020.2.6,Win32,60,IwAR0EYiExLoNyz0Chnc-27F3elrmreO99-FQdgmw-aBQB0uyjA8bh53CpzJs,,,,,,,,,,,
,,,,,,,,,,,,,,p,1,0.575875,space,0.32206,0,169,169,64,1,9_dist_green/trial15.png,,,1,9,greenverival,p,54,21,female,2021-02-17_16h57.09.628,exp11,2020.2.6,Win32,60,IwAR0EYiExLoNyz0Chnc-27F3elrmreO99-FQdgmw-aBQB0uyjA8bh53CpzJs,,,,,,,,,,,
,,,,,,,,,,,,,,p,1,0.42477,space,0.311315,0,170,170,42,1,3_dist_green/trial18.png,,,1,3,greenverival,p,54,21,female,2021-02-17_16h57.09.628,exp11,2020.2.6,Win32,60,IwAR0EYiExLoNyz0Chnc-27F3elrmreO99-FQdgmw-aBQB0uyjA8bh53CpzJs,,,,,,,,,,,
,,,,,,,,,,,,,,a,1,0.56444,space,0.333995,0,171,171,174,1,0_targ_10_dist_green/trial25.png,,,0,10,greenverival,a,54,21,female,2021-02-17_16h57.09.628,exp11,2020.2.6,Win32,60,IwAR0EYiExLoNyz0Chnc-27F3elrmreO99-FQdgmw-aBQB0uyjA8bh53CpzJs,,,,,,,,,,,
,,,,,,,,,,,,,,a,1,0.607075,space,0.28504,0,172,172,160,1,0_targ_10_dist_green/trial11.png,,,0,10,greenverival,a,54,21,female,2021-02-17_16h57.09.628,exp11,2020.2.6,Win32,60,IwAR0EYiExLoNyz0Chnc-27F3elrmreO99-FQdgmw-aBQB0uyjA8bh53CpzJs,,,,,,,,,,,
,,,,,,,,,,,,,,p,1,0.579725,space,0.228175,0,173,173,10,1,0_dist_green/trial11.png,,,1,0,greenverival,p,54,21,female,2021-02-17_16h57.09.628,exp11,2020.2.6,Win32,60,IwAR0EYiExLoNyz0Chnc-27F3elrmreO99-FQdgmw-aBQB0uyjA8bh53CpzJs,,,,,,,,,,,
,,,,,,,,,,,,,,a,1,0.574405,space,0.18474,0,174,174,158,1,0_targ_10_dist_green/trial9.png,,,0,10,greenverival,a,54,21,female,2021-02-17_16h57.09.628,exp11,2020.2.6,Win32,60,IwAR0EYiExLoNyz0Chnc-27F3elrmreO99-FQdgmw-aBQB0uyjA8bh53CpzJs,,,,,,,,,,,
,,,,,,,,,,,,,,a,1,0.471675,space,0.118075,0,175,175,166,1,0_targ_10_dist_green/trial17.png,,,0,10,greenverival,a,54,21,female,2021-02-17_16h57.09.628,exp11,2020.2.6,Win32,60,IwAR0EYiExLoNyz0Chnc-27F3elrmreO99-FQdgmw-aBQB0uyjA8bh53CpzJs,,,,,,,,,,,
,,,,,,,,,,,,,,a,1,0.57373,space,0.14053,0,176,176,113,1,0_targ_1_dist_green/trial14.png,,,0,1,greenverival,a,54,21,female,2021-02-17_16h57.09.628,exp11,2020.2.6,Win32,60,IwAR0EYiExLoNyz0Chnc-27F3elrmreO99-FQdgmw-aBQB0uyjA8bh53CpzJs,,,,,,,,,,,
,,,,,,,,,,,,,,p,1,0.561285,space,0.105935,0,177,177,82,1,15_dist_green/trial8.png,,,1,15,greenverival,p,54,21,female,2021-02-17_16h57.09.628,exp11,2020.2.6,Win32,60,IwAR0EYiExLoNyz0Chnc-27F3elrmreO99-FQdgmw-aBQB0uyjA8bh53CpzJs,,,,,,,,,,,
,,,,,,,,,,,,,,p,1,0.482695,space,0.13516,0,178,178,17,1,0_dist_green/trial18.png,,,1,0,greenverival,p,54,21,female,2021-02-17_16h57.09.628,exp11,2020.2.6,Win32,60,IwAR0EYiExLoNyz0Chnc-27F3elrmreO99-FQdgmw-aBQB0uyjA8bh53CpzJs,,,,,,,,,,,
,,,,,,,,,,,,,,p,1,0.59797,space,0.14393,0,179,179,77,1,15_dist_green/trial3.png,,,1,15,greenverival,p,54,21,female,2021-02-17_16h57.09.628,exp11,2020.2.6,Win32,60,IwAR0EYiExLoNyz0Chnc-27F3elrmreO99-FQdgmw-aBQB0uyjA8bh53CpzJs,,,,,,,,,,,
,,,,,,,,,,,,,,p,1,0.496255,space,0.167125,0,180,180,96,1,15_dist_green/trial22.png,,,1,15,greenverival,p,54,21,female,2021-02-17_16h57.09.628,exp11,2020.2.6,Win32,60,IwAR0EYiExLoNyz0Chnc-27F3elrmreO99-FQdgmw-aBQB0uyjA8bh53CpzJs,,,,,,,,,,,
,,,,,,,,,,,,,,p,1,0.68099,space,0.15386,0,181,181,26,1,3_dist_green/trial2.png,,,1,3,greenverival,p,54,21,female,2021-02-17_16h57.09.628,exp11,2020.2.6,Win32,60,IwAR0EYiExLoNyz0Chnc-27F3elrmreO99-FQdgmw-aBQB0uyjA8bh53CpzJs,,,,,,,,,,,
,,,,,,,,,,,,,,a,1,0.72065,space,0.30827,0,182,182,167,1,0_targ_10_dist_green/trial18.png,,,0,10,greenverival,a,54,21,female,2021-02-17_16h57.09.628,exp11,2020.2.6,Win32,60,IwAR0EYiExLoNyz0Chnc-27F3elrmreO99-FQdgmw-aBQB0uyjA8bh53CpzJs,,,,,,,,,,,
,,,,,,,,,,,,,,p,1,0.50899,space,0.134615,0,183,183,31,1,3_dist_green/trial7.png,,,1,3,greenverival,p,54,21,female,2021-02-17_16h57.09.628,exp11,2020.2.6,Win32,60,IwAR0EYiExLoNyz0Chnc-27F3elrmreO99-FQdgmw-aBQB0uyjA8bh53CpzJs,,,,,,,,,,,
,,,,,,,,,,,,,,a,1,0.705995,space,0.101995,0,184,184,100,1,0_targ_1_dist_green/trial1.png,,,0,1,greenverival,a,54,21,female,2021-02-17_16h57.09.628,exp11,2020.2.6,Win32,60,IwAR0EYiExLoNyz0Chnc-27F3elrmreO99-FQdgmw-aBQB0uyjA8bh53CpzJs,,,,,,,,,,,
,,,,,,,,,,,,,,p,1,0.494945,space,0.10007,0,185,185,93,1,15_dist_green/trial19.png,,,1,15,greenverival,p,54,21,female,2021-02-17_16h57.09.628,exp11,2020.2.6,Win32,60,IwAR0EYiExLoNyz0Chnc-27F3elrmreO99-FQdgmw-aBQB0uyjA8bh53CpzJs,,,,,,,,,,,
,,,,,,,,,,,,,,a,1,0.667575,space,0.10071,0,186,186,129,1,0_targ_4_dist_green/trial5.png,,,0,4,greenverival,a,54,21,female,2021-02-17_16h57.09.628,exp11,2020.2.6,Win32,60,IwAR0EYiExLoNyz0Chnc-27F3elrmreO99-FQdgmw-aBQB0uyjA8bh53CpzJs,,,,,,,,,,,
,,,,,,,,,,,,,,p,1,0.443985,space,0.12129,0,187,187,44,1,3_dist_green/trial20.png,,,1,3,greenverival,p,54,21,female,2021-02-17_16h57.09.628,exp11,2020.2.6,Win32,60,IwAR0EYiExLoNyz0Chnc-27F3elrmreO99-FQdgmw-aBQB0uyjA8bh53CpzJs,,,,,,,,,,,
,,,,,,,,,,,,,,a,1,0.526145,space,0.067755,0,188,188,171,1,0_targ_10_dist_green/trial22.png,,,0,10,greenverival,a,54,21,female,2021-02-17_16h57.09.628,exp11,2020.2.6,Win32,60,IwAR0EYiExLoNyz0Chnc-27F3elrmreO99-FQdgmw-aBQB0uyjA8bh53CpzJs,,,,,,,,,,,
,,,,,,,,,,,,,,a,1,0.53127,space,0.102715,0,189,189,104,1,0_targ_1_dist_green/trial5.png,,,0,1,greenverival,a,54,21,female,2021-02-17_16h57.09.628,exp11,2020.2.6,Win32,60,IwAR0EYiExLoNyz0Chnc-27F3elrmreO99-FQdgmw-aBQB0uyjA8bh53CpzJs,,,,,,,,,,,
,,,,,,,,,,,,,,p,1,0.493575,space,0.150445,0,190,190,36,1,3_dist_green/trial12.png,,,1,3,greenverival,p,54,21,female,2021-02-17_16h57.09.628,exp11,2020.2.6,Win32,60,IwAR0EYiExLoNyz0Chnc-27F3elrmreO99-FQdgmw-aBQB0uyjA8bh53CpzJs,,,,,,,,,,,
,,,,,,,,,,,,,,a,1,0.6223,space,0.134295,0,191,191,103,1,0_targ_1_dist_green/trial4.png,,,0,1,greenverival,a,54,21,female,2021-02-17_16h57.09.628,exp11,2020.2.6,Win32,60,IwAR0EYiExLoNyz0Chnc-27F3elrmreO99-FQdgmw-aBQB0uyjA8bh53CpzJs,,,,,,,,,,,
,,,,,,,,,,,,,,p,1,0.572255,space,0.13888,0,192,192,70,1,9_dist_green/trial21.png,,,1,9,greenverival,p,54,21,female,2021-02-17_16h57.09.628,exp11,2020.2.6,Win32,60,IwAR0EYiExLoNyz0Chnc-27F3elrmreO99-FQdgmw-aBQB0uyjA8bh53CpzJs,,,,,,,,,,,
,,,,,,,,,,,,,,p,1,0.417605,space,0.41788,0,193,193,88,1,15_dist_green/trial14.png,,,1,15,greenverival,p,54,21,female,2021-02-17_16h57.09.628,exp11,2020.2.6,Win32,60,IwAR0EYiExLoNyz0Chnc-27F3elrmreO99-FQdgmw-aBQB0uyjA8bh53CpzJs,,,,,,,,,,,
,,,,,,,,,,,,,,a,1,0.53803,space,0.355705,0,194,194,195,1,0_targ_16_dist_green/trial21.png,,,0,16,greenverival,a,54,21,female,2021-02-17_16h57.09.628,exp11,2020.2.6,Win32,60,IwAR0EYiExLoNyz0Chnc-27F3elrmreO99-FQdgmw-aBQB0uyjA8bh53CpzJs,,,,,,,,,,,
,,,,,,,,,,,,,,a,1,0.61076,space,0.159035,0,195,195,101,1,0_targ_1_dist_green/trial2.png,,,0,1,greenverival,a,54,21,female,2021-02-17_16h57.09.628,exp11,2020.2.6,Win32,60,IwAR0EYiExLoNyz0Chnc-27F3elrmreO99-FQdgmw-aBQB0uyjA8bh53CpzJs,,,,,,,,,,,
,,,,,,,,,,,,,,p,1,0.608495,space,0.182295,0,196,196,73,1,9_dist_green/trial24.png,,,1,9,greenverival,p,54,21,female,2021-02-17_16h57.09.628,exp11,2020.2.6,Win32,60,IwAR0EYiExLoNyz0Chnc-27F3elrmreO99-FQdgmw-aBQB0uyjA8bh53CpzJs,,,,,,,,,,,
,,,,,,,,,,,,,,a,1,0.34774,space,0.217925,0,197,197,180,1,0_targ_16_dist_green/trial6.png,,,0,16,greenverival,a,54,21,female,2021-02-17_16h57.09.628,exp11,2020.2.6,Win32,60,IwAR0EYiExLoNyz0Chnc-27F3elrmreO99-FQdgmw-aBQB0uyjA8bh53CpzJs,,,,,,,,,,,
,,,,,,,,,,,,,,a,1,0.56098,space,0.19204,0,198,198,106,1,0_targ_1_dist_green/trial7.png,,,0,1,greenverival,a,54,21,female,2021-02-17_16h57.09.628,exp11,2020.2.6,Win32,60,IwAR0EYiExLoNyz0Chnc-27F3elrmreO99-FQdgmw-aBQB0uyjA8bh53CpzJs,,,,,,,,,,,
,,,,,,,,,,,,,,a,0,0.331905,space,0.46451,0,199,199,19,1,0_dist_green/trial20.png,,,1,0,greenverival,p,54,21,female,2021-02-17_16h57.09.628,exp11,2020.2.6,Win32,60,IwAR0EYiExLoNyz0Chnc-27F3elrmreO99-FQdgmw-aBQB0uyjA8bh53CpzJs,,,,,,,,,,,
,,,,,,,,,,,,,,,,,,,,,,,,,,,,,,,54,21,female,2021-02-17_16h57.09.628,exp11,2020.2.6,Win32,60,IwAR0EYiExLoNyz0Chnc-27F3elrmreO99-FQdgmw-aBQB0uyjA8bh53CpzJs,0,1,1,0,1,conGreen.xlsx,green vertical,Look for green vertical bar (target) and indicate if it is present or absent in the array. If green vertical target is present press 'p' and if absent press 'a'. Press SPACE to start.,,,
