key_resp_6.keys,key_resp_6.rt,key_resp_7.keys,key_resp_7.rt,key_resp_8.keys,key_resp_8.rt,key_resp_10.keys,key_resp_10.rt,key_resp_9.keys,key_resp_9.rt,key_resp_3.keys,key_resp_3.rt,key_resp_5.keys,key_resp_5.rt,key_resp.keys,key_resp.corr,key_resp.rt,key_resp_4.keys,key_resp_4.rt,trials.thisRepN,trials.thisTrialN,trials.thisN,trials.thisIndex,trials.ran,ImageFile,tarPos,tarSize,targPres,numDist,targetName,correctAns,participant,age,sex,date,expName,psychopyVersion,OS,frameRate,trials_2.thisRepN,trials_2.thisTrialN,trials_2.thisN,trials_2.thisIndex,trials_2.ran,condsFile,targName,instructionText,colTarget,sizeTarg,posit
space,2.938635,space,9.73777,space,9.175025,space,13.77818,space,7.2925,space,16.978265,space,10.383945,p,1,0.850105,space,3.898365,0,0,0,93,1,15_dist_red/trial19.png,,,1,15,redHorizontal,p,56,33,men,2021-02-27_15h20.22.432,exp11,2020.2.6,Linux x86_64,60,,,,,,,,,,,
,,,,,,,,,,,,,,p,1,0.58788,space,0.795705,0,1,1,63,1,9_dist_red/trial14.png,,,1,9,redHorizontal,p,56,33,men,2021-02-27_15h20.22.432,exp11,2020.2.6,Linux x86_64,60,,,,,,,,,,,
,,,,,,,,,,,,,,p,1,0.632645,space,0.679295,0,2,2,17,1,0_dist_red/trial18.png,,,1,0,redHorizontal,p,56,33,men,2021-02-27_15h20.22.432,exp11,2020.2.6,Linux x86_64,60,,,,,,,,,,,
,,,,,,,,,,,,,,p,1,0.556925,space,0.65105,0,3,3,20,1,0_dist_red/trial21.png,,,1,0,redHorizontal,p,56,33,men,2021-02-27_15h20.22.432,exp11,2020.2.6,Linux x86_64,60,,,,,,,,,,,
,,,,,,,,,,,,,,p,1,0.688555,space,0.622845,0,4,4,88,1,15_dist_red/trial14.png,,,1,15,redHorizontal,p,56,33,men,2021-02-27_15h20.22.432,exp11,2020.2.6,Linux x86_64,60,,,,,,,,,,,
,,,,,,,,,,,,,,a,1,2.19996,space,0.73365,0,5,5,124,1,0_targ_1_dist_red/trial25.png,,,0,1,redHorizontal,a,56,33,men,2021-02-27_15h20.22.432,exp11,2020.2.6,Linux x86_64,60,,,,,,,,,,,
,,,,,,,,,,,,,,p,0,0.615555,space,3.356565,0,6,6,159,1,0_targ_10_dist_red/trial10.png,,,0,10,redHorizontal,a,56,33,men,2021-02-27_15h20.22.432,exp11,2020.2.6,Linux x86_64,60,,,,,,,,,,,
,,,,,,,,,,,,,,a,1,0.85183,space,1.178005,0,7,7,101,1,0_targ_1_dist_red/trial2.png,,,0,1,redHorizontal,a,56,33,men,2021-02-27_15h20.22.432,exp11,2020.2.6,Linux x86_64,60,,,,,,,,,,,
,,,,,,,,,,,,,,p,1,0.72399,space,0.85083,0,8,8,27,1,3_dist_red/trial3.png,,,1,3,redHorizontal,p,56,33,men,2021-02-27_15h20.22.432,exp11,2020.2.6,Linux x86_64,60,,,,,,,,,,,
,,,,,,,,,,,,,,p,0,0.72053,space,0.52385,0,9,9,196,1,0_targ_16_dist_red/trial22.png,,,0,16,redHorizontal,a,56,33,men,2021-02-27_15h20.22.432,exp11,2020.2.6,Linux x86_64,60,,,,,,,,,,,
,,,,,,,,,,,,,,p,0,1.91208,space,0.176455,0,10,10,190,1,0_targ_16_dist_red/trial16.png,,,0,16,redHorizontal,a,56,33,men,2021-02-27_15h20.22.432,exp11,2020.2.6,Linux x86_64,60,,,,,,,,,,,
,,,,,,,,,,,,,,p,0,0.64899,space,1.32862,0,11,11,156,1,0_targ_10_dist_red/trial7.png,,,0,10,redHorizontal,a,56,33,men,2021-02-27_15h20.22.432,exp11,2020.2.6,Linux x86_64,60,,,,,,,,,,,
,,,,,,,,,,,,,,p,0,0.55344,space,0.178785,0,12,12,197,1,0_targ_16_dist_red/trial23.png,,,0,16,redHorizontal,a,56,33,men,2021-02-27_15h20.22.432,exp11,2020.2.6,Linux x86_64,60,,,,,,,,,,,
,,,,,,,,,,,,,,p,0,0.89108,space,1.678915,0,13,13,128,1,0_targ_4_dist_red/trial4.png,,,0,4,redHorizontal,a,56,33,men,2021-02-27_15h20.22.432,exp11,2020.2.6,Linux x86_64,60,,,,,,,,,,,
,,,,,,,,,,,,,,p,0,0.68332,space,0.678765,0,14,14,105,1,0_targ_1_dist_red/trial6.png,,,0,1,redHorizontal,a,56,33,men,2021-02-27_15h20.22.432,exp11,2020.2.6,Linux x86_64,60,,,,,,,,,,,
,,,,,,,,,,,,,,a,1,3.408865,space,0.48679,0,15,15,116,1,0_targ_1_dist_red/trial17.png,,,0,1,redHorizontal,a,56,33,men,2021-02-27_15h20.22.432,exp11,2020.2.6,Linux x86_64,60,,,,,,,,,,,
,,,,,,,,,,,,,,a,1,0.921215,space,0.49693,0,16,16,112,1,0_targ_1_dist_red/trial13.png,,,0,1,redHorizontal,a,56,33,men,2021-02-27_15h20.22.432,exp11,2020.2.6,Linux x86_64,60,,,,,,,,,,,
,,,,,,,,,,,,,,a,1,1.055525,space,0.47715,0,17,17,114,1,0_targ_1_dist_red/trial15.png,,,0,1,redHorizontal,a,56,33,men,2021-02-27_15h20.22.432,exp11,2020.2.6,Linux x86_64,60,,,,,,,,,,,
,,,,,,,,,,,,,,a,1,1.3264,space,1.95588,0,18,18,117,1,0_targ_1_dist_red/trial18.png,,,0,1,redHorizontal,a,56,33,men,2021-02-27_15h20.22.432,exp11,2020.2.6,Linux x86_64,60,,,,,,,,,,,
,,,,,,,,,,,,,,p,0,1.11612,space,0.64553,0,19,19,191,1,0_targ_16_dist_red/trial17.png,,,0,16,redHorizontal,a,56,33,men,2021-02-27_15h20.22.432,exp11,2020.2.6,Linux x86_64,60,,,,,,,,,,,
,,,,,,,,,,,,,,p,1,0.874115,space,0.453645,0,20,20,32,1,3_dist_red/trial8.png,,,1,3,redHorizontal,p,56,33,men,2021-02-27_15h20.22.432,exp11,2020.2.6,Linux x86_64,60,,,,,,,,,,,
,,,,,,,,,,,,,,p,1,0.617555,space,0.42871,0,21,21,33,1,3_dist_red/trial9.png,,,1,3,redHorizontal,p,56,33,men,2021-02-27_15h20.22.432,exp11,2020.2.6,Linux x86_64,60,,,,,,,,,,,
,,,,,,,,,,,,,,p,1,0.673445,space,0.501735,0,22,22,6,1,0_dist_red/trial7.png,,,1,0,redHorizontal,p,56,33,men,2021-02-27_15h20.22.432,exp11,2020.2.6,Linux x86_64,60,,,,,,,,,,,
,,,,,,,,,,,,,,p,1,0.812385,space,0.401465,0,23,23,48,1,3_dist_red/trial24.png,,,1,3,redHorizontal,p,56,33,men,2021-02-27_15h20.22.432,exp11,2020.2.6,Linux x86_64,60,,,,,,,,,,,
,,,,,,,,,,,,,,p,1,1.249565,space,0.468195,0,24,24,74,1,9_dist_red/trial25.png,,,1,9,redHorizontal,p,56,33,men,2021-02-27_15h20.22.432,exp11,2020.2.6,Linux x86_64,60,,,,,,,,,,,
,,,,,,,,,,,,,,p,0,0.95883,space,0.454165,0,25,25,160,1,0_targ_10_dist_red/trial11.png,,,0,10,redHorizontal,a,56,33,men,2021-02-27_15h20.22.432,exp11,2020.2.6,Linux x86_64,60,,,,,,,,,,,
,,,,,,,,,,,,,,p,1,0.6028,space,0.47071,0,26,26,89,1,15_dist_red/trial15.png,,,1,15,redHorizontal,p,56,33,men,2021-02-27_15h20.22.432,exp11,2020.2.6,Linux x86_64,60,,,,,,,,,,,
,,,,,,,,,,,,,,p,1,0.74999,space,0.347935,0,27,27,90,1,15_dist_red/trial16.png,,,1,15,redHorizontal,p,56,33,men,2021-02-27_15h20.22.432,exp11,2020.2.6,Linux x86_64,60,,,,,,,,,,,
,,,,,,,,,,,,,,p,0,0.48125,space,1.61339,0,28,28,152,1,0_targ_10_dist_red/trial3.png,,,0,10,redHorizontal,a,56,33,men,2021-02-27_15h20.22.432,exp11,2020.2.6,Linux x86_64,60,,,,,,,,,,,
,,,,,,,,,,,,,,p,1,0.59789,space,0.409605,0,29,29,12,1,0_dist_red/trial13.png,,,1,0,redHorizontal,p,56,33,men,2021-02-27_15h20.22.432,exp11,2020.2.6,Linux x86_64,60,,,,,,,,,,,
,,,,,,,,,,,,,,p,1,0.54905,space,0.38499,0,30,30,18,1,0_dist_red/trial19.png,,,1,0,redHorizontal,p,56,33,men,2021-02-27_15h20.22.432,exp11,2020.2.6,Linux x86_64,60,,,,,,,,,,,
,,,,,,,,,,,,,,p,1,0.793455,space,0.369095,0,31,31,96,1,15_dist_red/trial22.png,,,1,15,redHorizontal,p,56,33,men,2021-02-27_15h20.22.432,exp11,2020.2.6,Linux x86_64,60,,,,,,,,,,,
,,,,,,,,,,,,,,p,0,0.57774,space,2.38027,0,32,32,188,1,0_targ_16_dist_red/trial14.png,,,0,16,redHorizontal,a,56,33,men,2021-02-27_15h20.22.432,exp11,2020.2.6,Linux x86_64,60,,,,,,,,,,,
,,,,,,,,,,,,,,p,1,0.62695,space,0.366505,0,33,33,8,1,0_dist_red/trial9.png,,,1,0,redHorizontal,p,56,33,men,2021-02-27_15h20.22.432,exp11,2020.2.6,Linux x86_64,60,,,,,,,,,,,
,,,,,,,,,,,,,,p,0,0.524085,space,0.382685,0,34,34,198,1,0_targ_16_dist_red/trial24.png,,,0,16,redHorizontal,a,56,33,men,2021-02-27_15h20.22.432,exp11,2020.2.6,Linux x86_64,60,,,,,,,,,,,
,,,,,,,,,,,,,,p,1,0.533895,space,0.48168,0,35,35,37,1,3_dist_red/trial13.png,,,1,3,redHorizontal,p,56,33,men,2021-02-27_15h20.22.432,exp11,2020.2.6,Linux x86_64,60,,,,,,,,,,,
,,,,,,,,,,,,,,p,1,0.650435,space,0.38101,0,36,36,80,1,15_dist_red/trial6.png,,,1,15,redHorizontal,p,56,33,men,2021-02-27_15h20.22.432,exp11,2020.2.6,Linux x86_64,60,,,,,,,,,,,
,,,,,,,,,,,,,,p,0,0.54418,space,1.07039,0,37,37,130,1,0_targ_4_dist_red/trial6.png,,,0,4,redHorizontal,a,56,33,men,2021-02-27_15h20.22.432,exp11,2020.2.6,Linux x86_64,60,,,,,,,,,,,
,,,,,,,,,,,,,,p,1,0.54966,space,0.385635,0,38,38,91,1,15_dist_red/trial17.png,,,1,15,redHorizontal,p,56,33,men,2021-02-27_15h20.22.432,exp11,2020.2.6,Linux x86_64,60,,,,,,,,,,,
,,,,,,,,,,,,,,p,1,0.56719,space,0.418905,0,39,39,87,1,15_dist_red/trial13.png,,,1,15,redHorizontal,p,56,33,men,2021-02-27_15h20.22.432,exp11,2020.2.6,Linux x86_64,60,,,,,,,,,,,
,,,,,,,,,,,,,,p,0,0.616615,space,1.521155,0,40,40,137,1,0_targ_4_dist_red/trial13.png,,,0,4,redHorizontal,a,56,33,men,2021-02-27_15h20.22.432,exp11,2020.2.6,Linux x86_64,60,,,,,,,,,,,
,,,,,,,,,,,,,,p,0,0.487115,space,0.41886,0,41,41,157,1,0_targ_10_dist_red/trial8.png,,,0,10,redHorizontal,a,56,33,men,2021-02-27_15h20.22.432,exp11,2020.2.6,Linux x86_64,60,,,,,,,,,,,
,,,,,,,,,,,,,,p,0,0.47838,space,2.200515,0,42,42,129,1,0_targ_4_dist_red/trial5.png,,,0,4,redHorizontal,a,56,33,men,2021-02-27_15h20.22.432,exp11,2020.2.6,Linux x86_64,60,,,,,,,,,,,
,,,,,,,,,,,,,,p,1,0.53572,space,0.42525,0,43,43,78,1,15_dist_red/trial4.png,,,1,15,redHorizontal,p,56,33,men,2021-02-27_15h20.22.432,exp11,2020.2.6,Linux x86_64,60,,,,,,,,,,,
,,,,,,,,,,,,,,p,1,0.52899,space,0.37837,0,44,44,49,1,3_dist_red/trial25.png,,,1,3,redHorizontal,p,56,33,men,2021-02-27_15h20.22.432,exp11,2020.2.6,Linux x86_64,60,,,,,,,,,,,
,,,,,,,,,,,,,,p,0,0.54102,space,2.54681,0,45,45,193,1,0_targ_16_dist_red/trial19.png,,,0,16,redHorizontal,a,56,33,men,2021-02-27_15h20.22.432,exp11,2020.2.6,Linux x86_64,60,,,,,,,,,,,
,,,,,,,,,,,,,,p,1,0.656125,space,0.36205,0,46,46,5,1,0_dist_red/trial6.png,,,1,0,redHorizontal,p,56,33,men,2021-02-27_15h20.22.432,exp11,2020.2.6,Linux x86_64,60,,,,,,,,,,,
,,,,,,,,,,,,,,p,1,0.50397,space,0.361225,0,47,47,99,1,15_dist_red/trial25.png,,,1,15,redHorizontal,p,56,33,men,2021-02-27_15h20.22.432,exp11,2020.2.6,Linux x86_64,60,,,,,,,,,,,
,,,,,,,,,,,,,,p,1,0.514355,space,0.32673,0,48,48,92,1,15_dist_red/trial18.png,,,1,15,redHorizontal,p,56,33,men,2021-02-27_15h20.22.432,exp11,2020.2.6,Linux x86_64,60,,,,,,,,,,,
,,,,,,,,,,,,,,p,0,0.559815,space,2.484975,0,49,49,132,1,0_targ_4_dist_red/trial8.png,,,0,4,redHorizontal,a,56,33,men,2021-02-27_15h20.22.432,exp11,2020.2.6,Linux x86_64,60,,,,,,,,,,,
,,,,,,,,,,,,,,p,0,0.55135,space,0.91339,0,50,50,150,1,0_targ_10_dist_red/trial1.png,,,0,10,redHorizontal,a,56,33,men,2021-02-27_15h20.22.432,exp11,2020.2.6,Linux x86_64,60,,,,,,,,,,,
,,,,,,,,,,,,,,p,1,0.46623,space,0.672815,0,51,51,70,1,9_dist_red/trial21.png,,,1,9,redHorizontal,p,56,33,men,2021-02-27_15h20.22.432,exp11,2020.2.6,Linux x86_64,60,,,,,,,,,,,
,,,,,,,,,,,,,,p,1,0.493605,space,0.417955,0,52,52,50,1,9_dist_red/trial1.png,,,1,9,redHorizontal,p,56,33,men,2021-02-27_15h20.22.432,exp11,2020.2.6,Linux x86_64,60,,,,,,,,,,,
,,,,,,,,,,,,,,p,0,0.485315,space,0.130545,0,53,53,166,1,0_targ_10_dist_red/trial17.png,,,0,10,redHorizontal,a,56,33,men,2021-02-27_15h20.22.432,exp11,2020.2.6,Linux x86_64,60,,,,,,,,,,,
,,,,,,,,,,,,,,p,0,0.5001,space,1.132515,0,54,54,194,1,0_targ_16_dist_red/trial20.png,,,0,16,redHorizontal,a,56,33,men,2021-02-27_15h20.22.432,exp11,2020.2.6,Linux x86_64,60,,,,,,,,,,,
,,,,,,,,,,,,,,p,0,0.46627,space,2.533825,0,55,55,189,1,0_targ_16_dist_red/trial15.png,,,0,16,redHorizontal,a,56,33,men,2021-02-27_15h20.22.432,exp11,2020.2.6,Linux x86_64,60,,,,,,,,,,,
,,,,,,,,,,,,,,p,1,0.450925,space,0.39877,0,56,56,98,1,15_dist_red/trial24.png,,,1,15,redHorizontal,p,56,33,men,2021-02-27_15h20.22.432,exp11,2020.2.6,Linux x86_64,60,,,,,,,,,,,
,,,,,,,,,,,,,,p,0,0.5361,space,1.941985,0,57,57,169,1,0_targ_10_dist_red/trial20.png,,,0,10,redHorizontal,a,56,33,men,2021-02-27_15h20.22.432,exp11,2020.2.6,Linux x86_64,60,,,,,,,,,,,
,,,,,,,,,,,,,,p,0,0.46248,space,2.52264,0,58,58,187,1,0_targ_16_dist_red/trial13.png,,,0,16,redHorizontal,a,56,33,men,2021-02-27_15h20.22.432,exp11,2020.2.6,Linux x86_64,60,,,,,,,,,,,
,,,,,,,,,,,,,,p,1,0.41724,space,0.45197,0,59,59,84,1,15_dist_red/trial10.png,,,1,15,redHorizontal,p,56,33,men,2021-02-27_15h20.22.432,exp11,2020.2.6,Linux x86_64,60,,,,,,,,,,,
,,,,,,,,,,,,,,p,0,0.509125,space,3.36724,0,60,60,179,1,0_targ_16_dist_red/trial5.png,,,0,16,redHorizontal,a,56,33,men,2021-02-27_15h20.22.432,exp11,2020.2.6,Linux x86_64,60,,,,,,,,,,,
,,,,,,,,,,,,,,a,1,0.825455,space,0.993285,0,61,61,113,1,0_targ_1_dist_red/trial14.png,,,0,1,redHorizontal,a,56,33,men,2021-02-27_15h20.22.432,exp11,2020.2.6,Linux x86_64,60,,,,,,,,,,,
,,,,,,,,,,,,,,p,0,0.522715,space,2.58707,0,62,62,180,1,0_targ_16_dist_red/trial6.png,,,0,16,redHorizontal,a,56,33,men,2021-02-27_15h20.22.432,exp11,2020.2.6,Linux x86_64,60,,,,,,,,,,,
,,,,,,,,,,,,,,p,1,0.579065,space,1.12663,0,63,63,62,1,9_dist_red/trial13.png,,,1,9,redHorizontal,p,56,33,men,2021-02-27_15h20.22.432,exp11,2020.2.6,Linux x86_64,60,,,,,,,,,,,
,,,,,,,,,,,,,,p,1,1.08528,space,0.69634,0,64,64,29,1,3_dist_red/trial5.png,,,1,3,redHorizontal,p,56,33,men,2021-02-27_15h20.22.432,exp11,2020.2.6,Linux x86_64,60,,,,,,,,,,,
,,,,,,,,,,,,,,p,1,1.365585,space,0.54813,0,65,65,65,1,9_dist_red/trial16.png,,,1,9,redHorizontal,p,56,33,men,2021-02-27_15h20.22.432,exp11,2020.2.6,Linux x86_64,60,,,,,,,,,,,
,,,,,,,,,,,,,,p,1,1.07264,space,0.648235,0,66,66,94,1,15_dist_red/trial20.png,,,1,15,redHorizontal,p,56,33,men,2021-02-27_15h20.22.432,exp11,2020.2.6,Linux x86_64,60,,,,,,,,,,,
,,,,,,,,,,,,,,p,0,1.20411,space,2.873145,0,67,67,181,1,0_targ_16_dist_red/trial7.png,,,0,16,redHorizontal,a,56,33,men,2021-02-27_15h20.22.432,exp11,2020.2.6,Linux x86_64,60,,,,,,,,,,,
,,,,,,,,,,,,,,p,1,0.543315,space,0.67562,0,68,68,39,1,3_dist_red/trial15.png,,,1,3,redHorizontal,p,56,33,men,2021-02-27_15h20.22.432,exp11,2020.2.6,Linux x86_64,60,,,,,,,,,,,
,,,,,,,,,,,,,,p,1,0.525385,space,0.7993,0,69,69,0,1,0_dist_red/trial1.png,,,1,0,redHorizontal,p,56,33,men,2021-02-27_15h20.22.432,exp11,2020.2.6,Linux x86_64,60,,,,,,,,,,,
,,,,,,,,,,,,,,a,1,1.278575,space,1.203455,0,70,70,120,1,0_targ_1_dist_red/trial21.png,,,0,1,redHorizontal,a,56,33,men,2021-02-27_15h20.22.432,exp11,2020.2.6,Linux x86_64,60,,,,,,,,,,,
,,,,,,,,,,,,,,p,1,0.88602,space,0.32995,0,71,71,14,1,0_dist_red/trial15.png,,,1,0,redHorizontal,p,56,33,men,2021-02-27_15h20.22.432,exp11,2020.2.6,Linux x86_64,60,,,,,,,,,,,
,,,,,,,,,,,,,,p,1,1.05046,space,0.397475,0,72,72,54,1,9_dist_red/trial5.png,,,1,9,redHorizontal,p,56,33,men,2021-02-27_15h20.22.432,exp11,2020.2.6,Linux x86_64,60,,,,,,,,,,,
,,,,,,,,,,,,,,p,1,0.599045,space,0.39885,0,73,73,3,1,0_dist_red/trial4.png,,,1,0,redHorizontal,p,56,33,men,2021-02-27_15h20.22.432,exp11,2020.2.6,Linux x86_64,60,,,,,,,,,,,
,,,,,,,,,,,,,,p,0,0.77513,space,2.2674,0,74,74,127,1,0_targ_4_dist_red/trial3.png,,,0,4,redHorizontal,a,56,33,men,2021-02-27_15h20.22.432,exp11,2020.2.6,Linux x86_64,60,,,,,,,,,,,
,,,,,,,,,,,,,,p,0,0.68663,space,2.05875,0,75,75,163,1,0_targ_10_dist_red/trial14.png,,,0,10,redHorizontal,a,56,33,men,2021-02-27_15h20.22.432,exp11,2020.2.6,Linux x86_64,60,,,,,,,,,,,
,,,,,,,,,,,,,,p,0,0.551135,space,1.186605,0,76,76,107,1,0_targ_1_dist_red/trial8.png,,,0,1,redHorizontal,a,56,33,men,2021-02-27_15h20.22.432,exp11,2020.2.6,Linux x86_64,60,,,,,,,,,,,
,,,,,,,,,,,,,,p,1,0.534175,space,0.375705,0,77,77,42,1,3_dist_red/trial18.png,,,1,3,redHorizontal,p,56,33,men,2021-02-27_15h20.22.432,exp11,2020.2.6,Linux x86_64,60,,,,,,,,,,,
,,,,,,,,,,,,,,p,1,0.6992,space,0.35716,0,78,78,28,1,3_dist_red/trial4.png,,,1,3,redHorizontal,p,56,33,men,2021-02-27_15h20.22.432,exp11,2020.2.6,Linux x86_64,60,,,,,,,,,,,
,,,,,,,,,,,,,,p,1,0.49902,space,0.46253,0,79,79,64,1,9_dist_red/trial15.png,,,1,9,redHorizontal,p,56,33,men,2021-02-27_15h20.22.432,exp11,2020.2.6,Linux x86_64,60,,,,,,,,,,,
,,,,,,,,,,,,,,p,0,0.527035,space,0.665785,0,80,80,167,1,0_targ_10_dist_red/trial18.png,,,0,10,redHorizontal,a,56,33,men,2021-02-27_15h20.22.432,exp11,2020.2.6,Linux x86_64,60,,,,,,,,,,,
,,,,,,,,,,,,,,p,0,0.45609,space,0.928,0,81,81,131,1,0_targ_4_dist_red/trial7.png,,,0,4,redHorizontal,a,56,33,men,2021-02-27_15h20.22.432,exp11,2020.2.6,Linux x86_64,60,,,,,,,,,,,
,,,,,,,,,,,,,,p,1,0.44203,space,0.57166,0,82,82,79,1,15_dist_red/trial5.png,,,1,15,redHorizontal,p,56,33,men,2021-02-27_15h20.22.432,exp11,2020.2.6,Linux x86_64,60,,,,,,,,,,,
,,,,,,,,,,,,,,p,0,0.514665,space,2.20156,0,83,83,153,1,0_targ_10_dist_red/trial4.png,,,0,10,redHorizontal,a,56,33,men,2021-02-27_15h20.22.432,exp11,2020.2.6,Linux x86_64,60,,,,,,,,,,,
,,,,,,,,,,,,,,p,0,0.428065,space,1.14628,0,84,84,173,1,0_targ_10_dist_red/trial24.png,,,0,10,redHorizontal,a,56,33,men,2021-02-27_15h20.22.432,exp11,2020.2.6,Linux x86_64,60,,,,,,,,,,,
,,,,,,,,,,,,,,p,0,0.41078,space,0.868435,0,85,85,185,1,0_targ_16_dist_red/trial11.png,,,0,16,redHorizontal,a,56,33,men,2021-02-27_15h20.22.432,exp11,2020.2.6,Linux x86_64,60,,,,,,,,,,,
,,,,,,,,,,,,,,p,0,0.503555,space,2.754255,0,86,86,172,1,0_targ_10_dist_red/trial23.png,,,0,10,redHorizontal,a,56,33,men,2021-02-27_15h20.22.432,exp11,2020.2.6,Linux x86_64,60,,,,,,,,,,,
,,,,,,,,,,,,,,p,1,0.55201,space,0.58788,0,87,87,25,1,3_dist_red/trial1.png,,,1,3,redHorizontal,p,56,33,men,2021-02-27_15h20.22.432,exp11,2020.2.6,Linux x86_64,60,,,,,,,,,,,
,,,,,,,,,,,,,,a,1,1.8463,space,0.975975,0,88,88,123,1,0_targ_1_dist_red/trial24.png,,,0,1,redHorizontal,a,56,33,men,2021-02-27_15h20.22.432,exp11,2020.2.6,Linux x86_64,60,,,,,,,,,,,
,,,,,,,,,,,,,,p,1,0.724475,space,0.48186,0,89,89,10,1,0_dist_red/trial11.png,,,1,0,redHorizontal,p,56,33,men,2021-02-27_15h20.22.432,exp11,2020.2.6,Linux x86_64,60,,,,,,,,,,,
,,,,,,,,,,,,,,p,0,0.53574,space,3.685675,0,90,90,108,1,0_targ_1_dist_red/trial9.png,,,0,1,redHorizontal,a,56,33,men,2021-02-27_15h20.22.432,exp11,2020.2.6,Linux x86_64,60,,,,,,,,,,,
,,,,,,,,,,,,,,p,1,0.516555,space,0.523695,0,91,91,58,1,9_dist_red/trial9.png,,,1,9,redHorizontal,p,56,33,men,2021-02-27_15h20.22.432,exp11,2020.2.6,Linux x86_64,60,,,,,,,,,,,
,,,,,,,,,,,,,,p,1,0.55927,space,0.580615,0,92,92,9,1,0_dist_red/trial10.png,,,1,0,redHorizontal,p,56,33,men,2021-02-27_15h20.22.432,exp11,2020.2.6,Linux x86_64,60,,,,,,,,,,,
,,,,,,,,,,,,,,p,1,0.53113,space,0.36542,0,93,93,2,1,0_dist_red/trial3.png,,,1,0,redHorizontal,p,56,33,men,2021-02-27_15h20.22.432,exp11,2020.2.6,Linux x86_64,60,,,,,,,,,,,
,,,,,,,,,,,,,,p,0,0.42853,space,2.461805,0,94,94,147,1,0_targ_4_dist_red/trial23.png,,,0,4,redHorizontal,a,56,33,men,2021-02-27_15h20.22.432,exp11,2020.2.6,Linux x86_64,60,,,,,,,,,,,
,,,,,,,,,,,,,,p,1,0.428685,space,0.69812,0,95,95,16,1,0_dist_red/trial17.png,,,1,0,redHorizontal,p,56,33,men,2021-02-27_15h20.22.432,exp11,2020.2.6,Linux x86_64,60,,,,,,,,,,,
,,,,,,,,,,,,,,p,0,0.512635,space,3.60937,0,96,96,154,1,0_targ_10_dist_red/trial5.png,,,0,10,redHorizontal,a,56,33,men,2021-02-27_15h20.22.432,exp11,2020.2.6,Linux x86_64,60,,,,,,,,,,,
,,,,,,,,,,,,,,p,0,0.4705,space,1.126925,0,97,97,134,1,0_targ_4_dist_red/trial10.png,,,0,4,redHorizontal,a,56,33,men,2021-02-27_15h20.22.432,exp11,2020.2.6,Linux x86_64,60,,,,,,,,,,,
,,,,,,,,,,,,,,p,0,0.446155,space,0.24488,0,98,98,144,1,0_targ_4_dist_red/trial20.png,,,0,4,redHorizontal,a,56,33,men,2021-02-27_15h20.22.432,exp11,2020.2.6,Linux x86_64,60,,,,,,,,,,,
,,,,,,,,,,,,,,p,1,0.446575,space,1.142365,0,99,99,44,1,3_dist_red/trial20.png,,,1,3,redHorizontal,p,56,33,men,2021-02-27_15h20.22.432,exp11,2020.2.6,Linux x86_64,60,,,,,,,,,,,
,,,,,,,,,,,,,,p,1,0.55671,space,0.704375,0,100,100,41,1,3_dist_red/trial17.png,,,1,3,redHorizontal,p,56,33,men,2021-02-27_15h20.22.432,exp11,2020.2.6,Linux x86_64,60,,,,,,,,,,,
,,,,,,,,,,,,,,p,0,0.524755,space,0.628045,0,101,101,170,1,0_targ_10_dist_red/trial21.png,,,0,10,redHorizontal,a,56,33,men,2021-02-27_15h20.22.432,exp11,2020.2.6,Linux x86_64,60,,,,,,,,,,,
,,,,,,,,,,,,,,p,1,0.73228,space,2.508305,0,102,102,46,1,3_dist_red/trial22.png,,,1,3,redHorizontal,p,56,33,men,2021-02-27_15h20.22.432,exp11,2020.2.6,Linux x86_64,60,,,,,,,,,,,
,,,,,,,,,,,,,,p,1,0.59239,space,0.48453,0,103,103,4,1,0_dist_red/trial5.png,,,1,0,redHorizontal,p,56,33,men,2021-02-27_15h20.22.432,exp11,2020.2.6,Linux x86_64,60,,,,,,,,,,,
,,,,,,,,,,,,,,p,0,0.568455,space,0.73543,0,104,104,165,1,0_targ_10_dist_red/trial16.png,,,0,10,redHorizontal,a,56,33,men,2021-02-27_15h20.22.432,exp11,2020.2.6,Linux x86_64,60,,,,,,,,,,,
,,,,,,,,,,,,,,p,0,0.52225,space,1.613065,0,105,105,161,1,0_targ_10_dist_red/trial12.png,,,0,10,redHorizontal,a,56,33,men,2021-02-27_15h20.22.432,exp11,2020.2.6,Linux x86_64,60,,,,,,,,,,,
,,,,,,,,,,,,,,p,1,0.40907,space,0.742055,0,106,106,61,1,9_dist_red/trial12.png,,,1,9,redHorizontal,p,56,33,men,2021-02-27_15h20.22.432,exp11,2020.2.6,Linux x86_64,60,,,,,,,,,,,
,,,,,,,,,,,,,,p,1,0.530595,space,0.437425,0,107,107,15,1,0_dist_red/trial16.png,,,1,0,redHorizontal,p,56,33,men,2021-02-27_15h20.22.432,exp11,2020.2.6,Linux x86_64,60,,,,,,,,,,,
,,,,,,,,,,,,,,p,0,0.453895,space,2.81234,0,108,108,186,1,0_targ_16_dist_red/trial12.png,,,0,16,redHorizontal,a,56,33,men,2021-02-27_15h20.22.432,exp11,2020.2.6,Linux x86_64,60,,,,,,,,,,,
,,,,,,,,,,,,,,p,1,0.4058,space,0.39933,0,109,109,67,1,9_dist_red/trial18.png,,,1,9,redHorizontal,p,56,33,men,2021-02-27_15h20.22.432,exp11,2020.2.6,Linux x86_64,60,,,,,,,,,,,
,,,,,,,,,,,,,,p,1,0.527165,space,0.43924,0,110,110,40,1,3_dist_red/trial16.png,,,1,3,redHorizontal,p,56,33,men,2021-02-27_15h20.22.432,exp11,2020.2.6,Linux x86_64,60,,,,,,,,,,,
,,,,,,,,,,,,,,p,0,0.537385,space,3.36393,0,111,111,174,1,0_targ_10_dist_red/trial25.png,,,0,10,redHorizontal,a,56,33,men,2021-02-27_15h20.22.432,exp11,2020.2.6,Linux x86_64,60,,,,,,,,,,,
,,,,,,,,,,,,,,p,0,0.49345,space,1.810375,0,112,112,103,1,0_targ_1_dist_red/trial4.png,,,0,1,redHorizontal,a,56,33,men,2021-02-27_15h20.22.432,exp11,2020.2.6,Linux x86_64,60,,,,,,,,,,,
,,,,,,,,,,,,,,p,1,0.51512,space,0.56631,0,113,113,59,1,9_dist_red/trial10.png,,,1,9,redHorizontal,p,56,33,men,2021-02-27_15h20.22.432,exp11,2020.2.6,Linux x86_64,60,,,,,,,,,,,
,,,,,,,,,,,,,,p,1,0.77999,space,0.43045,0,114,114,26,1,3_dist_red/trial2.png,,,1,3,redHorizontal,p,56,33,men,2021-02-27_15h20.22.432,exp11,2020.2.6,Linux x86_64,60,,,,,,,,,,,
,,,,,,,,,,,,,,p,1,0.48457,space,0.728195,0,115,115,82,1,15_dist_red/trial8.png,,,1,15,redHorizontal,p,56,33,men,2021-02-27_15h20.22.432,exp11,2020.2.6,Linux x86_64,60,,,,,,,,,,,
,,,,,,,,,,,,,,p,0,0.677745,space,1.26251,0,116,116,102,1,0_targ_1_dist_red/trial3.png,,,0,1,redHorizontal,a,56,33,men,2021-02-27_15h20.22.432,exp11,2020.2.6,Linux x86_64,60,,,,,,,,,,,
,,,,,,,,,,,,,,p,1,0.515205,space,0.38787,0,117,117,23,1,0_dist_red/trial24.png,,,1,0,redHorizontal,p,56,33,men,2021-02-27_15h20.22.432,exp11,2020.2.6,Linux x86_64,60,,,,,,,,,,,
,,,,,,,,,,,,,,p,1,0.69432,space,0.614375,0,118,118,85,1,15_dist_red/trial11.png,,,1,15,redHorizontal,p,56,33,men,2021-02-27_15h20.22.432,exp11,2020.2.6,Linux x86_64,60,,,,,,,,,,,
,,,,,,,,,,,,,,p,1,0.6106,space,0.425395,0,119,119,24,1,0_dist_red/trial25.png,,,1,0,redHorizontal,p,56,33,men,2021-02-27_15h20.22.432,exp11,2020.2.6,Linux x86_64,60,,,,,,,,,,,
,,,,,,,,,,,,,,p,1,0.725345,space,0.41487,0,120,120,57,1,9_dist_red/trial8.png,,,1,9,redHorizontal,p,56,33,men,2021-02-27_15h20.22.432,exp11,2020.2.6,Linux x86_64,60,,,,,,,,,,,
,,,,,,,,,,,,,,a,1,0.802775,space,0.91829,0,121,121,119,1,0_targ_1_dist_red/trial20.png,,,0,1,redHorizontal,a,56,33,men,2021-02-27_15h20.22.432,exp11,2020.2.6,Linux x86_64,60,,,,,,,,,,,
,,,,,,,,,,,,,,p,1,0.562775,space,0.46374,0,122,122,97,1,15_dist_red/trial23.png,,,1,15,redHorizontal,p,56,33,men,2021-02-27_15h20.22.432,exp11,2020.2.6,Linux x86_64,60,,,,,,,,,,,
,,,,,,,,,,,,,,p,1,0.53389,space,0.920725,0,123,123,73,1,9_dist_red/trial24.png,,,1,9,redHorizontal,p,56,33,men,2021-02-27_15h20.22.432,exp11,2020.2.6,Linux x86_64,60,,,,,,,,,,,
,,,,,,,,,,,,,,p,0,0.56733,space,5.09331,0,124,124,192,1,0_targ_16_dist_red/trial18.png,,,0,16,redHorizontal,a,56,33,men,2021-02-27_15h20.22.432,exp11,2020.2.6,Linux x86_64,60,,,,,,,,,,,
,,,,,,,,,,,,,,p,1,0.493775,space,1.949445,0,125,125,95,1,15_dist_red/trial21.png,,,1,15,redHorizontal,p,56,33,men,2021-02-27_15h20.22.432,exp11,2020.2.6,Linux x86_64,60,,,,,,,,,,,
,,,,,,,,,,,,,,p,0,0.565555,space,2.20921,0,126,126,148,1,0_targ_4_dist_red/trial24.png,,,0,4,redHorizontal,a,56,33,men,2021-02-27_15h20.22.432,exp11,2020.2.6,Linux x86_64,60,,,,,,,,,,,
,,,,,,,,,,,,,,p,0,0.5771,space,0.775895,0,127,127,199,1,0_targ_16_dist_red/trial25.png,,,0,16,redHorizontal,a,56,33,men,2021-02-27_15h20.22.432,exp11,2020.2.6,Linux x86_64,60,,,,,,,,,,,
,,,,,,,,,,,,,,p,0,0.573995,space,1.929965,0,128,128,164,1,0_targ_10_dist_red/trial15.png,,,0,10,redHorizontal,a,56,33,men,2021-02-27_15h20.22.432,exp11,2020.2.6,Linux x86_64,60,,,,,,,,,,,
,,,,,,,,,,,,,,a,1,1.207555,space,0.672495,0,129,129,121,1,0_targ_1_dist_red/trial22.png,,,0,1,redHorizontal,a,56,33,men,2021-02-27_15h20.22.432,exp11,2020.2.6,Linux x86_64,60,,,,,,,,,,,
,,,,,,,,,,,,,,p,1,0.58631,space,0.500395,0,130,130,36,1,3_dist_red/trial12.png,,,1,3,redHorizontal,p,56,33,men,2021-02-27_15h20.22.432,exp11,2020.2.6,Linux x86_64,60,,,,,,,,,,,
,,,,,,,,,,,,,,p,0,0.55999,space,1.675325,0,131,131,149,1,0_targ_4_dist_red/trial25.png,,,0,4,redHorizontal,a,56,33,men,2021-02-27_15h20.22.432,exp11,2020.2.6,Linux x86_64,60,,,,,,,,,,,
,,,,,,,,,,,,,,p,1,0.594775,space,0.66833,0,132,132,53,1,9_dist_red/trial4.png,,,1,9,redHorizontal,p,56,33,men,2021-02-27_15h20.22.432,exp11,2020.2.6,Linux x86_64,60,,,,,,,,,,,
,,,,,,,,,,,,,,a,1,0.83928,space,0.99594,0,133,133,122,1,0_targ_1_dist_red/trial23.png,,,0,1,redHorizontal,a,56,33,men,2021-02-27_15h20.22.432,exp11,2020.2.6,Linux x86_64,60,,,,,,,,,,,
,,,,,,,,,,,,,,p,1,0.550585,space,0.491215,0,134,134,60,1,9_dist_red/trial11.png,,,1,9,redHorizontal,p,56,33,men,2021-02-27_15h20.22.432,exp11,2020.2.6,Linux x86_64,60,,,,,,,,,,,
,,,,,,,,,,,,,,p,0,0.510135,space,2.352465,0,135,135,195,1,0_targ_16_dist_red/trial21.png,,,0,16,redHorizontal,a,56,33,men,2021-02-27_15h20.22.432,exp11,2020.2.6,Linux x86_64,60,,,,,,,,,,,
,,,,,,,,,,,,,,p,1,0.51844,space,0.45658,0,136,136,81,1,15_dist_red/trial7.png,,,1,15,redHorizontal,p,56,33,men,2021-02-27_15h20.22.432,exp11,2020.2.6,Linux x86_64,60,,,,,,,,,,,
,,,,,,,,,,,,,,p,0,0.72473,space,1.52982,0,137,137,126,1,0_targ_4_dist_red/trial2.png,,,0,4,redHorizontal,a,56,33,men,2021-02-27_15h20.22.432,exp11,2020.2.6,Linux x86_64,60,,,,,,,,,,,
,,,,,,,,,,,,,,p,0,0.42045,space,0.73638,0,138,138,111,1,0_targ_1_dist_red/trial12.png,,,0,1,redHorizontal,a,56,33,men,2021-02-27_15h20.22.432,exp11,2020.2.6,Linux x86_64,60,,,,,,,,,,,
,,,,,,,,,,,,,,p,1,0.58617,space,0.410945,0,139,139,34,1,3_dist_red/trial10.png,,,1,3,redHorizontal,p,56,33,men,2021-02-27_15h20.22.432,exp11,2020.2.6,Linux x86_64,60,,,,,,,,,,,
,,,,,,,,,,,,,,p,0,0.63256,space,2.129635,0,140,140,125,1,0_targ_4_dist_red/trial1.png,,,0,4,redHorizontal,a,56,33,men,2021-02-27_15h20.22.432,exp11,2020.2.6,Linux x86_64,60,,,,,,,,,,,
,,,,,,,,,,,,,,p,1,0.406165,space,0.969785,0,141,141,30,1,3_dist_red/trial6.png,,,1,3,redHorizontal,p,56,33,men,2021-02-27_15h20.22.432,exp11,2020.2.6,Linux x86_64,60,,,,,,,,,,,
,,,,,,,,,,,,,,p,0,0.43255,space,0.78715,0,142,142,145,1,0_targ_4_dist_red/trial21.png,,,0,4,redHorizontal,a,56,33,men,2021-02-27_15h20.22.432,exp11,2020.2.6,Linux x86_64,60,,,,,,,,,,,
,,,,,,,,,,,,,,p,1,0.577715,space,1.415655,0,143,143,19,1,0_dist_red/trial20.png,,,1,0,redHorizontal,p,56,33,men,2021-02-27_15h20.22.432,exp11,2020.2.6,Linux x86_64,60,,,,,,,,,,,
,,,,,,,,,,,,,,p,0,0.614835,space,0.75314,0,144,144,110,1,0_targ_1_dist_red/trial11.png,,,0,1,redHorizontal,a,56,33,men,2021-02-27_15h20.22.432,exp11,2020.2.6,Linux x86_64,60,,,,,,,,,,,
,,,,,,,,,,,,,,p,1,0.50736,space,0.83646,0,145,145,52,1,9_dist_red/trial3.png,,,1,9,redHorizontal,p,56,33,men,2021-02-27_15h20.22.432,exp11,2020.2.6,Linux x86_64,60,,,,,,,,,,,
,,,,,,,,,,,,,,p,0,0.536385,space,1.131345,0,146,146,100,1,0_targ_1_dist_red/trial1.png,,,0,1,redHorizontal,a,56,33,men,2021-02-27_15h20.22.432,exp11,2020.2.6,Linux x86_64,60,,,,,,,,,,,
,,,,,,,,,,,,,,p,0,0.43453,space,1.685155,0,147,147,106,1,0_targ_1_dist_red/trial7.png,,,0,1,redHorizontal,a,56,33,men,2021-02-27_15h20.22.432,exp11,2020.2.6,Linux x86_64,60,,,,,,,,,,,
,,,,,,,,,,,,,,p,0,0.45973,space,0.530095,0,148,148,109,1,0_targ_1_dist_red/trial10.png,,,0,1,redHorizontal,a,56,33,men,2021-02-27_15h20.22.432,exp11,2020.2.6,Linux x86_64,60,,,,,,,,,,,
,,,,,,,,,,,,,,p,1,0.52256,space,0.575215,0,149,149,69,1,9_dist_red/trial20.png,,,1,9,redHorizontal,p,56,33,men,2021-02-27_15h20.22.432,exp11,2020.2.6,Linux x86_64,60,,,,,,,,,,,
,,,,,,,,,,,,,,p,1,0.86281,space,0.486885,0,150,150,13,1,0_dist_red/trial14.png,,,1,0,redHorizontal,p,56,33,men,2021-02-27_15h20.22.432,exp11,2020.2.6,Linux x86_64,60,,,,,,,,,,,
,,,,,,,,,,,,,,p,0,0.603375,space,0.008845,0,151,151,171,1,0_targ_10_dist_red/trial22.png,,,0,10,redHorizontal,a,56,33,men,2021-02-27_15h20.22.432,exp11,2020.2.6,Linux x86_64,60,,,,,,,,,,,
,,,,,,,,,,,,,,p,1,0.51982,space,2.139025,0,152,152,51,1,9_dist_red/trial2.png,,,1,9,redHorizontal,p,56,33,men,2021-02-27_15h20.22.432,exp11,2020.2.6,Linux x86_64,60,,,,,,,,,,,
,,,,,,,,,,,,,,p,1,0.392595,space,1.57076,0,153,153,77,1,15_dist_red/trial3.png,,,1,15,redHorizontal,p,56,33,men,2021-02-27_15h20.22.432,exp11,2020.2.6,Linux x86_64,60,,,,,,,,,,,
,,,,,,,,,,,,,,p,0,0.446535,space,2.530725,0,154,154,158,1,0_targ_10_dist_red/trial9.png,,,0,10,redHorizontal,a,56,33,men,2021-02-27_15h20.22.432,exp11,2020.2.6,Linux x86_64,60,,,,,,,,,,,
,,,,,,,,,,,,,,p,1,0.500415,space,1.354555,0,155,155,43,1,3_dist_red/trial19.png,,,1,3,redHorizontal,p,56,33,men,2021-02-27_15h20.22.432,exp11,2020.2.6,Linux x86_64,60,,,,,,,,,,,
,,,,,,,,,,,,,,p,1,0.530415,space,0.770365,0,156,156,76,1,15_dist_red/trial2.png,,,1,15,redHorizontal,p,56,33,men,2021-02-27_15h20.22.432,exp11,2020.2.6,Linux x86_64,60,,,,,,,,,,,
,,,,,,,,,,,,,,p,0,0.548875,space,2.428285,0,157,157,168,1,0_targ_10_dist_red/trial19.png,,,0,10,redHorizontal,a,56,33,men,2021-02-27_15h20.22.432,exp11,2020.2.6,Linux x86_64,60,,,,,,,,,,,
,,,,,,,,,,,,,,p,1,0.58287,space,0.88904,0,158,158,21,1,0_dist_red/trial22.png,,,1,0,redHorizontal,p,56,33,men,2021-02-27_15h20.22.432,exp11,2020.2.6,Linux x86_64,60,,,,,,,,,,,
,,,,,,,,,,,,,,p,1,0.42524,space,0.704315,0,159,159,47,1,3_dist_red/trial23.png,,,1,3,redHorizontal,p,56,33,men,2021-02-27_15h20.22.432,exp11,2020.2.6,Linux x86_64,60,,,,,,,,,,,
,,,,,,,,,,,,,,p,1,0.55274,space,0.730165,0,160,160,83,1,15_dist_red/trial9.png,,,1,15,redHorizontal,p,56,33,men,2021-02-27_15h20.22.432,exp11,2020.2.6,Linux x86_64,60,,,,,,,,,,,
,,,,,,,,,,,,,,p,0,0.54985,space,1.72796,0,161,161,115,1,0_targ_1_dist_red/trial6.png,,,0,1,redHorizontal,a,56,33,men,2021-02-27_15h20.22.432,exp11,2020.2.6,Linux x86_64,60,,,,,,,,,,,
,,,,,,,,,,,,,,p,1,0.447855,space,1.057565,0,162,162,66,1,9_dist_red/trial17.png,,,1,9,redHorizontal,p,56,33,men,2021-02-27_15h20.22.432,exp11,2020.2.6,Linux x86_64,60,,,,,,,,,,,
,,,,,,,,,,,,,,p,0,0.48913,space,1.21483,0,163,163,104,1,0_targ_1_dist_red/trial5.png,,,0,1,redHorizontal,a,56,33,men,2021-02-27_15h20.22.432,exp11,2020.2.6,Linux x86_64,60,,,,,,,,,,,
,,,,,,,,,,,,,,p,0,0.448275,space,0.336285,0,164,164,155,1,0_targ_10_dist_red/trial6.png,,,0,10,redHorizontal,a,56,33,men,2021-02-27_15h20.22.432,exp11,2020.2.6,Linux x86_64,60,,,,,,,,,,,
,,,,,,,,,,,,,,p,1,0.44197,space,0.757655,0,165,165,1,1,0_dist_red/trial2.png,,,1,0,redHorizontal,p,56,33,men,2021-02-27_15h20.22.432,exp11,2020.2.6,Linux x86_64,60,,,,,,,,,,,
,,,,,,,,,,,,,,p,1,0.46334,space,0.870655,0,166,166,68,1,9_dist_red/trial19.png,,,1,9,redHorizontal,p,56,33,men,2021-02-27_15h20.22.432,exp11,2020.2.6,Linux x86_64,60,,,,,,,,,,,
,,,,,,,,,,,,,,p,0,0.546445,space,1.94543,0,167,167,184,1,0_targ_16_dist_red/trial10.png,,,0,16,redHorizontal,a,56,33,men,2021-02-27_15h20.22.432,exp11,2020.2.6,Linux x86_64,60,,,,,,,,,,,
,,,,,,,,,,,,,,p,0,0.3753,space,1.56579,0,168,168,140,1,0_targ_4_dist_red/trial6.png,,,0,4,redHorizontal,a,56,33,men,2021-02-27_15h20.22.432,exp11,2020.2.6,Linux x86_64,60,,,,,,,,,,,
,,,,,,,,,,,,,,p,1,0.542085,space,0.476635,0,169,169,11,1,0_dist_red/trial12.png,,,1,0,redHorizontal,p,56,33,men,2021-02-27_15h20.22.432,exp11,2020.2.6,Linux x86_64,60,,,,,,,,,,,
,,,,,,,,,,,,,,p,1,0.544095,space,0.40864,0,170,170,38,1,3_dist_red/trial14.png,,,1,3,redHorizontal,p,56,33,men,2021-02-27_15h20.22.432,exp11,2020.2.6,Linux x86_64,60,,,,,,,,,,,
,,,,,,,,,,,,,,a,1,0.838335,space,0.499155,0,171,171,118,1,0_targ_1_dist_red/trial19.png,,,0,1,redHorizontal,a,56,33,men,2021-02-27_15h20.22.432,exp11,2020.2.6,Linux x86_64,60,,,,,,,,,,,
,,,,,,,,,,,,,,p,0,0.48015,space,1.04411,0,172,172,177,1,0_targ_16_dist_red/trial3.png,,,0,16,redHorizontal,a,56,33,men,2021-02-27_15h20.22.432,exp11,2020.2.6,Linux x86_64,60,,,,,,,,,,,
,,,,,,,,,,,,,,p,0,0.37691,space,0.81685,0,173,173,176,1,0_targ_16_dist_red/trial2.png,,,0,16,redHorizontal,a,56,33,men,2021-02-27_15h20.22.432,exp11,2020.2.6,Linux x86_64,60,,,,,,,,,,,
,,,,,,,,,,,,,,p,0,0.407375,space,0.04686,0,174,174,178,1,0_targ_16_dist_red/trial4.png,,,0,16,redHorizontal,a,56,33,men,2021-02-27_15h20.22.432,exp11,2020.2.6,Linux x86_64,60,,,,,,,,,,,
,,,,,,,,,,,,,,p,0,0.39838,space,0.47953,0,175,175,136,1,0_targ_4_dist_red/trial12.png,,,0,4,redHorizontal,a,56,33,men,2021-02-27_15h20.22.432,exp11,2020.2.6,Linux x86_64,60,,,,,,,,,,,
,,,,,,,,,,,,,,p,0,0.48184,space,0.427145,0,176,176,133,1,0_targ_4_dist_red/trial9.png,,,0,4,redHorizontal,a,56,33,men,2021-02-27_15h20.22.432,exp11,2020.2.6,Linux x86_64,60,,,,,,,,,,,
,,,,,,,,,,,,,,p,0,0.409155,space,1.981605,0,177,177,138,1,0_targ_4_dist_red/trial14.png,,,0,4,redHorizontal,a,56,33,men,2021-02-27_15h20.22.432,exp11,2020.2.6,Linux x86_64,60,,,,,,,,,,,
,,,,,,,,,,,,,,p,1,0.37597,space,2.328885,0,178,178,55,1,9_dist_red/trial6.png,,,1,9,redHorizontal,p,56,33,men,2021-02-27_15h20.22.432,exp11,2020.2.6,Linux x86_64,60,,,,,,,,,,,
,,,,,,,,,,,,,,p,1,0.36604,space,0.639465,0,179,179,75,1,15_dist_red/trial1.png,,,1,15,redHorizontal,p,56,33,men,2021-02-27_15h20.22.432,exp11,2020.2.6,Linux x86_64,60,,,,,,,,,,,
,,,,,,,,,,,,,,p,1,0.43476,space,0.527795,0,180,180,72,1,9_dist_red/trial23.png,,,1,9,redHorizontal,p,56,33,men,2021-02-27_15h20.22.432,exp11,2020.2.6,Linux x86_64,60,,,,,,,,,,,
,,,,,,,,,,,,,,p,0,0.48381,space,0.119675,0,181,181,141,1,0_targ_4_dist_red/trial17.png,,,0,4,redHorizontal,a,56,33,men,2021-02-27_15h20.22.432,exp11,2020.2.6,Linux x86_64,60,,,,,,,,,,,
,,,,,,,,,,,,,,p,0,0.433975,space,0.321765,0,182,182,175,1,0_targ_16_dist_red/trial1.png,,,0,16,redHorizontal,a,56,33,men,2021-02-27_15h20.22.432,exp11,2020.2.6,Linux x86_64,60,,,,,,,,,,,
,,,,,,,,,,,,,,p,1,0.651515,space,0.57835,0,183,183,71,1,9_dist_red/trial22.png,,,1,9,redHorizontal,p,56,33,men,2021-02-27_15h20.22.432,exp11,2020.2.6,Linux x86_64,60,,,,,,,,,,,
,,,,,,,,,,,,,,p,1,0.472865,space,0.488085,0,184,184,35,1,3_dist_red/trial11.png,,,1,3,redHorizontal,p,56,33,men,2021-02-27_15h20.22.432,exp11,2020.2.6,Linux x86_64,60,,,,,,,,,,,
,,,,,,,,,,,,,,p,1,0.506075,space,0.515375,0,185,185,86,1,15_dist_red/trial12.png,,,1,15,redHorizontal,p,56,33,men,2021-02-27_15h20.22.432,exp11,2020.2.6,Linux x86_64,60,,,,,,,,,,,
,,,,,,,,,,,,,,p,1,0.54376,space,0.55527,0,186,186,22,1,0_dist_red/trial23.png,,,1,0,redHorizontal,p,56,33,men,2021-02-27_15h20.22.432,exp11,2020.2.6,Linux x86_64,60,,,,,,,,,,,
,,,,,,,,,,,,,,p,0,0.519245,space,0.19122,0,187,187,182,1,0_targ_16_dist_red/trial8.png,,,0,16,redHorizontal,a,56,33,men,2021-02-27_15h20.22.432,exp11,2020.2.6,Linux x86_64,60,,,,,,,,,,,
,,,,,,,,,,,,,,p,1,0.38386,space,0.79117,0,188,188,56,1,9_dist_red/trial7.png,,,1,9,redHorizontal,p,56,33,men,2021-02-27_15h20.22.432,exp11,2020.2.6,Linux x86_64,60,,,,,,,,,,,
,,,,,,,,,,,,,,p,1,0.33341,space,0.49238,0,189,189,31,1,3_dist_red/trial7.png,,,1,3,redHorizontal,p,56,33,men,2021-02-27_15h20.22.432,exp11,2020.2.6,Linux x86_64,60,,,,,,,,,,,
,,,,,,,,,,,,,,p,1,0.38997,space,0.51545,0,190,190,7,1,0_dist_red/trial8.png,,,1,0,redHorizontal,p,56,33,men,2021-02-27_15h20.22.432,exp11,2020.2.6,Linux x86_64,60,,,,,,,,,,,
,,,,,,,,,,,,,,p,0,0.43184,space,0.51108,0,191,191,146,1,0_targ_4_dist_red/trial22.png,,,0,4,redHorizontal,a,56,33,men,2021-02-27_15h20.22.432,exp11,2020.2.6,Linux x86_64,60,,,,,,,,,,,
,,,,,,,,,,,,,,p,0,0.40069,space,0.656965,0,192,192,142,1,0_targ_4_dist_red/trial18.png,,,0,4,redHorizontal,a,56,33,men,2021-02-27_15h20.22.432,exp11,2020.2.6,Linux x86_64,60,,,,,,,,,,,
,,,,,,,,,,,,,,p,0,0.44014,space,1.026995,0,193,193,162,1,0_targ_10_dist_red/trial13.png,,,0,10,redHorizontal,a,56,33,men,2021-02-27_15h20.22.432,exp11,2020.2.6,Linux x86_64,60,,,,,,,,,,,
,,,,,,,,,,,,,,p,1,0.37941,space,0.62434,0,194,194,45,1,3_dist_red/trial21.png,,,1,3,redHorizontal,p,56,33,men,2021-02-27_15h20.22.432,exp11,2020.2.6,Linux x86_64,60,,,,,,,,,,,
,,,,,,,,,,,,,,p,0,0.44643,space,0.87429,0,195,195,183,1,0_targ_16_dist_red/trial9.png,,,0,16,redHorizontal,a,56,33,men,2021-02-27_15h20.22.432,exp11,2020.2.6,Linux x86_64,60,,,,,,,,,,,
,,,,,,,,,,,,,,p,0,0.397085,space,0.846155,0,196,196,139,1,0_targ_4_dist_red/trial15.png,,,0,4,redHorizontal,a,56,33,men,2021-02-27_15h20.22.432,exp11,2020.2.6,Linux x86_64,60,,,,,,,,,,,
,,,,,,,,,,,,,,p,0,0.450235,space,0.02264,0,197,197,135,1,0_targ_4_dist_red/trial11.png,,,0,4,redHorizontal,a,56,33,men,2021-02-27_15h20.22.432,exp11,2020.2.6,Linux x86_64,60,,,,,,,,,,,
,,,,,,,,,,,,,,p,0,0.553735,space,0.006105,0,198,198,143,1,0_targ_4_dist_red/trial19.png,,,0,4,redHorizontal,a,56,33,men,2021-02-27_15h20.22.432,exp11,2020.2.6,Linux x86_64,60,,,,,,,,,,,
,,,,,,,,,,,,,,p,0,0.46843,space,0.4448,0,199,199,151,1,0_targ_10_dist_red/trial2.png,,,0,10,redHorizontal,a,56,33,men,2021-02-27_15h20.22.432,exp11,2020.2.6,Linux x86_64,60,,,,,,,,,,,
,,,,,,,,,,,,,,,,,,,,,,,,,,,,,,,56,33,men,2021-02-27_15h20.22.432,exp11,2020.2.6,Linux x86_64,60,0,0,0,1,1,conRed.xlsx,red horizontal,Look for red horizontal bar (target) and indicate if it is present or absent in the array. If red horizontal target is present press 'p' and if absent press 'a'. Press SPACE to start.,,,
,,,,,,,,,,space,15.14159,space,2.158375,p,0,1.097465,space,1.55338,0,0,0,186,1,0_targ_16_dist_green/trial12.png,,,0,16,greenverival,a,56,33,men,2021-02-27_15h20.22.432,exp11,2020.2.6,Linux x86_64,60,,,,,,,,,,,
,,,,,,,,,,,,,,p,1,0.77796,space,0.36191,0,1,1,6,1,0_dist_green/trial7.png,,,1,0,greenverival,p,56,33,men,2021-02-27_15h20.22.432,exp11,2020.2.6,Linux x86_64,60,,,,,,,,,,,
,,,,,,,,,,,,,,p,1,0.7647,space,0.429765,0,2,2,69,1,9_dist_green/trial20.png,,,1,9,greenverival,p,56,33,men,2021-02-27_15h20.22.432,exp11,2020.2.6,Linux x86_64,60,,,,,,,,,,,
,,,,,,,,,,,,,,p,1,0.617035,space,0.39184,0,3,3,96,1,15_dist_green/trial22.png,,,1,15,greenverival,p,56,33,men,2021-02-27_15h20.22.432,exp11,2020.2.6,Linux x86_64,60,,,,,,,,,,,
,,,,,,,,,,,,,,p,1,0.4929,space,0.434685,0,4,4,57,1,9_dist_green/trial8.png,,,1,9,greenverival,p,56,33,men,2021-02-27_15h20.22.432,exp11,2020.2.6,Linux x86_64,60,,,,,,,,,,,
,,,,,,,,,,,,,,p,1,0.59066,space,0.428515,0,5,5,46,1,3_dist_green/trial22.png,,,1,3,greenverival,p,56,33,men,2021-02-27_15h20.22.432,exp11,2020.2.6,Linux x86_64,60,,,,,,,,,,,
,,,,,,,,,,,,,,a,1,0.696995,space,0.518885,0,6,6,113,1,0_targ_1_dist_green/trial14.png,,,0,1,greenverival,a,56,33,men,2021-02-27_15h20.22.432,exp11,2020.2.6,Linux x86_64,60,,,,,,,,,,,
,,,,,,,,,,,,,,p,0,0.449205,space,2.658095,0,7,7,162,1,0_targ_10_dist_green/trial13.png,,,0,10,greenverival,a,56,33,men,2021-02-27_15h20.22.432,exp11,2020.2.6,Linux x86_64,60,,,,,,,,,,,
,,,,,,,,,,,,,,p,0,0.488185,space,0.067695,0,8,8,184,1,0_targ_16_dist_green/trial10.png,,,0,16,greenverival,a,56,33,men,2021-02-27_15h20.22.432,exp11,2020.2.6,Linux x86_64,60,,,,,,,,,,,
,,,,,,,,,,,,,,p,1,0.788235,space,0.49436,0,9,9,63,1,9_dist_green/trial14.png,,,1,9,greenverival,p,56,33,men,2021-02-27_15h20.22.432,exp11,2020.2.6,Linux x86_64,60,,,,,,,,,,,
,,,,,,,,,,,,,,p,0,0.57138,space,1.253375,0,10,10,198,1,0_targ_16_dist_green/trial24.png,,,0,16,greenverival,a,56,33,men,2021-02-27_15h20.22.432,exp11,2020.2.6,Linux x86_64,60,,,,,,,,,,,
,,,,,,,,,,,,,,p,0,0.41126,space,0.253495,0,11,11,155,1,0_targ_10_dist_green/trial6.png,,,0,10,greenverival,a,56,33,men,2021-02-27_15h20.22.432,exp11,2020.2.6,Linux x86_64,60,,,,,,,,,,,
,,,,,,,,,,,,,,p,0,0.454415,space,0.18412,0,12,12,158,1,0_targ_10_dist_green/trial9.png,,,0,10,greenverival,a,56,33,men,2021-02-27_15h20.22.432,exp11,2020.2.6,Linux x86_64,60,,,,,,,,,,,
,,,,,,,,,,,,,,p,0,0.53504,space,0.612355,0,13,13,154,1,0_targ_10_dist_green/trial5.png,,,0,10,greenverival,a,56,33,men,2021-02-27_15h20.22.432,exp11,2020.2.6,Linux x86_64,60,,,,,,,,,,,
,,,,,,,,,,,,,,p,0,0.41598,space,0.442685,0,14,14,183,1,0_targ_16_dist_green/trial9.png,,,0,16,greenverival,a,56,33,men,2021-02-27_15h20.22.432,exp11,2020.2.6,Linux x86_64,60,,,,,,,,,,,
,,,,,,,,,,,,,,p,1,0.376215,space,0.42486,0,15,15,28,1,3_dist_green/trial4.png,,,1,3,greenverival,p,56,33,men,2021-02-27_15h20.22.432,exp11,2020.2.6,Linux x86_64,60,,,,,,,,,,,
,,,,,,,,,,,,,,p,0,0.510275,space,0.418785,0,16,16,160,1,0_targ_10_dist_green/trial11.png,,,0,10,greenverival,a,56,33,men,2021-02-27_15h20.22.432,exp11,2020.2.6,Linux x86_64,60,,,,,,,,,,,
,,,,,,,,,,,,,,p,1,0.491585,space,0.71133,0,17,17,12,1,0_dist_green/trial13.png,,,1,0,greenverival,p,56,33,men,2021-02-27_15h20.22.432,exp11,2020.2.6,Linux x86_64,60,,,,,,,,,,,
,,,,,,,,,,,,,,p,0,0.51325,space,0.42681,0,18,18,173,1,0_targ_10_dist_green/trial24.png,,,0,10,greenverival,a,56,33,men,2021-02-27_15h20.22.432,exp11,2020.2.6,Linux x86_64,60,,,,,,,,,,,
,,,,,,,,,,,,,,p,1,0.487445,space,0.38958,0,19,19,5,1,0_dist_green/trial6.png,,,1,0,greenverival,p,56,33,men,2021-02-27_15h20.22.432,exp11,2020.2.6,Linux x86_64,60,,,,,,,,,,,
,,,,,,,,,,,,,,p,0,0.600135,space,0.442615,0,20,20,192,1,0_targ_16_dist_green/trial18.png,,,0,16,greenverival,a,56,33,men,2021-02-27_15h20.22.432,exp11,2020.2.6,Linux x86_64,60,,,,,,,,,,,
,,,,,,,,,,,,,,p,0,0.47226,space,0.485645,0,21,21,194,1,0_targ_16_dist_green/trial20.png,,,0,16,greenverival,a,56,33,men,2021-02-27_15h20.22.432,exp11,2020.2.6,Linux x86_64,60,,,,,,,,,,,
,,,,,,,,,,,,,,p,0,0.47343,space,0.001925,0,22,22,191,1,0_targ_16_dist_green/trial17.png,,,0,16,greenverival,a,56,33,men,2021-02-27_15h20.22.432,exp11,2020.2.6,Linux x86_64,60,,,,,,,,,,,
,,,,,,,,,,,,,,p,1,0.59145,space,0.42789,0,23,23,88,1,15_dist_green/trial14.png,,,1,15,greenverival,p,56,33,men,2021-02-27_15h20.22.432,exp11,2020.2.6,Linux x86_64,60,,,,,,,,,,,
,,,,,,,,,,,,,,p,1,0.7969,space,0.58341,0,24,24,0,1,0_dist_green/trial1.png,,,1,0,greenverival,p,56,33,men,2021-02-27_15h20.22.432,exp11,2020.2.6,Linux x86_64,60,,,,,,,,,,,
,,,,,,,,,,,,,,p,1,0.48152,space,0.4568,0,25,25,24,1,0_dist_green/trial25.png,,,1,0,greenverival,p,56,33,men,2021-02-27_15h20.22.432,exp11,2020.2.6,Linux x86_64,60,,,,,,,,,,,
,,,,,,,,,,,,,,p,0,0.558545,space,0.08112,0,26,26,196,1,0_targ_16_dist_green/trial22.png,,,0,16,greenverival,a,56,33,men,2021-02-27_15h20.22.432,exp11,2020.2.6,Linux x86_64,60,,,,,,,,,,,
,,,,,,,,,,,,,,p,0,0.625275,space,0.42784,0,27,27,159,1,0_targ_10_dist_green/trial10.png,,,0,10,greenverival,a,56,33,men,2021-02-27_15h20.22.432,exp11,2020.2.6,Linux x86_64,60,,,,,,,,,,,
,,,,,,,,,,,,,,p,0,0.46896,space,0.51242,0,28,28,164,1,0_targ_10_dist_green/trial15.png,,,0,10,greenverival,a,56,33,men,2021-02-27_15h20.22.432,exp11,2020.2.6,Linux x86_64,60,,,,,,,,,,,
,,,,,,,,,,,,,,p,0,0.49865,space,0.065075,0,29,29,157,1,0_targ_10_dist_green/trial8.png,,,0,10,greenverival,a,56,33,men,2021-02-27_15h20.22.432,exp11,2020.2.6,Linux x86_64,60,,,,,,,,,,,
,,,,,,,,,,,,,,p,0,0.498955,space,0.24942,0,30,30,161,1,0_targ_10_dist_green/trial12.png,,,0,10,greenverival,a,56,33,men,2021-02-27_15h20.22.432,exp11,2020.2.6,Linux x86_64,60,,,,,,,,,,,
,,,,,,,,,,,,,,p,1,0.39681,space,0.45527,0,31,31,86,1,15_dist_green/trial12.png,,,1,15,greenverival,p,56,33,men,2021-02-27_15h20.22.432,exp11,2020.2.6,Linux x86_64,60,,,,,,,,,,,
,,,,,,,,,,,,,,p,1,0.82329,space,1.525885,0,32,32,8,1,0_dist_green/trial9.png,,,1,0,greenverival,p,56,33,men,2021-02-27_15h20.22.432,exp11,2020.2.6,Linux x86_64,60,,,,,,,,,,,
,,,,,,,,,,,,,,p,1,0.4574,space,0.80067,0,33,33,81,1,15_dist_green/trial7.png,,,1,15,greenverival,p,56,33,men,2021-02-27_15h20.22.432,exp11,2020.2.6,Linux x86_64,60,,,,,,,,,,,
,,,,,,,,,,,,,,p,0,0.422595,space,0.36428,0,34,34,177,1,0_targ_16_dist_green/trial3.png,,,0,16,greenverival,a,56,33,men,2021-02-27_15h20.22.432,exp11,2020.2.6,Linux x86_64,60,,,,,,,,,,,
,,,,,,,,,,,,,,p,1,0.477825,space,0.41752,0,35,35,36,1,3_dist_green/trial12.png,,,1,3,greenverival,p,56,33,men,2021-02-27_15h20.22.432,exp11,2020.2.6,Linux x86_64,60,,,,,,,,,,,
,,,,,,,,,,,,,,p,0,0.60315,space,0.82566,0,36,36,179,1,0_targ_16_dist_green/trial5.png,,,0,16,greenverival,a,56,33,men,2021-02-27_15h20.22.432,exp11,2020.2.6,Linux x86_64,60,,,,,,,,,,,
,,,,,,,,,,,,,,p,0,0.525115,space,0.53369,0,37,37,132,1,0_targ_4_dist_green/trial8.png,,,0,4,greenverival,a,56,33,men,2021-02-27_15h20.22.432,exp11,2020.2.6,Linux x86_64,60,,,,,,,,,,,
,,,,,,,,,,,,,,p,0,0.436875,space,0.340805,0,38,38,190,1,0_targ_16_dist_green/trial16.png,,,0,16,greenverival,a,56,33,men,2021-02-27_15h20.22.432,exp11,2020.2.6,Linux x86_64,60,,,,,,,,,,,
,,,,,,,,,,,,,,p,0,0.432765,space,0.09162,0,39,39,152,1,0_targ_10_dist_green/trial3.png,,,0,10,greenverival,a,56,33,men,2021-02-27_15h20.22.432,exp11,2020.2.6,Linux x86_64,60,,,,,,,,,,,
,,,,,,,,,,,,,,p,1,0.407035,space,0.4738,0,40,40,80,1,15_dist_green/trial6.png,,,1,15,greenverival,p,56,33,men,2021-02-27_15h20.22.432,exp11,2020.2.6,Linux x86_64,60,,,,,,,,,,,
,,,,,,,,,,,,,,p,1,1.02428,space,0.505895,0,41,41,20,1,0_dist_green/trial21.png,,,1,0,greenverival,p,56,33,men,2021-02-27_15h20.22.432,exp11,2020.2.6,Linux x86_64,60,,,,,,,,,,,
,,,,,,,,,,,,,,p,1,0.40494,space,0.44426,0,42,42,13,1,0_dist_green/trial14.png,,,1,0,greenverival,p,56,33,men,2021-02-27_15h20.22.432,exp11,2020.2.6,Linux x86_64,60,,,,,,,,,,,
,,,,,,,,,,,,,,p,0,0.50085,space,1.211555,0,43,43,180,1,0_targ_16_dist_green/trial6.png,,,0,16,greenverival,a,56,33,men,2021-02-27_15h20.22.432,exp11,2020.2.6,Linux x86_64,60,,,,,,,,,,,
,,,,,,,,,,,,,,p,0,0.46622,space,1.099425,0,44,44,146,1,0_targ_4_dist_green/trial22.png,,,0,4,greenverival,a,56,33,men,2021-02-27_15h20.22.432,exp11,2020.2.6,Linux x86_64,60,,,,,,,,,,,
,,,,,,,,,,,,,,p,1,0.401575,space,0.511905,0,45,45,18,1,0_dist_green/trial19.png,,,1,0,greenverival,p,56,33,men,2021-02-27_15h20.22.432,exp11,2020.2.6,Linux x86_64,60,,,,,,,,,,,
,,,,,,,,,,,,,,p,0,0.485175,space,0.56225,0,46,46,176,1,0_targ_16_dist_green/trial2.png,,,0,16,greenverival,a,56,33,men,2021-02-27_15h20.22.432,exp11,2020.2.6,Linux x86_64,60,,,,,,,,,,,
,,,,,,,,,,,,,,p,1,0.4522,space,0.38739,0,47,47,9,1,0_dist_green/trial10.png,,,1,0,greenverival,p,56,33,men,2021-02-27_15h20.22.432,exp11,2020.2.6,Linux x86_64,60,,,,,,,,,,,
,,,,,,,,,,,,,,a,1,0.892435,space,0.61574,0,48,48,123,1,0_targ_1_dist_green/trial24.png,,,0,1,greenverival,a,56,33,men,2021-02-27_15h20.22.432,exp11,2020.2.6,Linux x86_64,60,,,,,,,,,,,
,,,,,,,,,,,,,,p,0,0.543105,space,0.197485,0,49,49,135,1,0_targ_4_dist_green/trial11.png,,,0,4,greenverival,a,56,33,men,2021-02-27_15h20.22.432,exp11,2020.2.6,Linux x86_64,60,,,,,,,,,,,
,,,,,,,,,,,,,,p,1,0.563325,space,0.525815,0,50,50,89,1,15_dist_green/trial15.png,,,1,15,greenverival,p,56,33,men,2021-02-27_15h20.22.432,exp11,2020.2.6,Linux x86_64,60,,,,,,,,,,,
,,,,,,,,,,,,,,p,1,0.487165,space,0.90327,0,51,51,78,1,15_dist_green/trial4.png,,,1,15,greenverival,p,56,33,men,2021-02-27_15h20.22.432,exp11,2020.2.6,Linux x86_64,60,,,,,,,,,,,
,,,,,,,,,,,,,,a,1,0.782565,space,0.465465,0,52,52,112,1,0_targ_1_dist_green/trial13.png,,,0,1,greenverival,a,56,33,men,2021-02-27_15h20.22.432,exp11,2020.2.6,Linux x86_64,60,,,,,,,,,,,
,,,,,,,,,,,,,,p,0,0.70947,space,1.248505,0,53,53,110,1,0_targ_1_dist_green/trial11.png,,,0,1,greenverival,a,56,33,men,2021-02-27_15h20.22.432,exp11,2020.2.6,Linux x86_64,60,,,,,,,,,,,
,,,,,,,,,,,,,,p,0,0.51099,space,0.83732,0,54,54,156,1,0_targ_10_dist_green/trial7.png,,,0,10,greenverival,a,56,33,men,2021-02-27_15h20.22.432,exp11,2020.2.6,Linux x86_64,60,,,,,,,,,,,
,,,,,,,,,,,,,,p,1,0.434305,space,0.742645,0,55,55,82,1,15_dist_green/trial8.png,,,1,15,greenverival,p,56,33,men,2021-02-27_15h20.22.432,exp11,2020.2.6,Linux x86_64,60,,,,,,,,,,,
,,,,,,,,,,,,,,p,1,0.621035,space,1.026165,0,56,56,75,1,15_dist_green/trial1.png,,,1,15,greenverival,p,56,33,men,2021-02-27_15h20.22.432,exp11,2020.2.6,Linux x86_64,60,,,,,,,,,,,
,,,,,,,,,,,,,,p,1,0.47913,space,0.4225,0,57,57,10,1,0_dist_green/trial11.png,,,1,0,greenverival,p,56,33,men,2021-02-27_15h20.22.432,exp11,2020.2.6,Linux x86_64,60,,,,,,,,,,,
,,,,,,,,,,,,,,a,1,0.478425,space,0.59175,0,58,58,120,1,0_targ_1_dist_green/trial21.png,,,0,1,greenverival,a,56,33,men,2021-02-27_15h20.22.432,exp11,2020.2.6,Linux x86_64,60,,,,,,,,,,,
,,,,,,,,,,,,,,p,0,0.52563,space,0.504545,0,59,59,104,1,0_targ_1_dist_green/trial5.png,,,0,1,greenverival,a,56,33,men,2021-02-27_15h20.22.432,exp11,2020.2.6,Linux x86_64,60,,,,,,,,,,,
,,,,,,,,,,,,,,p,0,0.542195,space,0.37628,0,60,60,142,1,0_targ_4_dist_green/trial18.png,,,0,4,greenverival,a,56,33,men,2021-02-27_15h20.22.432,exp11,2020.2.6,Linux x86_64,60,,,,,,,,,,,
,,,,,,,,,,,,,,p,0,0.420885,space,1.080645,0,61,61,106,1,0_targ_1_dist_green/trial7.png,,,0,1,greenverival,a,56,33,men,2021-02-27_15h20.22.432,exp11,2020.2.6,Linux x86_64,60,,,,,,,,,,,
,,,,,,,,,,,,,,p,1,0.419145,space,0.410145,0,62,62,48,1,3_dist_green/trial24.png,,,1,3,greenverival,p,56,33,men,2021-02-27_15h20.22.432,exp11,2020.2.6,Linux x86_64,60,,,,,,,,,,,
,,,,,,,,,,,,,,p,0,0.523565,space,0.40711,0,63,63,149,1,0_targ_4_dist_green/trial25.png,,,0,4,greenverival,a,56,33,men,2021-02-27_15h20.22.432,exp11,2020.2.6,Linux x86_64,60,,,,,,,,,,,
,,,,,,,,,,,,,,p,0,0.47951,space,0.348415,0,64,64,133,1,0_targ_4_dist_green/trial9.png,,,0,4,greenverival,a,56,33,men,2021-02-27_15h20.22.432,exp11,2020.2.6,Linux x86_64,60,,,,,,,,,,,
,,,,,,,,,,,,,,p,0,0.554825,space,1.56683,0,65,65,134,1,0_targ_4_dist_green/trial10.png,,,0,4,greenverival,a,56,33,men,2021-02-27_15h20.22.432,exp11,2020.2.6,Linux x86_64,60,,,,,,,,,,,
,,,,,,,,,,,,,,p,1,0.52357,space,0.76892,0,66,66,87,1,15_dist_green/trial13.png,,,1,15,greenverival,p,56,33,men,2021-02-27_15h20.22.432,exp11,2020.2.6,Linux x86_64,60,,,,,,,,,,,
,,,,,,,,,,,,,,p,1,0.623105,space,0.543905,0,67,67,25,1,3_dist_green/trial1.png,,,1,3,greenverival,p,56,33,men,2021-02-27_15h20.22.432,exp11,2020.2.6,Linux x86_64,60,,,,,,,,,,,
,,,,,,,,,,,,,,p,1,0.529285,space,0.569355,0,68,68,40,1,3_dist_green/trial16.png,,,1,3,greenverival,p,56,33,men,2021-02-27_15h20.22.432,exp11,2020.2.6,Linux x86_64,60,,,,,,,,,,,
,,,,,,,,,,,,,,p,1,0.45884,space,0.587745,0,69,69,34,1,3_dist_green/trial10.png,,,1,3,greenverival,p,56,33,men,2021-02-27_15h20.22.432,exp11,2020.2.6,Linux x86_64,60,,,,,,,,,,,
,,,,,,,,,,,,,,p,0,0.395125,space,2.9206,0,70,70,145,1,0_targ_4_dist_green/trial21.png,,,0,4,greenverival,a,56,33,men,2021-02-27_15h20.22.432,exp11,2020.2.6,Linux x86_64,60,,,,,,,,,,,
,,,,,,,,,,,,,,p,0,0.38828,space,0.243365,0,71,71,108,1,0_targ_1_dist_green/trial9.png,,,0,1,greenverival,a,56,33,men,2021-02-27_15h20.22.432,exp11,2020.2.6,Linux x86_64,60,,,,,,,,,,,
,,,,,,,,,,,,,,p,1,0.46802,space,0.771375,0,72,72,47,1,3_dist_green/trial23.png,,,1,3,greenverival,p,56,33,men,2021-02-27_15h20.22.432,exp11,2020.2.6,Linux x86_64,60,,,,,,,,,,,
,,,,,,,,,,,,,,p,1,0.390855,space,0.53498,0,73,73,42,1,3_dist_green/trial18.png,,,1,3,greenverival,p,56,33,men,2021-02-27_15h20.22.432,exp11,2020.2.6,Linux x86_64,60,,,,,,,,,,,
,,,,,,,,,,,,,,p,1,0.352135,space,0.48378,0,74,74,70,1,9_dist_green/trial21.png,,,1,9,greenverival,p,56,33,men,2021-02-27_15h20.22.432,exp11,2020.2.6,Linux x86_64,60,,,,,,,,,,,
,,,,,,,,,,,,,,p,0,0.435335,space,0.48594,0,75,75,131,1,0_targ_4_dist_green/trial7.png,,,0,4,greenverival,a,56,33,men,2021-02-27_15h20.22.432,exp11,2020.2.6,Linux x86_64,60,,,,,,,,,,,
,,,,,,,,,,,,,,p,0,0.440135,space,0.80814,0,76,76,103,1,0_targ_1_dist_green/trial4.png,,,0,1,greenverival,a,56,33,men,2021-02-27_15h20.22.432,exp11,2020.2.6,Linux x86_64,60,,,,,,,,,,,
,,,,,,,,,,,,,,p,1,0.414975,space,0.492685,0,77,77,94,1,15_dist_green/trial20.png,,,1,15,greenverival,p,56,33,men,2021-02-27_15h20.22.432,exp11,2020.2.6,Linux x86_64,60,,,,,,,,,,,
,,,,,,,,,,,,,,p,1,0.508815,space,0.500985,0,78,78,32,1,3_dist_green/trial8.png,,,1,3,greenverival,p,56,33,men,2021-02-27_15h20.22.432,exp11,2020.2.6,Linux x86_64,60,,,,,,,,,,,
,,,,,,,,,,,,,,p,1,0.45973,space,0.40457,0,79,79,52,1,9_dist_green/trial3.png,,,1,9,greenverival,p,56,33,men,2021-02-27_15h20.22.432,exp11,2020.2.6,Linux x86_64,60,,,,,,,,,,,
,,,,,,,,,,,,,,p,1,0.413975,space,0.446805,0,80,80,83,1,15_dist_green/trial9.png,,,1,15,greenverival,p,56,33,men,2021-02-27_15h20.22.432,exp11,2020.2.6,Linux x86_64,60,,,,,,,,,,,
,,,,,,,,,,,,,,p,1,0.509085,space,0.483805,0,81,81,65,1,9_dist_green/trial16.png,,,1,9,greenverival,p,56,33,men,2021-02-27_15h20.22.432,exp11,2020.2.6,Linux x86_64,60,,,,,,,,,,,
,,,,,,,,,,,,,,p,0,0.42591,space,0.57652,0,82,82,169,1,0_targ_10_dist_green/trial20.png,,,0,10,greenverival,a,56,33,men,2021-02-27_15h20.22.432,exp11,2020.2.6,Linux x86_64,60,,,,,,,,,,,
,,,,,,,,,,,,,,p,1,0.43744,space,0.38122,0,83,83,26,1,3_dist_green/trial2.png,,,1,3,greenverival,p,56,33,men,2021-02-27_15h20.22.432,exp11,2020.2.6,Linux x86_64,60,,,,,,,,,,,
,,,,,,,,,,,,,,a,1,0.771635,space,0.468085,0,84,84,118,1,0_targ_1_dist_green/trial19.png,,,0,1,greenverival,a,56,33,men,2021-02-27_15h20.22.432,exp11,2020.2.6,Linux x86_64,60,,,,,,,,,,,
,,,,,,,,,,,,,,p,1,0.500275,space,0.37794,0,85,85,60,1,9_dist_green/trial11.png,,,1,9,greenverival,p,56,33,men,2021-02-27_15h20.22.432,exp11,2020.2.6,Linux x86_64,60,,,,,,,,,,,
,,,,,,,,,,,,,,p,1,0.49217,space,0.364155,0,86,86,73,1,9_dist_green/trial24.png,,,1,9,greenverival,p,56,33,men,2021-02-27_15h20.22.432,exp11,2020.2.6,Linux x86_64,60,,,,,,,,,,,
,,,,,,,,,,,,,,p,0,0.62766,space,1.506125,0,87,87,197,1,0_targ_16_dist_green/trial23.png,,,0,16,greenverival,a,56,33,men,2021-02-27_15h20.22.432,exp11,2020.2.6,Linux x86_64,60,,,,,,,,,,,
,,,,,,,,,,,,,,p,0,0.398145,space,1.48678,0,88,88,144,1,0_targ_4_dist_green/trial20.png,,,0,4,greenverival,a,56,33,men,2021-02-27_15h20.22.432,exp11,2020.2.6,Linux x86_64,60,,,,,,,,,,,
,,,,,,,,,,,,,,p,1,0.48977,space,0.365275,0,89,89,50,1,9_dist_green/trial1.png,,,1,9,greenverival,p,56,33,men,2021-02-27_15h20.22.432,exp11,2020.2.6,Linux x86_64,60,,,,,,,,,,,
,,,,,,,,,,,,,,p,1,0.50799,space,0.41202,0,90,90,45,1,3_dist_green/trial21.png,,,1,3,greenverival,p,56,33,men,2021-02-27_15h20.22.432,exp11,2020.2.6,Linux x86_64,60,,,,,,,,,,,
,,,,,,,,,,,,,,p,1,0.4698,space,0.42731,0,91,91,84,1,15_dist_green/trial10.png,,,1,15,greenverival,p,56,33,men,2021-02-27_15h20.22.432,exp11,2020.2.6,Linux x86_64,60,,,,,,,,,,,
,,,,,,,,,,,,,,p,1,0.474805,space,0.4823,0,92,92,41,1,3_dist_green/trial17.png,,,1,3,greenverival,p,56,33,men,2021-02-27_15h20.22.432,exp11,2020.2.6,Linux x86_64,60,,,,,,,,,,,
,,,,,,,,,,,,,,p,1,0.415235,space,0.49016,0,93,93,98,1,15_dist_green/trial24.png,,,1,15,greenverival,p,56,33,men,2021-02-27_15h20.22.432,exp11,2020.2.6,Linux x86_64,60,,,,,,,,,,,
,,,,,,,,,,,,,,p,1,0.377235,space,0.42414,0,94,94,99,1,15_dist_green/trial25.png,,,1,15,greenverival,p,56,33,men,2021-02-27_15h20.22.432,exp11,2020.2.6,Linux x86_64,60,,,,,,,,,,,
,,,,,,,,,,,,,,p,0,0.49832,space,0.578555,0,95,95,140,1,0_targ_4_dist_green/trial6.png,,,0,4,greenverival,a,56,33,men,2021-02-27_15h20.22.432,exp11,2020.2.6,Linux x86_64,60,,,,,,,,,,,
,,,,,,,,,,,,,,p,0,0.397115,space,0.594115,0,96,96,143,1,0_targ_4_dist_green/trial19.png,,,0,4,greenverival,a,56,33,men,2021-02-27_15h20.22.432,exp11,2020.2.6,Linux x86_64,60,,,,,,,,,,,
,,,,,,,,,,,,,,p,0,0.368545,space,0.164555,0,97,97,128,1,0_targ_4_dist_green/trial4.png,,,0,4,greenverival,a,56,33,men,2021-02-27_15h20.22.432,exp11,2020.2.6,Linux x86_64,60,,,,,,,,,,,
,,,,,,,,,,,,,,p,1,0.42881,space,0.43848,0,98,98,79,1,15_dist_green/trial5.png,,,1,15,greenverival,p,56,33,men,2021-02-27_15h20.22.432,exp11,2020.2.6,Linux x86_64,60,,,,,,,,,,,
,,,,,,,,,,,,,,p,1,0.4381,space,0.35009,0,99,99,76,1,15_dist_green/trial2.png,,,1,15,greenverival,p,56,33,men,2021-02-27_15h20.22.432,exp11,2020.2.6,Linux x86_64,60,,,,,,,,,,,
,,,,,,,,,,,,,,p,1,0.52165,space,0.35636,0,100,100,27,1,3_dist_green/trial3.png,,,1,3,greenverival,p,56,33,men,2021-02-27_15h20.22.432,exp11,2020.2.6,Linux x86_64,60,,,,,,,,,,,
,,,,,,,,,,,,,,p,1,0.409175,space,0.334935,0,101,101,58,1,9_dist_green/trial9.png,,,1,9,greenverival,p,56,33,men,2021-02-27_15h20.22.432,exp11,2020.2.6,Linux x86_64,60,,,,,,,,,,,
,,,,,,,,,,,,,,p,1,0.43922,space,0.301655,0,102,102,59,1,9_dist_green/trial10.png,,,1,9,greenverival,p,56,33,men,2021-02-27_15h20.22.432,exp11,2020.2.6,Linux x86_64,60,,,,,,,,,,,
,,,,,,,,,,,,,,p,0,0.6992,space,1.63078,0,103,103,102,1,0_targ_1_dist_green/trial3.png,,,0,1,greenverival,a,56,33,men,2021-02-27_15h20.22.432,exp11,2020.2.6,Linux x86_64,60,,,,,,,,,,,
,,,,,,,,,,,,,,p,1,0.43064,space,0.364345,0,104,104,77,1,15_dist_green/trial3.png,,,1,15,greenverival,p,56,33,men,2021-02-27_15h20.22.432,exp11,2020.2.6,Linux x86_64,60,,,,,,,,,,,
,,,,,,,,,,,,,,p,1,0.52914,space,0.343505,0,105,105,67,1,9_dist_green/trial18.png,,,1,9,greenverival,p,56,33,men,2021-02-27_15h20.22.432,exp11,2020.2.6,Linux x86_64,60,,,,,,,,,,,
,,,,,,,,,,,,,,p,0,0.457005,space,2.20424,0,106,106,168,1,0_targ_10_dist_green/trial19.png,,,0,10,greenverival,a,56,33,men,2021-02-27_15h20.22.432,exp11,2020.2.6,Linux x86_64,60,,,,,,,,,,,
,,,,,,,,,,,,,,p,0,0.399735,space,0.67054,0,107,107,150,1,0_targ_10_dist_green/trial1.png,,,0,10,greenverival,a,56,33,men,2021-02-27_15h20.22.432,exp11,2020.2.6,Linux x86_64,60,,,,,,,,,,,
,,,,,,,,,,,,,,p,1,0.37371,space,0.394715,0,108,108,17,1,0_dist_green/trial18.png,,,1,0,greenverival,p,56,33,men,2021-02-27_15h20.22.432,exp11,2020.2.6,Linux x86_64,60,,,,,,,,,,,
,,,,,,,,,,,,,,p,1,0.45278,space,0.415095,0,109,109,1,1,0_dist_green/trial2.png,,,1,0,greenverival,p,56,33,men,2021-02-27_15h20.22.432,exp11,2020.2.6,Linux x86_64,60,,,,,,,,,,,
,,,,,,,,,,,,,,p,0,0.52515,space,1.698075,0,110,110,129,1,0_targ_4_dist_green/trial5.png,,,0,4,greenverival,a,56,33,men,2021-02-27_15h20.22.432,exp11,2020.2.6,Linux x86_64,60,,,,,,,,,,,
,,,,,,,,,,,,,,p,0,0.4512,space,0.03803,0,111,111,107,1,0_targ_1_dist_green/trial8.png,,,0,1,greenverival,a,56,33,men,2021-02-27_15h20.22.432,exp11,2020.2.6,Linux x86_64,60,,,,,,,,,,,
,,,,,,,,,,,,,,p,1,0.48551,space,0.386545,0,112,112,29,1,3_dist_green/trial5.png,,,1,3,greenverival,p,56,33,men,2021-02-27_15h20.22.432,exp11,2020.2.6,Linux x86_64,60,,,,,,,,,,,
,,,,,,,,,,,,,,p,0,0.49169,space,0.632365,0,113,113,187,1,0_targ_16_dist_green/trial13.png,,,0,16,greenverival,a,56,33,men,2021-02-27_15h20.22.432,exp11,2020.2.6,Linux x86_64,60,,,,,,,,,,,
,,,,,,,,,,,,,,p,1,0.37719,space,0.623875,0,114,114,14,1,0_dist_green/trial15.png,,,1,0,greenverival,p,56,33,men,2021-02-27_15h20.22.432,exp11,2020.2.6,Linux x86_64,60,,,,,,,,,,,
,,,,,,,,,,,,,,p,0,0.4659,space,0.638185,0,115,115,136,1,0_targ_4_dist_green/trial12.png,,,0,4,greenverival,a,56,33,men,2021-02-27_15h20.22.432,exp11,2020.2.6,Linux x86_64,60,,,,,,,,,,,
,,,,,,,,,,,,,,p,0,0.49629,space,1.15459,0,116,116,170,1,0_targ_10_dist_green/trial21.png,,,0,10,greenverival,a,56,33,men,2021-02-27_15h20.22.432,exp11,2020.2.6,Linux x86_64,60,,,,,,,,,,,
,,,,,,,,,,,,,,p,0,0.574365,space,0.070295,0,117,117,100,1,0_targ_1_dist_green/trial1.png,,,0,1,greenverival,a,56,33,men,2021-02-27_15h20.22.432,exp11,2020.2.6,Linux x86_64,60,,,,,,,,,,,
,,,,,,,,,,,,,,p,1,0.484105,space,0.451,0,118,118,30,1,3_dist_green/trial6.png,,,1,3,greenverival,p,56,33,men,2021-02-27_15h20.22.432,exp11,2020.2.6,Linux x86_64,60,,,,,,,,,,,
,,,,,,,,,,,,,,p,1,0.542405,space,0.407615,0,119,119,23,1,0_dist_green/trial24.png,,,1,0,greenverival,p,56,33,men,2021-02-27_15h20.22.432,exp11,2020.2.6,Linux x86_64,60,,,,,,,,,,,
,,,,,,,,,,,,,,p,0,0.50889,space,0.491,0,120,120,166,1,0_targ_10_dist_green/trial17.png,,,0,10,greenverival,a,56,33,men,2021-02-27_15h20.22.432,exp11,2020.2.6,Linux x86_64,60,,,,,,,,,,,
,,,,,,,,,,,,,,p,1,0.482455,space,0.497835,0,121,121,53,1,9_dist_green/trial4.png,,,1,9,greenverival,p,56,33,men,2021-02-27_15h20.22.432,exp11,2020.2.6,Linux x86_64,60,,,,,,,,,,,
,,,,,,,,,,,,,,p,1,0.50616,space,0.71295,0,122,122,91,1,15_dist_green/trial17.png,,,1,15,greenverival,p,56,33,men,2021-02-27_15h20.22.432,exp11,2020.2.6,Linux x86_64,60,,,,,,,,,,,
,,,,,,,,,,,,,,p,0,0.45382,space,2.026075,0,123,123,138,1,0_targ_4_dist_green/trial14.png,,,0,4,greenverival,a,56,33,men,2021-02-27_15h20.22.432,exp11,2020.2.6,Linux x86_64,60,,,,,,,,,,,
,,,,,,,,,,,,,,p,1,0.381825,space,0.380685,0,124,124,38,1,3_dist_green/trial14.png,,,1,3,greenverival,p,56,33,men,2021-02-27_15h20.22.432,exp11,2020.2.6,Linux x86_64,60,,,,,,,,,,,
,,,,,,,,,,,,,,p,0,0.41476,space,0.733885,0,125,125,165,1,0_targ_10_dist_green/trial16.png,,,0,10,greenverival,a,56,33,men,2021-02-27_15h20.22.432,exp11,2020.2.6,Linux x86_64,60,,,,,,,,,,,
,,,,,,,,,,,,,,p,1,0.375425,space,0.558595,0,126,126,33,1,3_dist_green/trial9.png,,,1,3,greenverival,p,56,33,men,2021-02-27_15h20.22.432,exp11,2020.2.6,Linux x86_64,60,,,,,,,,,,,
,,,,,,,,,,,,,,p,1,0.515515,space,0.53274,0,127,127,61,1,9_dist_green/trial12.png,,,1,9,greenverival,p,56,33,men,2021-02-27_15h20.22.432,exp11,2020.2.6,Linux x86_64,60,,,,,,,,,,,
,,,,,,,,,,,,,,p,1,0.452775,space,0.515045,0,128,128,49,1,3_dist_green/trial25.png,,,1,3,greenverival,p,56,33,men,2021-02-27_15h20.22.432,exp11,2020.2.6,Linux x86_64,60,,,,,,,,,,,
,,,,,,,,,,,,,,p,0,0.423665,space,0.271935,0,129,129,195,1,0_targ_16_dist_green/trial21.png,,,0,16,greenverival,a,56,33,men,2021-02-27_15h20.22.432,exp11,2020.2.6,Linux x86_64,60,,,,,,,,,,,
,,,,,,,,,,,,,,p,0,0.3839,space,1.05663,0,130,130,147,1,0_targ_4_dist_green/trial23.png,,,0,4,greenverival,a,56,33,men,2021-02-27_15h20.22.432,exp11,2020.2.6,Linux x86_64,60,,,,,,,,,,,
,,,,,,,,,,,,,,p,1,0.37835,space,0.6176,0,131,131,44,1,3_dist_green/trial20.png,,,1,3,greenverival,p,56,33,men,2021-02-27_15h20.22.432,exp11,2020.2.6,Linux x86_64,60,,,,,,,,,,,
,,,,,,,,,,,,,,p,1,0.416275,space,0.400775,0,132,132,15,1,0_dist_green/trial16.png,,,1,0,greenverival,p,56,33,men,2021-02-27_15h20.22.432,exp11,2020.2.6,Linux x86_64,60,,,,,,,,,,,
,,,,,,,,,,,,,,p,1,0.43328,space,0.420255,0,133,133,62,1,9_dist_green/trial13.png,,,1,9,greenverival,p,56,33,men,2021-02-27_15h20.22.432,exp11,2020.2.6,Linux x86_64,60,,,,,,,,,,,
,,,,,,,,,,,,,,p,1,0.397785,space,0.40179,0,134,134,31,1,3_dist_green/trial7.png,,,1,3,greenverival,p,56,33,men,2021-02-27_15h20.22.432,exp11,2020.2.6,Linux x86_64,60,,,,,,,,,,,
,,,,,,,,,,,,,,p,1,1.796845,space,0.41789,0,135,135,2,1,0_dist_green/trial3.png,,,1,0,greenverival,p,56,33,men,2021-02-27_15h20.22.432,exp11,2020.2.6,Linux x86_64,60,,,,,,,,,,,
,,,,,,,,,,,,,,p,0,0.49908,space,2.024875,0,136,136,178,1,0_targ_16_dist_green/trial4.png,,,0,16,greenverival,a,56,33,men,2021-02-27_15h20.22.432,exp11,2020.2.6,Linux x86_64,60,,,,,,,,,,,
,,,,,,,,,,,,,,p,0,0.45024,space,1.591195,0,137,137,125,1,0_targ_4_dist_green/trial1.png,,,0,4,greenverival,a,56,33,men,2021-02-27_15h20.22.432,exp11,2020.2.6,Linux x86_64,60,,,,,,,,,,,
,,,,,,,,,,,,,,a,1,0.848275,space,0.39383,0,138,138,119,1,0_targ_1_dist_green/trial20.png,,,0,1,greenverival,a,56,33,men,2021-02-27_15h20.22.432,exp11,2020.2.6,Linux x86_64,60,,,,,,,,,,,
,,,,,,,,,,,,,,a,1,0.65786,space,0.385495,0,139,139,114,1,0_targ_1_dist_green/trial15.png,,,0,1,greenverival,a,56,33,men,2021-02-27_15h20.22.432,exp11,2020.2.6,Linux x86_64,60,,,,,,,,,,,
,,,,,,,,,,,,,,p,0,0.611625,space,0.002385,0,140,140,175,1,0_targ_16_dist_green/trial1.png,,,0,16,greenverival,a,56,33,men,2021-02-27_15h20.22.432,exp11,2020.2.6,Linux x86_64,60,,,,,,,,,,,
,,,,,,,,,,,,,,a,1,0.69373,space,0.387065,0,141,141,117,1,0_targ_1_dist_green/trial18.png,,,0,1,greenverival,a,56,33,men,2021-02-27_15h20.22.432,exp11,2020.2.6,Linux x86_64,60,,,,,,,,,,,
,,,,,,,,,,,,,,p,0,0.796485,space,0.23717,0,142,142,105,1,0_targ_1_dist_green/trial6.png,,,0,1,greenverival,a,56,33,men,2021-02-27_15h20.22.432,exp11,2020.2.6,Linux x86_64,60,,,,,,,,,,,
,,,,,,,,,,,,,,p,0,0.57173,space,0.842755,0,143,143,137,1,0_targ_4_dist_green/trial13.png,,,0,4,greenverival,a,56,33,men,2021-02-27_15h20.22.432,exp11,2020.2.6,Linux x86_64,60,,,,,,,,,,,
,,,,,,,,,,,,,,p,1,0.460425,space,0.416235,0,144,144,19,1,0_dist_green/trial20.png,,,1,0,greenverival,p,56,33,men,2021-02-27_15h20.22.432,exp11,2020.2.6,Linux x86_64,60,,,,,,,,,,,
,,,,,,,,,,,,,,p,1,0.56327,space,0.350875,0,145,145,7,1,0_dist_green/trial8.png,,,1,0,greenverival,p,56,33,men,2021-02-27_15h20.22.432,exp11,2020.2.6,Linux x86_64,60,,,,,,,,,,,
,,,,,,,,,,,,,,p,0,0.534565,space,0.53667,0,146,146,181,1,0_targ_16_dist_green/trial7.png,,,0,16,greenverival,a,56,33,men,2021-02-27_15h20.22.432,exp11,2020.2.6,Linux x86_64,60,,,,,,,,,,,
,,,,,,,,,,,,,,p,0,0.42595,space,0.029995,0,147,147,139,1,0_targ_4_dist_green/trial15.png,,,0,4,greenverival,a,56,33,men,2021-02-27_15h20.22.432,exp11,2020.2.6,Linux x86_64,60,,,,,,,,,,,
,,,,,,,,,,,,,,p,0,0.43954,space,0.86847,0,148,148,188,1,0_targ_16_dist_green/trial14.png,,,0,16,greenverival,a,56,33,men,2021-02-27_15h20.22.432,exp11,2020.2.6,Linux x86_64,60,,,,,,,,,,,
,,,,,,,,,,,,,,p,1,0.396695,space,0.5633,0,149,149,85,1,15_dist_green/trial11.png,,,1,15,greenverival,p,56,33,men,2021-02-27_15h20.22.432,exp11,2020.2.6,Linux x86_64,60,,,,,,,,,,,
,,,,,,,,,,,,,,p,0,0.96022,space,1.72639,0,150,150,127,1,0_targ_4_dist_green/trial3.png,,,0,4,greenverival,a,56,33,men,2021-02-27_15h20.22.432,exp11,2020.2.6,Linux x86_64,60,,,,,,,,,,,
,,,,,,,,,,,,,,p,1,0.40608,space,0.54878,0,151,151,93,1,15_dist_green/trial19.png,,,1,15,greenverival,p,56,33,men,2021-02-27_15h20.22.432,exp11,2020.2.6,Linux x86_64,60,,,,,,,,,,,
,,,,,,,,,,,,,,p,0,0.548955,space,1.25015,0,152,152,111,1,0_targ_1_dist_green/trial12.png,,,0,1,greenverival,a,56,33,men,2021-02-27_15h20.22.432,exp11,2020.2.6,Linux x86_64,60,,,,,,,,,,,
,,,,,,,,,,,,,,p,0,0.43919,space,0.273885,0,153,153,109,1,0_targ_1_dist_green/trial10.png,,,0,1,greenverival,a,56,33,men,2021-02-27_15h20.22.432,exp11,2020.2.6,Linux x86_64,60,,,,,,,,,,,
,,,,,,,,,,,,,,p,1,0.447485,space,0.48202,0,154,154,92,1,15_dist_green/trial18.png,,,1,15,greenverival,p,56,33,men,2021-02-27_15h20.22.432,exp11,2020.2.6,Linux x86_64,60,,,,,,,,,,,
,,,,,,,,,,,,,,p,1,0.414,space,0.52932,0,155,155,72,1,9_dist_green/trial23.png,,,1,9,greenverival,p,56,33,men,2021-02-27_15h20.22.432,exp11,2020.2.6,Linux x86_64,60,,,,,,,,,,,
,,,,,,,,,,,,,,p,1,0.46751,space,0.54851,0,156,156,39,1,3_dist_green/trial15.png,,,1,3,greenverival,p,56,33,men,2021-02-27_15h20.22.432,exp11,2020.2.6,Linux x86_64,60,,,,,,,,,,,
,,,,,,,,,,,,,,p,0,0.498855,space,0.743925,0,157,157,174,1,0_targ_10_dist_green/trial25.png,,,0,10,greenverival,a,56,33,men,2021-02-27_15h20.22.432,exp11,2020.2.6,Linux x86_64,60,,,,,,,,,,,
,,,,,,,,,,,,,,p,0,0.430305,space,1.25121,0,158,158,153,1,0_targ_10_dist_green/trial4.png,,,0,10,greenverival,a,56,33,men,2021-02-27_15h20.22.432,exp11,2020.2.6,Linux x86_64,60,,,,,,,,,,,
,,,,,,,,,,,,,,p,1,0.42128,space,0.860325,0,159,159,56,1,9_dist_green/trial7.png,,,1,9,greenverival,p,56,33,men,2021-02-27_15h20.22.432,exp11,2020.2.6,Linux x86_64,60,,,,,,,,,,,
,,,,,,,,,,,,,,a,1,0.849365,space,0.42345,0,160,160,116,1,0_targ_1_dist_green/trial17.png,,,0,1,greenverival,a,56,33,men,2021-02-27_15h20.22.432,exp11,2020.2.6,Linux x86_64,60,,,,,,,,,,,
,,,,,,,,,,,,,,p,1,0.571905,space,0.58796,0,161,161,37,1,3_dist_green/trial13.png,,,1,3,greenverival,p,56,33,men,2021-02-27_15h20.22.432,exp11,2020.2.6,Linux x86_64,60,,,,,,,,,,,
,,,,,,,,,,,,,,p,0,0.49232,space,0.998475,0,162,162,126,1,0_targ_4_dist_green/trial2.png,,,0,4,greenverival,a,56,33,men,2021-02-27_15h20.22.432,exp11,2020.2.6,Linux x86_64,60,,,,,,,,,,,
,,,,,,,,,,,,,,p,1,0.533055,space,0.448575,0,163,163,16,1,0_dist_green/trial17.png,,,1,0,greenverival,p,56,33,men,2021-02-27_15h20.22.432,exp11,2020.2.6,Linux x86_64,60,,,,,,,,,,,
,,,,,,,,,,,,,,p,0,0.50926,space,0.090395,0,164,164,172,1,0_targ_10_dist_green/trial23.png,,,0,10,greenverival,a,56,33,men,2021-02-27_15h20.22.432,exp11,2020.2.6,Linux x86_64,60,,,,,,,,,,,
,,,,,,,,,,,,,,p,1,0.496655,space,0.55308,0,165,165,54,1,9_dist_green/trial5.png,,,1,9,greenverival,p,56,33,men,2021-02-27_15h20.22.432,exp11,2020.2.6,Linux x86_64,60,,,,,,,,,,,
,,,,,,,,,,,,,,p,1,0.46944,space,0.437815,0,166,166,11,1,0_dist_green/trial12.png,,,1,0,greenverival,p,56,33,men,2021-02-27_15h20.22.432,exp11,2020.2.6,Linux x86_64,60,,,,,,,,,,,
,,,,,,,,,,,,,,p,0,0.48626,space,0.60709,0,167,167,151,1,0_targ_10_dist_green/trial2.png,,,0,10,greenverival,a,56,33,men,2021-02-27_15h20.22.432,exp11,2020.2.6,Linux x86_64,60,,,,,,,,,,,
,,,,,,,,,,,,,,p,1,0.41433,space,0.742165,0,168,168,97,1,15_dist_green/trial23.png,,,1,15,greenverival,p,56,33,men,2021-02-27_15h20.22.432,exp11,2020.2.6,Linux x86_64,60,,,,,,,,,,,
,,,,,,,,,,,,,,p,0,0.389925,space,0.363685,0,169,169,199,1,0_targ_16_dist_green/trial25.png,,,0,16,greenverival,a,56,33,men,2021-02-27_15h20.22.432,exp11,2020.2.6,Linux x86_64,60,,,,,,,,,,,
,,,,,,,,,,,,,,p,1,0.421625,space,0.70605,0,170,170,95,1,15_dist_green/trial21.png,,,1,15,greenverival,p,56,33,men,2021-02-27_15h20.22.432,exp11,2020.2.6,Linux x86_64,60,,,,,,,,,,,
,,,,,,,,,,,,,,p,1,0.64542,space,0.34404,0,171,171,22,1,0_dist_green/trial23.png,,,1,0,greenverival,p,56,33,men,2021-02-27_15h20.22.432,exp11,2020.2.6,Linux x86_64,60,,,,,,,,,,,
,,,,,,,,,,,,,,p,0,0.532265,space,0.442275,0,172,172,171,1,0_targ_10_dist_green/trial22.png,,,0,10,greenverival,a,56,33,men,2021-02-27_15h20.22.432,exp11,2020.2.6,Linux x86_64,60,,,,,,,,,,,
,,,,,,,,,,,,,,a,1,0.695185,space,0.56067,0,173,173,122,1,0_targ_1_dist_green/trial23.png,,,0,1,greenverival,a,56,33,men,2021-02-27_15h20.22.432,exp11,2020.2.6,Linux x86_64,60,,,,,,,,,,,
,,,,,,,,,,,,,,p,1,0.442,space,0.430385,0,174,174,21,1,0_dist_green/trial22.png,,,1,0,greenverival,p,56,33,men,2021-02-27_15h20.22.432,exp11,2020.2.6,Linux x86_64,60,,,,,,,,,,,
,,,,,,,,,,,,,,a,1,0.712265,space,0.45785,0,175,175,121,1,0_targ_1_dist_green/trial22.png,,,0,1,greenverival,a,56,33,men,2021-02-27_15h20.22.432,exp11,2020.2.6,Linux x86_64,60,,,,,,,,,,,
,,,,,,,,,,,,,,a,1,0.801165,space,0.6775,0,176,176,124,1,0_targ_1_dist_green/trial25.png,,,0,1,greenverival,a,56,33,men,2021-02-27_15h20.22.432,exp11,2020.2.6,Linux x86_64,60,,,,,,,,,,,
,,,,,,,,,,,,,,p,1,0.59967,space,0.468015,0,177,177,43,1,3_dist_green/trial19.png,,,1,3,greenverival,p,56,33,men,2021-02-27_15h20.22.432,exp11,2020.2.6,Linux x86_64,60,,,,,,,,,,,
,,,,,,,,,,,,,,p,1,0.626185,space,0.56569,0,178,178,74,1,9_dist_green/trial25.png,,,1,9,greenverival,p,56,33,men,2021-02-27_15h20.22.432,exp11,2020.2.6,Linux x86_64,60,,,,,,,,,,,
,,,,,,,,,,,,,,p,0,0.635195,space,1.635975,0,179,179,182,1,0_targ_16_dist_green/trial8.png,,,0,16,greenverival,a,56,33,men,2021-02-27_15h20.22.432,exp11,2020.2.6,Linux x86_64,60,,,,,,,,,,,
,,,,,,,,,,,,,,p,1,0.611685,space,0.41453,0,180,180,35,1,3_dist_green/trial11.png,,,1,3,greenverival,p,56,33,men,2021-02-27_15h20.22.432,exp11,2020.2.6,Linux x86_64,60,,,,,,,,,,,
,,,,,,,,,,,,,,p,0,0.545865,space,0.24209,0,181,181,130,1,0_targ_4_dist_green/trial6.png,,,0,4,greenverival,a,56,33,men,2021-02-27_15h20.22.432,exp11,2020.2.6,Linux x86_64,60,,,,,,,,,,,
,,,,,,,,,,,,,,p,1,0.393635,space,0.474725,0,182,182,55,1,9_dist_green/trial6.png,,,1,9,greenverival,p,56,33,men,2021-02-27_15h20.22.432,exp11,2020.2.6,Linux x86_64,60,,,,,,,,,,,
,,,,,,,,,,,,,,p,1,0.885135,space,0.35239,0,183,183,4,1,0_dist_green/trial5.png,,,1,0,greenverival,p,56,33,men,2021-02-27_15h20.22.432,exp11,2020.2.6,Linux x86_64,60,,,,,,,,,,,
,,,,,,,,,,,,,,p,0,0.52064,space,1.571975,0,184,184,163,1,0_targ_10_dist_green/trial14.png,,,0,10,greenverival,a,56,33,men,2021-02-27_15h20.22.432,exp11,2020.2.6,Linux x86_64,60,,,,,,,,,,,
,,,,,,,,,,,,,,p,0,0.461765,space,0.502775,0,185,185,148,1,0_targ_4_dist_green/trial24.png,,,0,4,greenverival,a,56,33,men,2021-02-27_15h20.22.432,exp11,2020.2.6,Linux x86_64,60,,,,,,,,,,,
,,,,,,,,,,,,,,p,0,0.406705,space,0.84785,0,186,186,185,1,0_targ_16_dist_green/trial11.png,,,0,16,greenverival,a,56,33,men,2021-02-27_15h20.22.432,exp11,2020.2.6,Linux x86_64,60,,,,,,,,,,,
,,,,,,,,,,,,,,p,0,0.50953,space,0.080155,0,187,187,141,1,0_targ_4_dist_green/trial17.png,,,0,4,greenverival,a,56,33,men,2021-02-27_15h20.22.432,exp11,2020.2.6,Linux x86_64,60,,,,,,,,,,,
,,,,,,,,,,,,,,p,1,1.00736,space,0.4458,0,188,188,51,1,9_dist_green/trial2.png,,,1,9,greenverival,p,56,33,men,2021-02-27_15h20.22.432,exp11,2020.2.6,Linux x86_64,60,,,,,,,,,,,
,,,,,,,,,,,,,,p,1,0.47257,space,0.563775,0,189,189,71,1,9_dist_green/trial22.png,,,1,9,greenverival,p,56,33,men,2021-02-27_15h20.22.432,exp11,2020.2.6,Linux x86_64,60,,,,,,,,,,,
,,,,,,,,,,,,,,p,1,0.45945,space,0.48725,0,190,190,3,1,0_dist_green/trial4.png,,,1,0,greenverival,p,56,33,men,2021-02-27_15h20.22.432,exp11,2020.2.6,Linux x86_64,60,,,,,,,,,,,
,,,,,,,,,,,,,,p,1,0.4326,space,0.4263,0,191,191,68,1,9_dist_green/trial19.png,,,1,9,greenverival,p,56,33,men,2021-02-27_15h20.22.432,exp11,2020.2.6,Linux x86_64,60,,,,,,,,,,,
,,,,,,,,,,,,,,p,0,0.496815,space,1.84338,0,192,192,193,1,0_targ_16_dist_green/trial19.png,,,0,16,greenverival,a,56,33,men,2021-02-27_15h20.22.432,exp11,2020.2.6,Linux x86_64,60,,,,,,,,,,,
,,,,,,,,,,,,,,p,0,0.39578,space,1.87823,0,193,193,115,1,0_targ_1_dist_green/trial6.png,,,0,1,greenverival,a,56,33,men,2021-02-27_15h20.22.432,exp11,2020.2.6,Linux x86_64,60,,,,,,,,,,,
,,,,,,,,,,,,,,p,0,0.714295,space,1.575035,0,194,194,101,1,0_targ_1_dist_green/trial2.png,,,0,1,greenverival,a,56,33,men,2021-02-27_15h20.22.432,exp11,2020.2.6,Linux x86_64,60,,,,,,,,,,,
,,,,,,,,,,,,,,p,1,0.452965,space,0.666695,0,195,195,64,1,9_dist_green/trial15.png,,,1,9,greenverival,p,56,33,men,2021-02-27_15h20.22.432,exp11,2020.2.6,Linux x86_64,60,,,,,,,,,,,
,,,,,,,,,,,,,,p,1,0.397125,space,0.479785,0,196,196,90,1,15_dist_green/trial16.png,,,1,15,greenverival,p,56,33,men,2021-02-27_15h20.22.432,exp11,2020.2.6,Linux x86_64,60,,,,,,,,,,,
,,,,,,,,,,,,,,p,0,0.397785,space,0.54021,0,197,197,167,1,0_targ_10_dist_green/trial18.png,,,0,10,greenverival,a,56,33,men,2021-02-27_15h20.22.432,exp11,2020.2.6,Linux x86_64,60,,,,,,,,,,,
,,,,,,,,,,,,,,p,0,0.52832,space,0.39114,0,198,198,189,1,0_targ_16_dist_green/trial15.png,,,0,16,greenverival,a,56,33,men,2021-02-27_15h20.22.432,exp11,2020.2.6,Linux x86_64,60,,,,,,,,,,,
,,,,,,,,,,,,,,p,1,0.409255,space,0.895645,0,199,199,66,1,9_dist_green/trial17.png,,,1,9,greenverival,p,56,33,men,2021-02-27_15h20.22.432,exp11,2020.2.6,Linux x86_64,60,,,,,,,,,,,
,,,,,,,,,,,,,,,,,,,,,,,,,,,,,,,56,33,men,2021-02-27_15h20.22.432,exp11,2020.2.6,Linux x86_64,60,0,1,1,0,1,conGreen.xlsx,green vertical,Look for green vertical bar (target) and indicate if it is present or absent in the array. If green vertical target is present press 'p' and if absent press 'a'. Press SPACE to start.,,,
