key_resp_6.keys,key_resp_6.rt,key_resp_7.keys,key_resp_7.rt,key_resp_8.keys,key_resp_8.rt,key_resp_10.keys,key_resp_10.rt,key_resp_9.keys,key_resp_9.rt,key_resp_3.keys,key_resp_3.rt,key_resp_5.keys,key_resp_5.rt,key_resp.keys,key_resp.corr,key_resp.rt,key_resp_4.keys,key_resp_4.rt,trials.thisRepN,trials.thisTrialN,trials.thisN,trials.thisIndex,trials.ran,ImageFile,tarPos,tarSize,targPres,numDist,targetName,correctAns,participant,age,sex,date,expName,psychopyVersion,OS,frameRate,fbclid,trials_2.thisRepN,trials_2.thisTrialN,trials_2.thisN,trials_2.thisIndex,trials_2.ran,condsFile,targName,instructionText,colTarget,sizeTarg,posit
space,0.787195,space,0.22228,space,0.12253,space,0.45945,space,0.37567,space,0.399115,space,1.858135,a,1,0.81496,space,0.857415,0,0,0,199,1,0_targ_16_dist_green/trial25.png,,,0,16,greenverival,a,58,m,24,2021-02-28_17h02.04.483,exp11,2020.2.6,Win32,60,IwAR2sL9sDz1JJqhmxL69egRraUMuB0MEUPUnRZNM0jRlJ70bA2t4jHB66QPY,,,,,,,,,,,
,,,,,,,,,,,,,,p,1,0.521235,space,0.270245,0,1,1,49,1,3_dist_green/trial25.png,,,1,3,greenverival,p,58,m,24,2021-02-28_17h02.04.483,exp11,2020.2.6,Win32,60,IwAR2sL9sDz1JJqhmxL69egRraUMuB0MEUPUnRZNM0jRlJ70bA2t4jHB66QPY,,,,,,,,,,,
,,,,,,,,,,,,,,p,1,0.494635,space,0.08534,0,2,2,34,1,3_dist_green/trial10.png,,,1,3,greenverival,p,58,m,24,2021-02-28_17h02.04.483,exp11,2020.2.6,Win32,60,IwAR2sL9sDz1JJqhmxL69egRraUMuB0MEUPUnRZNM0jRlJ70bA2t4jHB66QPY,,,,,,,,,,,
,,,,,,,,,,,,,,a,0,0.65385,space,0.26223,0,3,3,65,1,9_dist_green/trial16.png,,,1,9,greenverival,p,58,m,24,2021-02-28_17h02.04.483,exp11,2020.2.6,Win32,60,IwAR2sL9sDz1JJqhmxL69egRraUMuB0MEUPUnRZNM0jRlJ70bA2t4jHB66QPY,,,,,,,,,,,
,,,,,,,,,,,,,,p,1,0.87376,space,0.194935,0,4,4,83,1,15_dist_green/trial9.png,,,1,15,greenverival,p,58,m,24,2021-02-28_17h02.04.483,exp11,2020.2.6,Win32,60,IwAR2sL9sDz1JJqhmxL69egRraUMuB0MEUPUnRZNM0jRlJ70bA2t4jHB66QPY,,,,,,,,,,,
,,,,,,,,,,,,,,p,1,0.68808,space,0.10194,0,5,5,70,1,9_dist_green/trial21.png,,,1,9,greenverival,p,58,m,24,2021-02-28_17h02.04.483,exp11,2020.2.6,Win32,60,IwAR2sL9sDz1JJqhmxL69egRraUMuB0MEUPUnRZNM0jRlJ70bA2t4jHB66QPY,,,,,,,,,,,
,,,,,,,,,,,,,,p,1,0.531295,space,0.1234,0,6,6,22,1,0_dist_green/trial23.png,,,1,0,greenverival,p,58,m,24,2021-02-28_17h02.04.483,exp11,2020.2.6,Win32,60,IwAR2sL9sDz1JJqhmxL69egRraUMuB0MEUPUnRZNM0jRlJ70bA2t4jHB66QPY,,,,,,,,,,,
,,,,,,,,,,,,,,p,1,0.48377,space,0.10207,0,7,7,19,1,0_dist_green/trial20.png,,,1,0,greenverival,p,58,m,24,2021-02-28_17h02.04.483,exp11,2020.2.6,Win32,60,IwAR2sL9sDz1JJqhmxL69egRraUMuB0MEUPUnRZNM0jRlJ70bA2t4jHB66QPY,,,,,,,,,,,
,,,,,,,,,,,,,,a,1,0.73552,space,0.141265,0,8,8,167,1,0_targ_10_dist_green/trial18.png,,,0,10,greenverival,a,58,m,24,2021-02-28_17h02.04.483,exp11,2020.2.6,Win32,60,IwAR2sL9sDz1JJqhmxL69egRraUMuB0MEUPUnRZNM0jRlJ70bA2t4jHB66QPY,,,,,,,,,,,
,,,,,,,,,,,,,,a,0,0.523175,space,0.40451,0,9,9,3,1,0_dist_green/trial4.png,,,1,0,greenverival,p,58,m,24,2021-02-28_17h02.04.483,exp11,2020.2.6,Win32,60,IwAR2sL9sDz1JJqhmxL69egRraUMuB0MEUPUnRZNM0jRlJ70bA2t4jHB66QPY,,,,,,,,,,,
,,,,,,,,,,,,,,a,1,1.35924,space,0.217745,0,10,10,101,1,0_targ_1_dist_green/trial2.png,,,0,1,greenverival,a,58,m,24,2021-02-28_17h02.04.483,exp11,2020.2.6,Win32,60,IwAR2sL9sDz1JJqhmxL69egRraUMuB0MEUPUnRZNM0jRlJ70bA2t4jHB66QPY,,,,,,,,,,,
,,,,,,,,,,,,,,p,1,0.878035,space,0.127325,0,11,11,91,1,15_dist_green/trial17.png,,,1,15,greenverival,p,58,m,24,2021-02-28_17h02.04.483,exp11,2020.2.6,Win32,60,IwAR2sL9sDz1JJqhmxL69egRraUMuB0MEUPUnRZNM0jRlJ70bA2t4jHB66QPY,,,,,,,,,,,
,,,,,,,,,,,,,,a,1,0.767595,space,0.12015,0,12,12,153,1,0_targ_10_dist_green/trial4.png,,,0,10,greenverival,a,58,m,24,2021-02-28_17h02.04.483,exp11,2020.2.6,Win32,60,IwAR2sL9sDz1JJqhmxL69egRraUMuB0MEUPUnRZNM0jRlJ70bA2t4jHB66QPY,,,,,,,,,,,
,,,,,,,,,,,,,,p,1,0.583405,space,0.16938,0,13,13,41,1,3_dist_green/trial17.png,,,1,3,greenverival,p,58,m,24,2021-02-28_17h02.04.483,exp11,2020.2.6,Win32,60,IwAR2sL9sDz1JJqhmxL69egRraUMuB0MEUPUnRZNM0jRlJ70bA2t4jHB66QPY,,,,,,,,,,,
,,,,,,,,,,,,,,p,1,0.498765,space,0.17363,0,14,14,42,1,3_dist_green/trial18.png,,,1,3,greenverival,p,58,m,24,2021-02-28_17h02.04.483,exp11,2020.2.6,Win32,60,IwAR2sL9sDz1JJqhmxL69egRraUMuB0MEUPUnRZNM0jRlJ70bA2t4jHB66QPY,,,,,,,,,,,
,,,,,,,,,,,,,,p,1,0.5713,space,0.118315,0,15,15,52,1,9_dist_green/trial3.png,,,1,9,greenverival,p,58,m,24,2021-02-28_17h02.04.483,exp11,2020.2.6,Win32,60,IwAR2sL9sDz1JJqhmxL69egRraUMuB0MEUPUnRZNM0jRlJ70bA2t4jHB66QPY,,,,,,,,,,,
,,,,,,,,,,,,,,a,1,0.64017,space,0.150625,0,16,16,129,1,0_targ_4_dist_green/trial5.png,,,0,4,greenverival,a,58,m,24,2021-02-28_17h02.04.483,exp11,2020.2.6,Win32,60,IwAR2sL9sDz1JJqhmxL69egRraUMuB0MEUPUnRZNM0jRlJ70bA2t4jHB66QPY,,,,,,,,,,,
,,,,,,,,,,,,,,a,1,0.681705,space,0.11413,0,17,17,165,1,0_targ_10_dist_green/trial16.png,,,0,10,greenverival,a,58,m,24,2021-02-28_17h02.04.483,exp11,2020.2.6,Win32,60,IwAR2sL9sDz1JJqhmxL69egRraUMuB0MEUPUnRZNM0jRlJ70bA2t4jHB66QPY,,,,,,,,,,,
,,,,,,,,,,,,,,a,1,0.849125,space,0.13585,0,18,18,188,1,0_targ_16_dist_green/trial14.png,,,0,16,greenverival,a,58,m,24,2021-02-28_17h02.04.483,exp11,2020.2.6,Win32,60,IwAR2sL9sDz1JJqhmxL69egRraUMuB0MEUPUnRZNM0jRlJ70bA2t4jHB66QPY,,,,,,,,,,,
,,,,,,,,,,,,,,p,1,0.61606,space,0.31819,0,19,19,32,1,3_dist_green/trial8.png,,,1,3,greenverival,p,58,m,24,2021-02-28_17h02.04.483,exp11,2020.2.6,Win32,60,IwAR2sL9sDz1JJqhmxL69egRraUMuB0MEUPUnRZNM0jRlJ70bA2t4jHB66QPY,,,,,,,,,,,
,,,,,,,,,,,,,,p,1,1.0011,space,0.2209,0,20,20,69,1,9_dist_green/trial20.png,,,1,9,greenverival,p,58,m,24,2021-02-28_17h02.04.483,exp11,2020.2.6,Win32,60,IwAR2sL9sDz1JJqhmxL69egRraUMuB0MEUPUnRZNM0jRlJ70bA2t4jHB66QPY,,,,,,,,,,,
,,,,,,,,,,,,,,a,1,0.621695,space,0.21887,0,21,21,147,1,0_targ_4_dist_green/trial23.png,,,0,4,greenverival,a,58,m,24,2021-02-28_17h02.04.483,exp11,2020.2.6,Win32,60,IwAR2sL9sDz1JJqhmxL69egRraUMuB0MEUPUnRZNM0jRlJ70bA2t4jHB66QPY,,,,,,,,,,,
,,,,,,,,,,,,,,p,1,0.8058,space,0.18474,0,22,22,78,1,15_dist_green/trial4.png,,,1,15,greenverival,p,58,m,24,2021-02-28_17h02.04.483,exp11,2020.2.6,Win32,60,IwAR2sL9sDz1JJqhmxL69egRraUMuB0MEUPUnRZNM0jRlJ70bA2t4jHB66QPY,,,,,,,,,,,
,,,,,,,,,,,,,,a,1,0.84363,space,0.265725,0,23,23,171,1,0_targ_10_dist_green/trial22.png,,,0,10,greenverival,a,58,m,24,2021-02-28_17h02.04.483,exp11,2020.2.6,Win32,60,IwAR2sL9sDz1JJqhmxL69egRraUMuB0MEUPUnRZNM0jRlJ70bA2t4jHB66QPY,,,,,,,,,,,
,,,,,,,,,,,,,,a,1,0.608475,space,0.23594,0,24,24,125,1,0_targ_4_dist_green/trial1.png,,,0,4,greenverival,a,58,m,24,2021-02-28_17h02.04.483,exp11,2020.2.6,Win32,60,IwAR2sL9sDz1JJqhmxL69egRraUMuB0MEUPUnRZNM0jRlJ70bA2t4jHB66QPY,,,,,,,,,,,
,,,,,,,,,,,,,,p,1,0.56346,space,0.27079,0,25,25,48,1,3_dist_green/trial24.png,,,1,3,greenverival,p,58,m,24,2021-02-28_17h02.04.483,exp11,2020.2.6,Win32,60,IwAR2sL9sDz1JJqhmxL69egRraUMuB0MEUPUnRZNM0jRlJ70bA2t4jHB66QPY,,,,,,,,,,,
,,,,,,,,,,,,,,a,1,0.63276,space,0.249875,0,26,26,140,1,0_targ_4_dist_green/trial6.png,,,0,4,greenverival,a,58,m,24,2021-02-28_17h02.04.483,exp11,2020.2.6,Win32,60,IwAR2sL9sDz1JJqhmxL69egRraUMuB0MEUPUnRZNM0jRlJ70bA2t4jHB66QPY,,,,,,,,,,,
,,,,,,,,,,,,,,p,1,0.59344,space,0.267055,0,27,27,14,1,0_dist_green/trial15.png,,,1,0,greenverival,p,58,m,24,2021-02-28_17h02.04.483,exp11,2020.2.6,Win32,60,IwAR2sL9sDz1JJqhmxL69egRraUMuB0MEUPUnRZNM0jRlJ70bA2t4jHB66QPY,,,,,,,,,,,
,,,,,,,,,,,,,,p,1,0.56721,space,0.2086,0,28,28,88,1,15_dist_green/trial14.png,,,1,15,greenverival,p,58,m,24,2021-02-28_17h02.04.483,exp11,2020.2.6,Win32,60,IwAR2sL9sDz1JJqhmxL69egRraUMuB0MEUPUnRZNM0jRlJ70bA2t4jHB66QPY,,,,,,,,,,,
,,,,,,,,,,,,,,a,1,0.608935,space,0.308455,0,29,29,133,1,0_targ_4_dist_green/trial9.png,,,0,4,greenverival,a,58,m,24,2021-02-28_17h02.04.483,exp11,2020.2.6,Win32,60,IwAR2sL9sDz1JJqhmxL69egRraUMuB0MEUPUnRZNM0jRlJ70bA2t4jHB66QPY,,,,,,,,,,,
,,,,,,,,,,,,,,p,1,0.610715,space,0.20459,0,30,30,11,1,0_dist_green/trial12.png,,,1,0,greenverival,p,58,m,24,2021-02-28_17h02.04.483,exp11,2020.2.6,Win32,60,IwAR2sL9sDz1JJqhmxL69egRraUMuB0MEUPUnRZNM0jRlJ70bA2t4jHB66QPY,,,,,,,,,,,
,,,,,,,,,,,,,,a,1,0.8255,space,0.261955,0,31,31,110,1,0_targ_1_dist_green/trial11.png,,,0,1,greenverival,a,58,m,24,2021-02-28_17h02.04.483,exp11,2020.2.6,Win32,60,IwAR2sL9sDz1JJqhmxL69egRraUMuB0MEUPUnRZNM0jRlJ70bA2t4jHB66QPY,,,,,,,,,,,
,,,,,,,,,,,,,,p,1,0.703885,space,0.23985,0,32,32,84,1,15_dist_green/trial10.png,,,1,15,greenverival,p,58,m,24,2021-02-28_17h02.04.483,exp11,2020.2.6,Win32,60,IwAR2sL9sDz1JJqhmxL69egRraUMuB0MEUPUnRZNM0jRlJ70bA2t4jHB66QPY,,,,,,,,,,,
,,,,,,,,,,,,,,a,1,0.586095,space,0.237065,0,33,33,113,1,0_targ_1_dist_green/trial14.png,,,0,1,greenverival,a,58,m,24,2021-02-28_17h02.04.483,exp11,2020.2.6,Win32,60,IwAR2sL9sDz1JJqhmxL69egRraUMuB0MEUPUnRZNM0jRlJ70bA2t4jHB66QPY,,,,,,,,,,,
,,,,,,,,,,,,,,a,1,0.6852,space,0.250125,0,34,34,184,1,0_targ_16_dist_green/trial10.png,,,0,16,greenverival,a,58,m,24,2021-02-28_17h02.04.483,exp11,2020.2.6,Win32,60,IwAR2sL9sDz1JJqhmxL69egRraUMuB0MEUPUnRZNM0jRlJ70bA2t4jHB66QPY,,,,,,,,,,,
,,,,,,,,,,,,,,a,1,0.621835,space,0.24993,0,35,35,160,1,0_targ_10_dist_green/trial11.png,,,0,10,greenverival,a,58,m,24,2021-02-28_17h02.04.483,exp11,2020.2.6,Win32,60,IwAR2sL9sDz1JJqhmxL69egRraUMuB0MEUPUnRZNM0jRlJ70bA2t4jHB66QPY,,,,,,,,,,,
,,,,,,,,,,,,,,a,1,0.76065,space,0.30229,0,36,36,185,1,0_targ_16_dist_green/trial11.png,,,0,16,greenverival,a,58,m,24,2021-02-28_17h02.04.483,exp11,2020.2.6,Win32,60,IwAR2sL9sDz1JJqhmxL69egRraUMuB0MEUPUnRZNM0jRlJ70bA2t4jHB66QPY,,,,,,,,,,,
,,,,,,,,,,,,,,a,1,0.824785,space,0.292215,0,37,37,170,1,0_targ_10_dist_green/trial21.png,,,0,10,greenverival,a,58,m,24,2021-02-28_17h02.04.483,exp11,2020.2.6,Win32,60,IwAR2sL9sDz1JJqhmxL69egRraUMuB0MEUPUnRZNM0jRlJ70bA2t4jHB66QPY,,,,,,,,,,,
,,,,,,,,,,,,,,p,1,0.587675,space,0.222035,0,38,38,61,1,9_dist_green/trial12.png,,,1,9,greenverival,p,58,m,24,2021-02-28_17h02.04.483,exp11,2020.2.6,Win32,60,IwAR2sL9sDz1JJqhmxL69egRraUMuB0MEUPUnRZNM0jRlJ70bA2t4jHB66QPY,,,,,,,,,,,
,,,,,,,,,,,,,,a,1,0.507,space,0.3831,0,39,39,123,1,0_targ_1_dist_green/trial24.png,,,0,1,greenverival,a,58,m,24,2021-02-28_17h02.04.483,exp11,2020.2.6,Win32,60,IwAR2sL9sDz1JJqhmxL69egRraUMuB0MEUPUnRZNM0jRlJ70bA2t4jHB66QPY,,,,,,,,,,,
,,,,,,,,,,,,,,a,1,0.638825,space,0.27569,0,40,40,139,1,0_targ_4_dist_green/trial15.png,,,0,4,greenverival,a,58,m,24,2021-02-28_17h02.04.483,exp11,2020.2.6,Win32,60,IwAR2sL9sDz1JJqhmxL69egRraUMuB0MEUPUnRZNM0jRlJ70bA2t4jHB66QPY,,,,,,,,,,,
,,,,,,,,,,,,,,a,1,0.555265,space,0.280415,0,41,41,114,1,0_targ_1_dist_green/trial15.png,,,0,1,greenverival,a,58,m,24,2021-02-28_17h02.04.483,exp11,2020.2.6,Win32,60,IwAR2sL9sDz1JJqhmxL69egRraUMuB0MEUPUnRZNM0jRlJ70bA2t4jHB66QPY,,,,,,,,,,,
,,,,,,,,,,,,,,a,1,0.69512,space,0.26632,0,42,42,187,1,0_targ_16_dist_green/trial13.png,,,0,16,greenverival,a,58,m,24,2021-02-28_17h02.04.483,exp11,2020.2.6,Win32,60,IwAR2sL9sDz1JJqhmxL69egRraUMuB0MEUPUnRZNM0jRlJ70bA2t4jHB66QPY,,,,,,,,,,,
,,,,,,,,,,,,,,a,1,0.6622,space,0.239005,0,43,43,173,1,0_targ_10_dist_green/trial24.png,,,0,10,greenverival,a,58,m,24,2021-02-28_17h02.04.483,exp11,2020.2.6,Win32,60,IwAR2sL9sDz1JJqhmxL69egRraUMuB0MEUPUnRZNM0jRlJ70bA2t4jHB66QPY,,,,,,,,,,,
,,,,,,,,,,,,,,p,1,0.57021,space,0.22283,0,44,44,46,1,3_dist_green/trial22.png,,,1,3,greenverival,p,58,m,24,2021-02-28_17h02.04.483,exp11,2020.2.6,Win32,60,IwAR2sL9sDz1JJqhmxL69egRraUMuB0MEUPUnRZNM0jRlJ70bA2t4jHB66QPY,,,,,,,,,,,
,,,,,,,,,,,,,,p,1,0.57295,space,0.22325,0,45,45,87,1,15_dist_green/trial13.png,,,1,15,greenverival,p,58,m,24,2021-02-28_17h02.04.483,exp11,2020.2.6,Win32,60,IwAR2sL9sDz1JJqhmxL69egRraUMuB0MEUPUnRZNM0jRlJ70bA2t4jHB66QPY,,,,,,,,,,,
,,,,,,,,,,,,,,a,1,0.488475,space,0.2381,0,46,46,136,1,0_targ_4_dist_green/trial12.png,,,0,4,greenverival,a,58,m,24,2021-02-28_17h02.04.483,exp11,2020.2.6,Win32,60,IwAR2sL9sDz1JJqhmxL69egRraUMuB0MEUPUnRZNM0jRlJ70bA2t4jHB66QPY,,,,,,,,,,,
,,,,,,,,,,,,,,a,1,0.528905,space,0.2204,0,47,47,152,1,0_targ_10_dist_green/trial3.png,,,0,10,greenverival,a,58,m,24,2021-02-28_17h02.04.483,exp11,2020.2.6,Win32,60,IwAR2sL9sDz1JJqhmxL69egRraUMuB0MEUPUnRZNM0jRlJ70bA2t4jHB66QPY,,,,,,,,,,,
,,,,,,,,,,,,,,a,1,0.6051,space,0.318815,0,48,48,144,1,0_targ_4_dist_green/trial20.png,,,0,4,greenverival,a,58,m,24,2021-02-28_17h02.04.483,exp11,2020.2.6,Win32,60,IwAR2sL9sDz1JJqhmxL69egRraUMuB0MEUPUnRZNM0jRlJ70bA2t4jHB66QPY,,,,,,,,,,,
,,,,,,,,,,,,,,p,0,0.575425,space,0.191975,0,49,49,124,1,0_targ_1_dist_green/trial25.png,,,0,1,greenverival,a,58,m,24,2021-02-28_17h02.04.483,exp11,2020.2.6,Win32,60,IwAR2sL9sDz1JJqhmxL69egRraUMuB0MEUPUnRZNM0jRlJ70bA2t4jHB66QPY,,,,,,,,,,,
,,,,,,,,,,,,,,p,1,0.6856,space,0.176915,0,50,50,62,1,9_dist_green/trial13.png,,,1,9,greenverival,p,58,m,24,2021-02-28_17h02.04.483,exp11,2020.2.6,Win32,60,IwAR2sL9sDz1JJqhmxL69egRraUMuB0MEUPUnRZNM0jRlJ70bA2t4jHB66QPY,,,,,,,,,,,
,,,,,,,,,,,,,,p,1,0.66073,space,0.50965,0,51,51,56,1,9_dist_green/trial7.png,,,1,9,greenverival,p,58,m,24,2021-02-28_17h02.04.483,exp11,2020.2.6,Win32,60,IwAR2sL9sDz1JJqhmxL69egRraUMuB0MEUPUnRZNM0jRlJ70bA2t4jHB66QPY,,,,,,,,,,,
,,,,,,,,,,,,,,a,0,0.568065,space,0.10539,0,52,52,25,1,3_dist_green/trial1.png,,,1,3,greenverival,p,58,m,24,2021-02-28_17h02.04.483,exp11,2020.2.6,Win32,60,IwAR2sL9sDz1JJqhmxL69egRraUMuB0MEUPUnRZNM0jRlJ70bA2t4jHB66QPY,,,,,,,,,,,
,,,,,,,,,,,,,,p,1,0.54155,space,0.209985,0,53,53,37,1,3_dist_green/trial13.png,,,1,3,greenverival,p,58,m,24,2021-02-28_17h02.04.483,exp11,2020.2.6,Win32,60,IwAR2sL9sDz1JJqhmxL69egRraUMuB0MEUPUnRZNM0jRlJ70bA2t4jHB66QPY,,,,,,,,,,,
,,,,,,,,,,,,,,p,1,0.520655,space,0.21283,0,54,54,7,1,0_dist_green/trial8.png,,,1,0,greenverival,p,58,m,24,2021-02-28_17h02.04.483,exp11,2020.2.6,Win32,60,IwAR2sL9sDz1JJqhmxL69egRraUMuB0MEUPUnRZNM0jRlJ70bA2t4jHB66QPY,,,,,,,,,,,
,,,,,,,,,,,,,,a,1,0.557125,space,0.200285,0,55,55,162,1,0_targ_10_dist_green/trial13.png,,,0,10,greenverival,a,58,m,24,2021-02-28_17h02.04.483,exp11,2020.2.6,Win32,60,IwAR2sL9sDz1JJqhmxL69egRraUMuB0MEUPUnRZNM0jRlJ70bA2t4jHB66QPY,,,,,,,,,,,
,,,,,,,,,,,,,,a,1,0.688895,space,0.235355,0,56,56,105,1,0_targ_1_dist_green/trial6.png,,,0,1,greenverival,a,58,m,24,2021-02-28_17h02.04.483,exp11,2020.2.6,Win32,60,IwAR2sL9sDz1JJqhmxL69egRraUMuB0MEUPUnRZNM0jRlJ70bA2t4jHB66QPY,,,,,,,,,,,
,,,,,,,,,,,,,,a,1,0.78699,space,0.27705,0,57,57,154,1,0_targ_10_dist_green/trial5.png,,,0,10,greenverival,a,58,m,24,2021-02-28_17h02.04.483,exp11,2020.2.6,Win32,60,IwAR2sL9sDz1JJqhmxL69egRraUMuB0MEUPUnRZNM0jRlJ70bA2t4jHB66QPY,,,,,,,,,,,
,,,,,,,,,,,,,,p,1,0.791925,space,0.28296,0,58,58,66,1,9_dist_green/trial17.png,,,1,9,greenverival,p,58,m,24,2021-02-28_17h02.04.483,exp11,2020.2.6,Win32,60,IwAR2sL9sDz1JJqhmxL69egRraUMuB0MEUPUnRZNM0jRlJ70bA2t4jHB66QPY,,,,,,,,,,,
,,,,,,,,,,,,,,p,1,0.83082,space,0.27475,0,59,59,53,1,9_dist_green/trial4.png,,,1,9,greenverival,p,58,m,24,2021-02-28_17h02.04.483,exp11,2020.2.6,Win32,60,IwAR2sL9sDz1JJqhmxL69egRraUMuB0MEUPUnRZNM0jRlJ70bA2t4jHB66QPY,,,,,,,,,,,
,,,,,,,,,,,,,,a,1,0.808165,space,0.203485,0,60,60,117,1,0_targ_1_dist_green/trial18.png,,,0,1,greenverival,a,58,m,24,2021-02-28_17h02.04.483,exp11,2020.2.6,Win32,60,IwAR2sL9sDz1JJqhmxL69egRraUMuB0MEUPUnRZNM0jRlJ70bA2t4jHB66QPY,,,,,,,,,,,
,,,,,,,,,,,,,,p,1,0.71421,space,0.235345,0,61,61,72,1,9_dist_green/trial23.png,,,1,9,greenverival,p,58,m,24,2021-02-28_17h02.04.483,exp11,2020.2.6,Win32,60,IwAR2sL9sDz1JJqhmxL69egRraUMuB0MEUPUnRZNM0jRlJ70bA2t4jHB66QPY,,,,,,,,,,,
,,,,,,,,,,,,,,p,1,0.50052,space,0.221705,0,62,62,31,1,3_dist_green/trial7.png,,,1,3,greenverival,p,58,m,24,2021-02-28_17h02.04.483,exp11,2020.2.6,Win32,60,IwAR2sL9sDz1JJqhmxL69egRraUMuB0MEUPUnRZNM0jRlJ70bA2t4jHB66QPY,,,,,,,,,,,
,,,,,,,,,,,,,,p,1,0.643,space,0.19336,0,63,63,71,1,9_dist_green/trial22.png,,,1,9,greenverival,p,58,m,24,2021-02-28_17h02.04.483,exp11,2020.2.6,Win32,60,IwAR2sL9sDz1JJqhmxL69egRraUMuB0MEUPUnRZNM0jRlJ70bA2t4jHB66QPY,,,,,,,,,,,
,,,,,,,,,,,,,,a,1,0.742775,space,0.34072,0,64,64,143,1,0_targ_4_dist_green/trial19.png,,,0,4,greenverival,a,58,m,24,2021-02-28_17h02.04.483,exp11,2020.2.6,Win32,60,IwAR2sL9sDz1JJqhmxL69egRraUMuB0MEUPUnRZNM0jRlJ70bA2t4jHB66QPY,,,,,,,,,,,
,,,,,,,,,,,,,,a,1,0.68398,space,0.221325,0,65,65,172,1,0_targ_10_dist_green/trial23.png,,,0,10,greenverival,a,58,m,24,2021-02-28_17h02.04.483,exp11,2020.2.6,Win32,60,IwAR2sL9sDz1JJqhmxL69egRraUMuB0MEUPUnRZNM0jRlJ70bA2t4jHB66QPY,,,,,,,,,,,
,,,,,,,,,,,,,,a,1,0.67674,space,0.244605,0,66,66,193,1,0_targ_16_dist_green/trial19.png,,,0,16,greenverival,a,58,m,24,2021-02-28_17h02.04.483,exp11,2020.2.6,Win32,60,IwAR2sL9sDz1JJqhmxL69egRraUMuB0MEUPUnRZNM0jRlJ70bA2t4jHB66QPY,,,,,,,,,,,
,,,,,,,,,,,,,,p,1,0.698105,space,0.238665,0,67,67,55,1,9_dist_green/trial6.png,,,1,9,greenverival,p,58,m,24,2021-02-28_17h02.04.483,exp11,2020.2.6,Win32,60,IwAR2sL9sDz1JJqhmxL69egRraUMuB0MEUPUnRZNM0jRlJ70bA2t4jHB66QPY,,,,,,,,,,,
,,,,,,,,,,,,,,p,1,0.60766,space,0.254085,0,68,68,35,1,3_dist_green/trial11.png,,,1,3,greenverival,p,58,m,24,2021-02-28_17h02.04.483,exp11,2020.2.6,Win32,60,IwAR2sL9sDz1JJqhmxL69egRraUMuB0MEUPUnRZNM0jRlJ70bA2t4jHB66QPY,,,,,,,,,,,
,,,,,,,,,,,,,,a,1,0.73658,space,0.28281,0,69,69,192,1,0_targ_16_dist_green/trial18.png,,,0,16,greenverival,a,58,m,24,2021-02-28_17h02.04.483,exp11,2020.2.6,Win32,60,IwAR2sL9sDz1JJqhmxL69egRraUMuB0MEUPUnRZNM0jRlJ70bA2t4jHB66QPY,,,,,,,,,,,
,,,,,,,,,,,,,,p,1,0.729905,space,0.276065,0,70,70,18,1,0_dist_green/trial19.png,,,1,0,greenverival,p,58,m,24,2021-02-28_17h02.04.483,exp11,2020.2.6,Win32,60,IwAR2sL9sDz1JJqhmxL69egRraUMuB0MEUPUnRZNM0jRlJ70bA2t4jHB66QPY,,,,,,,,,,,
,,,,,,,,,,,,,,p,1,0.491735,space,0.22497,0,71,71,20,1,0_dist_green/trial21.png,,,1,0,greenverival,p,58,m,24,2021-02-28_17h02.04.483,exp11,2020.2.6,Win32,60,IwAR2sL9sDz1JJqhmxL69egRraUMuB0MEUPUnRZNM0jRlJ70bA2t4jHB66QPY,,,,,,,,,,,
,,,,,,,,,,,,,,a,1,0.59802,space,0.23898,0,72,72,137,1,0_targ_4_dist_green/trial13.png,,,0,4,greenverival,a,58,m,24,2021-02-28_17h02.04.483,exp11,2020.2.6,Win32,60,IwAR2sL9sDz1JJqhmxL69egRraUMuB0MEUPUnRZNM0jRlJ70bA2t4jHB66QPY,,,,,,,,,,,
,,,,,,,,,,,,,,a,1,0.63873,space,0.217685,0,73,73,196,1,0_targ_16_dist_green/trial22.png,,,0,16,greenverival,a,58,m,24,2021-02-28_17h02.04.483,exp11,2020.2.6,Win32,60,IwAR2sL9sDz1JJqhmxL69egRraUMuB0MEUPUnRZNM0jRlJ70bA2t4jHB66QPY,,,,,,,,,,,
,,,,,,,,,,,,,,a,1,0.539325,space,0.20848,0,74,74,130,1,0_targ_4_dist_green/trial6.png,,,0,4,greenverival,a,58,m,24,2021-02-28_17h02.04.483,exp11,2020.2.6,Win32,60,IwAR2sL9sDz1JJqhmxL69egRraUMuB0MEUPUnRZNM0jRlJ70bA2t4jHB66QPY,,,,,,,,,,,
,,,,,,,,,,,,,,p,1,0.45009,space,0.161765,0,75,75,47,1,3_dist_green/trial23.png,,,1,3,greenverival,p,58,m,24,2021-02-28_17h02.04.483,exp11,2020.2.6,Win32,60,IwAR2sL9sDz1JJqhmxL69egRraUMuB0MEUPUnRZNM0jRlJ70bA2t4jHB66QPY,,,,,,,,,,,
,,,,,,,,,,,,,,p,1,0.56276,space,0.17119,0,76,76,59,1,9_dist_green/trial10.png,,,1,9,greenverival,p,58,m,24,2021-02-28_17h02.04.483,exp11,2020.2.6,Win32,60,IwAR2sL9sDz1JJqhmxL69egRraUMuB0MEUPUnRZNM0jRlJ70bA2t4jHB66QPY,,,,,,,,,,,
,,,,,,,,,,,,,,p,1,0.56989,space,0.16726,0,77,77,28,1,3_dist_green/trial4.png,,,1,3,greenverival,p,58,m,24,2021-02-28_17h02.04.483,exp11,2020.2.6,Win32,60,IwAR2sL9sDz1JJqhmxL69egRraUMuB0MEUPUnRZNM0jRlJ70bA2t4jHB66QPY,,,,,,,,,,,
,,,,,,,,,,,,,,a,1,0.51443,space,0.220335,0,78,78,158,1,0_targ_10_dist_green/trial9.png,,,0,10,greenverival,a,58,m,24,2021-02-28_17h02.04.483,exp11,2020.2.6,Win32,60,IwAR2sL9sDz1JJqhmxL69egRraUMuB0MEUPUnRZNM0jRlJ70bA2t4jHB66QPY,,,,,,,,,,,
,,,,,,,,,,,,,,a,0,0.58494,space,0.353365,0,79,79,96,1,15_dist_green/trial22.png,,,1,15,greenverival,p,58,m,24,2021-02-28_17h02.04.483,exp11,2020.2.6,Win32,60,IwAR2sL9sDz1JJqhmxL69egRraUMuB0MEUPUnRZNM0jRlJ70bA2t4jHB66QPY,,,,,,,,,,,
,,,,,,,,,,,,,,p,1,0.80868,space,0.135045,0,80,80,81,1,15_dist_green/trial7.png,,,1,15,greenverival,p,58,m,24,2021-02-28_17h02.04.483,exp11,2020.2.6,Win32,60,IwAR2sL9sDz1JJqhmxL69egRraUMuB0MEUPUnRZNM0jRlJ70bA2t4jHB66QPY,,,,,,,,,,,
,,,,,,,,,,,,,,p,1,0.474915,space,0.17312,0,81,81,6,1,0_dist_green/trial7.png,,,1,0,greenverival,p,58,m,24,2021-02-28_17h02.04.483,exp11,2020.2.6,Win32,60,IwAR2sL9sDz1JJqhmxL69egRraUMuB0MEUPUnRZNM0jRlJ70bA2t4jHB66QPY,,,,,,,,,,,
,,,,,,,,,,,,,,a,1,0.56704,space,0.243305,0,82,82,175,1,0_targ_16_dist_green/trial1.png,,,0,16,greenverival,a,58,m,24,2021-02-28_17h02.04.483,exp11,2020.2.6,Win32,60,IwAR2sL9sDz1JJqhmxL69egRraUMuB0MEUPUnRZNM0jRlJ70bA2t4jHB66QPY,,,,,,,,,,,
,,,,,,,,,,,,,,a,1,0.68516,space,0.253835,0,83,83,164,1,0_targ_10_dist_green/trial15.png,,,0,10,greenverival,a,58,m,24,2021-02-28_17h02.04.483,exp11,2020.2.6,Win32,60,IwAR2sL9sDz1JJqhmxL69egRraUMuB0MEUPUnRZNM0jRlJ70bA2t4jHB66QPY,,,,,,,,,,,
,,,,,,,,,,,,,,a,1,0.614455,space,0.221015,0,84,84,121,1,0_targ_1_dist_green/trial22.png,,,0,1,greenverival,a,58,m,24,2021-02-28_17h02.04.483,exp11,2020.2.6,Win32,60,IwAR2sL9sDz1JJqhmxL69egRraUMuB0MEUPUnRZNM0jRlJ70bA2t4jHB66QPY,,,,,,,,,,,
,,,,,,,,,,,,,,p,1,0.532805,space,0.22982,0,85,85,10,1,0_dist_green/trial11.png,,,1,0,greenverival,p,58,m,24,2021-02-28_17h02.04.483,exp11,2020.2.6,Win32,60,IwAR2sL9sDz1JJqhmxL69egRraUMuB0MEUPUnRZNM0jRlJ70bA2t4jHB66QPY,,,,,,,,,,,
,,,,,,,,,,,,,,a,1,0.64298,space,0.239275,0,86,86,145,1,0_targ_4_dist_green/trial21.png,,,0,4,greenverival,a,58,m,24,2021-02-28_17h02.04.483,exp11,2020.2.6,Win32,60,IwAR2sL9sDz1JJqhmxL69egRraUMuB0MEUPUnRZNM0jRlJ70bA2t4jHB66QPY,,,,,,,,,,,
,,,,,,,,,,,,,,p,1,0.63032,space,0.199535,0,87,87,74,1,9_dist_green/trial25.png,,,1,9,greenverival,p,58,m,24,2021-02-28_17h02.04.483,exp11,2020.2.6,Win32,60,IwAR2sL9sDz1JJqhmxL69egRraUMuB0MEUPUnRZNM0jRlJ70bA2t4jHB66QPY,,,,,,,,,,,
,,,,,,,,,,,,,,p,0,0.509765,space,0.2546,0,88,88,111,1,0_targ_1_dist_green/trial12.png,,,0,1,greenverival,a,58,m,24,2021-02-28_17h02.04.483,exp11,2020.2.6,Win32,60,IwAR2sL9sDz1JJqhmxL69egRraUMuB0MEUPUnRZNM0jRlJ70bA2t4jHB66QPY,,,,,,,,,,,
,,,,,,,,,,,,,,p,1,0.731905,space,0.14744,0,89,89,4,1,0_dist_green/trial5.png,,,1,0,greenverival,p,58,m,24,2021-02-28_17h02.04.483,exp11,2020.2.6,Win32,60,IwAR2sL9sDz1JJqhmxL69egRraUMuB0MEUPUnRZNM0jRlJ70bA2t4jHB66QPY,,,,,,,,,,,
,,,,,,,,,,,,,,a,1,0.614625,space,0.23835,0,90,90,109,1,0_targ_1_dist_green/trial10.png,,,0,1,greenverival,a,58,m,24,2021-02-28_17h02.04.483,exp11,2020.2.6,Win32,60,IwAR2sL9sDz1JJqhmxL69egRraUMuB0MEUPUnRZNM0jRlJ70bA2t4jHB66QPY,,,,,,,,,,,
,,,,,,,,,,,,,,a,1,0.710745,space,0.252115,0,91,91,190,1,0_targ_16_dist_green/trial16.png,,,0,16,greenverival,a,58,m,24,2021-02-28_17h02.04.483,exp11,2020.2.6,Win32,60,IwAR2sL9sDz1JJqhmxL69egRraUMuB0MEUPUnRZNM0jRlJ70bA2t4jHB66QPY,,,,,,,,,,,
,,,,,,,,,,,,,,p,1,0.613535,space,0.18972,0,92,92,33,1,3_dist_green/trial9.png,,,1,3,greenverival,p,58,m,24,2021-02-28_17h02.04.483,exp11,2020.2.6,Win32,60,IwAR2sL9sDz1JJqhmxL69egRraUMuB0MEUPUnRZNM0jRlJ70bA2t4jHB66QPY,,,,,,,,,,,
,,,,,,,,,,,,,,a,1,0.7262,space,0.239215,0,93,93,179,1,0_targ_16_dist_green/trial5.png,,,0,16,greenverival,a,58,m,24,2021-02-28_17h02.04.483,exp11,2020.2.6,Win32,60,IwAR2sL9sDz1JJqhmxL69egRraUMuB0MEUPUnRZNM0jRlJ70bA2t4jHB66QPY,,,,,,,,,,,
,,,,,,,,,,,,,,p,1,0.662295,space,0.212595,0,94,94,57,1,9_dist_green/trial8.png,,,1,9,greenverival,p,58,m,24,2021-02-28_17h02.04.483,exp11,2020.2.6,Win32,60,IwAR2sL9sDz1JJqhmxL69egRraUMuB0MEUPUnRZNM0jRlJ70bA2t4jHB66QPY,,,,,,,,,,,
,,,,,,,,,,,,,,a,1,0.70679,space,0.286285,0,95,95,197,1,0_targ_16_dist_green/trial23.png,,,0,16,greenverival,a,58,m,24,2021-02-28_17h02.04.483,exp11,2020.2.6,Win32,60,IwAR2sL9sDz1JJqhmxL69egRraUMuB0MEUPUnRZNM0jRlJ70bA2t4jHB66QPY,,,,,,,,,,,
,,,,,,,,,,,,,,a,1,0.77511,space,0.24006,0,96,96,194,1,0_targ_16_dist_green/trial20.png,,,0,16,greenverival,a,58,m,24,2021-02-28_17h02.04.483,exp11,2020.2.6,Win32,60,IwAR2sL9sDz1JJqhmxL69egRraUMuB0MEUPUnRZNM0jRlJ70bA2t4jHB66QPY,,,,,,,,,,,
,,,,,,,,,,,,,,p,1,0.64308,space,0.23961,0,97,97,5,1,0_dist_green/trial6.png,,,1,0,greenverival,p,58,m,24,2021-02-28_17h02.04.483,exp11,2020.2.6,Win32,60,IwAR2sL9sDz1JJqhmxL69egRraUMuB0MEUPUnRZNM0jRlJ70bA2t4jHB66QPY,,,,,,,,,,,
,,,,,,,,,,,,,,a,1,0.66038,space,0.23617,0,98,98,135,1,0_targ_4_dist_green/trial11.png,,,0,4,greenverival,a,58,m,24,2021-02-28_17h02.04.483,exp11,2020.2.6,Win32,60,IwAR2sL9sDz1JJqhmxL69egRraUMuB0MEUPUnRZNM0jRlJ70bA2t4jHB66QPY,,,,,,,,,,,
,,,,,,,,,,,,,,a,1,0.589245,space,0.23952,0,99,99,141,1,0_targ_4_dist_green/trial17.png,,,0,4,greenverival,a,58,m,24,2021-02-28_17h02.04.483,exp11,2020.2.6,Win32,60,IwAR2sL9sDz1JJqhmxL69egRraUMuB0MEUPUnRZNM0jRlJ70bA2t4jHB66QPY,,,,,,,,,,,
,,,,,,,,,,,,,,p,1,0.68986,space,0.30379,0,100,100,13,1,0_dist_green/trial14.png,,,1,0,greenverival,p,58,m,24,2021-02-28_17h02.04.483,exp11,2020.2.6,Win32,60,IwAR2sL9sDz1JJqhmxL69egRraUMuB0MEUPUnRZNM0jRlJ70bA2t4jHB66QPY,,,,,,,,,,,
,,,,,,,,,,,,,,a,1,0.50035,space,0.26862,0,101,101,138,1,0_targ_4_dist_green/trial14.png,,,0,4,greenverival,a,58,m,24,2021-02-28_17h02.04.483,exp11,2020.2.6,Win32,60,IwAR2sL9sDz1JJqhmxL69egRraUMuB0MEUPUnRZNM0jRlJ70bA2t4jHB66QPY,,,,,,,,,,,
,,,,,,,,,,,,,,a,1,0.6354,space,0.254665,0,102,102,186,1,0_targ_16_dist_green/trial12.png,,,0,16,greenverival,a,58,m,24,2021-02-28_17h02.04.483,exp11,2020.2.6,Win32,60,IwAR2sL9sDz1JJqhmxL69egRraUMuB0MEUPUnRZNM0jRlJ70bA2t4jHB66QPY,,,,,,,,,,,
,,,,,,,,,,,,,,a,1,0.602265,space,0.26857,0,103,103,178,1,0_targ_16_dist_green/trial4.png,,,0,16,greenverival,a,58,m,24,2021-02-28_17h02.04.483,exp11,2020.2.6,Win32,60,IwAR2sL9sDz1JJqhmxL69egRraUMuB0MEUPUnRZNM0jRlJ70bA2t4jHB66QPY,,,,,,,,,,,
,,,,,,,,,,,,,,p,1,0.52465,space,0.13093,0,104,104,2,1,0_dist_green/trial3.png,,,1,0,greenverival,p,58,m,24,2021-02-28_17h02.04.483,exp11,2020.2.6,Win32,60,IwAR2sL9sDz1JJqhmxL69egRraUMuB0MEUPUnRZNM0jRlJ70bA2t4jHB66QPY,,,,,,,,,,,
,,,,,,,,,,,,,,a,1,0.477095,space,0.20492,0,105,105,189,1,0_targ_16_dist_green/trial15.png,,,0,16,greenverival,a,58,m,24,2021-02-28_17h02.04.483,exp11,2020.2.6,Win32,60,IwAR2sL9sDz1JJqhmxL69egRraUMuB0MEUPUnRZNM0jRlJ70bA2t4jHB66QPY,,,,,,,,,,,
,,,,,,,,,,,,,,p,1,0.61857,space,0.11156,0,106,106,26,1,3_dist_green/trial2.png,,,1,3,greenverival,p,58,m,24,2021-02-28_17h02.04.483,exp11,2020.2.6,Win32,60,IwAR2sL9sDz1JJqhmxL69egRraUMuB0MEUPUnRZNM0jRlJ70bA2t4jHB66QPY,,,,,,,,,,,
,,,,,,,,,,,,,,a,1,0.59109,space,0.1973,0,107,107,116,1,0_targ_1_dist_green/trial17.png,,,0,1,greenverival,a,58,m,24,2021-02-28_17h02.04.483,exp11,2020.2.6,Win32,60,IwAR2sL9sDz1JJqhmxL69egRraUMuB0MEUPUnRZNM0jRlJ70bA2t4jHB66QPY,,,,,,,,,,,
,,,,,,,,,,,,,,a,1,0.553195,space,0.132735,0,108,108,182,1,0_targ_16_dist_green/trial8.png,,,0,16,greenverival,a,58,m,24,2021-02-28_17h02.04.483,exp11,2020.2.6,Win32,60,IwAR2sL9sDz1JJqhmxL69egRraUMuB0MEUPUnRZNM0jRlJ70bA2t4jHB66QPY,,,,,,,,,,,
,,,,,,,,,,,,,,p,1,0.59485,space,0.11134,0,109,109,50,1,9_dist_green/trial1.png,,,1,9,greenverival,p,58,m,24,2021-02-28_17h02.04.483,exp11,2020.2.6,Win32,60,IwAR2sL9sDz1JJqhmxL69egRraUMuB0MEUPUnRZNM0jRlJ70bA2t4jHB66QPY,,,,,,,,,,,
,,,,,,,,,,,,,,p,1,0.86344,space,0.140315,0,110,110,93,1,15_dist_green/trial19.png,,,1,15,greenverival,p,58,m,24,2021-02-28_17h02.04.483,exp11,2020.2.6,Win32,60,IwAR2sL9sDz1JJqhmxL69egRraUMuB0MEUPUnRZNM0jRlJ70bA2t4jHB66QPY,,,,,,,,,,,
,,,,,,,,,,,,,,p,1,0.582445,space,0.156475,0,111,111,27,1,3_dist_green/trial3.png,,,1,3,greenverival,p,58,m,24,2021-02-28_17h02.04.483,exp11,2020.2.6,Win32,60,IwAR2sL9sDz1JJqhmxL69egRraUMuB0MEUPUnRZNM0jRlJ70bA2t4jHB66QPY,,,,,,,,,,,
,,,,,,,,,,,,,,p,1,0.741,space,0.138015,0,112,112,92,1,15_dist_green/trial18.png,,,1,15,greenverival,p,58,m,24,2021-02-28_17h02.04.483,exp11,2020.2.6,Win32,60,IwAR2sL9sDz1JJqhmxL69egRraUMuB0MEUPUnRZNM0jRlJ70bA2t4jHB66QPY,,,,,,,,,,,
,,,,,,,,,,,,,,p,1,0.522865,space,0.1532,0,113,113,12,1,0_dist_green/trial13.png,,,1,0,greenverival,p,58,m,24,2021-02-28_17h02.04.483,exp11,2020.2.6,Win32,60,IwAR2sL9sDz1JJqhmxL69egRraUMuB0MEUPUnRZNM0jRlJ70bA2t4jHB66QPY,,,,,,,,,,,
,,,,,,,,,,,,,,p,1,0.58345,space,0.144785,0,114,114,73,1,9_dist_green/trial24.png,,,1,9,greenverival,p,58,m,24,2021-02-28_17h02.04.483,exp11,2020.2.6,Win32,60,IwAR2sL9sDz1JJqhmxL69egRraUMuB0MEUPUnRZNM0jRlJ70bA2t4jHB66QPY,,,,,,,,,,,
,,,,,,,,,,,,,,p,1,0.62149,space,0.172465,0,115,115,45,1,3_dist_green/trial21.png,,,1,3,greenverival,p,58,m,24,2021-02-28_17h02.04.483,exp11,2020.2.6,Win32,60,IwAR2sL9sDz1JJqhmxL69egRraUMuB0MEUPUnRZNM0jRlJ70bA2t4jHB66QPY,,,,,,,,,,,
,,,,,,,,,,,,,,a,1,0.668025,space,0.161565,0,116,116,142,1,0_targ_4_dist_green/trial18.png,,,0,4,greenverival,a,58,m,24,2021-02-28_17h02.04.483,exp11,2020.2.6,Win32,60,IwAR2sL9sDz1JJqhmxL69egRraUMuB0MEUPUnRZNM0jRlJ70bA2t4jHB66QPY,,,,,,,,,,,
,,,,,,,,,,,,,,a,1,0.71044,space,0.126235,0,117,117,198,1,0_targ_16_dist_green/trial24.png,,,0,16,greenverival,a,58,m,24,2021-02-28_17h02.04.483,exp11,2020.2.6,Win32,60,IwAR2sL9sDz1JJqhmxL69egRraUMuB0MEUPUnRZNM0jRlJ70bA2t4jHB66QPY,,,,,,,,,,,
,,,,,,,,,,,,,,a,0,0.771155,space,0.07443,0,118,118,99,1,15_dist_green/trial25.png,,,1,15,greenverival,p,58,m,24,2021-02-28_17h02.04.483,exp11,2020.2.6,Win32,60,IwAR2sL9sDz1JJqhmxL69egRraUMuB0MEUPUnRZNM0jRlJ70bA2t4jHB66QPY,,,,,,,,,,,
,,,,,,,,,,,,,,p,1,0.758535,space,0.266255,0,119,119,54,1,9_dist_green/trial5.png,,,1,9,greenverival,p,58,m,24,2021-02-28_17h02.04.483,exp11,2020.2.6,Win32,60,IwAR2sL9sDz1JJqhmxL69egRraUMuB0MEUPUnRZNM0jRlJ70bA2t4jHB66QPY,,,,,,,,,,,
,,,,,,,,,,,,,,a,1,0.79422,space,0.22797,0,120,120,176,1,0_targ_16_dist_green/trial2.png,,,0,16,greenverival,a,58,m,24,2021-02-28_17h02.04.483,exp11,2020.2.6,Win32,60,IwAR2sL9sDz1JJqhmxL69egRraUMuB0MEUPUnRZNM0jRlJ70bA2t4jHB66QPY,,,,,,,,,,,
,,,,,,,,,,,,,,a,1,0.567195,space,0.23191,0,121,121,127,1,0_targ_4_dist_green/trial3.png,,,0,4,greenverival,a,58,m,24,2021-02-28_17h02.04.483,exp11,2020.2.6,Win32,60,IwAR2sL9sDz1JJqhmxL69egRraUMuB0MEUPUnRZNM0jRlJ70bA2t4jHB66QPY,,,,,,,,,,,
,,,,,,,,,,,,,,a,1,0.531005,space,0.25214,0,122,122,104,1,0_targ_1_dist_green/trial5.png,,,0,1,greenverival,a,58,m,24,2021-02-28_17h02.04.483,exp11,2020.2.6,Win32,60,IwAR2sL9sDz1JJqhmxL69egRraUMuB0MEUPUnRZNM0jRlJ70bA2t4jHB66QPY,,,,,,,,,,,
,,,,,,,,,,,,,,p,1,0.48819,space,0.15513,0,123,123,24,1,0_dist_green/trial25.png,,,1,0,greenverival,p,58,m,24,2021-02-28_17h02.04.483,exp11,2020.2.6,Win32,60,IwAR2sL9sDz1JJqhmxL69egRraUMuB0MEUPUnRZNM0jRlJ70bA2t4jHB66QPY,,,,,,,,,,,
,,,,,,,,,,,,,,a,1,1.10768,space,0.17335,0,124,124,157,1,0_targ_10_dist_green/trial8.png,,,0,10,greenverival,a,58,m,24,2021-02-28_17h02.04.483,exp11,2020.2.6,Win32,60,IwAR2sL9sDz1JJqhmxL69egRraUMuB0MEUPUnRZNM0jRlJ70bA2t4jHB66QPY,,,,,,,,,,,
,,,,,,,,,,,,,,p,1,0.580145,space,0.203965,0,125,125,15,1,0_dist_green/trial16.png,,,1,0,greenverival,p,58,m,24,2021-02-28_17h02.04.483,exp11,2020.2.6,Win32,60,IwAR2sL9sDz1JJqhmxL69egRraUMuB0MEUPUnRZNM0jRlJ70bA2t4jHB66QPY,,,,,,,,,,,
,,,,,,,,,,,,,,p,1,0.71094,space,0.168115,0,126,126,85,1,15_dist_green/trial11.png,,,1,15,greenverival,p,58,m,24,2021-02-28_17h02.04.483,exp11,2020.2.6,Win32,60,IwAR2sL9sDz1JJqhmxL69egRraUMuB0MEUPUnRZNM0jRlJ70bA2t4jHB66QPY,,,,,,,,,,,
,,,,,,,,,,,,,,a,1,0.647615,space,0.197385,0,127,127,122,1,0_targ_1_dist_green/trial23.png,,,0,1,greenverival,a,58,m,24,2021-02-28_17h02.04.483,exp11,2020.2.6,Win32,60,IwAR2sL9sDz1JJqhmxL69egRraUMuB0MEUPUnRZNM0jRlJ70bA2t4jHB66QPY,,,,,,,,,,,
,,,,,,,,,,,,,,a,1,0.640965,space,0.20286,0,128,128,180,1,0_targ_16_dist_green/trial6.png,,,0,16,greenverival,a,58,m,24,2021-02-28_17h02.04.483,exp11,2020.2.6,Win32,60,IwAR2sL9sDz1JJqhmxL69egRraUMuB0MEUPUnRZNM0jRlJ70bA2t4jHB66QPY,,,,,,,,,,,
,,,,,,,,,,,,,,a,1,0.72021,space,0.196725,0,129,129,118,1,0_targ_1_dist_green/trial19.png,,,0,1,greenverival,a,58,m,24,2021-02-28_17h02.04.483,exp11,2020.2.6,Win32,60,IwAR2sL9sDz1JJqhmxL69egRraUMuB0MEUPUnRZNM0jRlJ70bA2t4jHB66QPY,,,,,,,,,,,
,,,,,,,,,,,,,,p,1,0.639205,space,0.18497,0,130,130,77,1,15_dist_green/trial3.png,,,1,15,greenverival,p,58,m,24,2021-02-28_17h02.04.483,exp11,2020.2.6,Win32,60,IwAR2sL9sDz1JJqhmxL69egRraUMuB0MEUPUnRZNM0jRlJ70bA2t4jHB66QPY,,,,,,,,,,,
,,,,,,,,,,,,,,a,1,0.57123,space,0.201655,0,131,131,107,1,0_targ_1_dist_green/trial8.png,,,0,1,greenverival,a,58,m,24,2021-02-28_17h02.04.483,exp11,2020.2.6,Win32,60,IwAR2sL9sDz1JJqhmxL69egRraUMuB0MEUPUnRZNM0jRlJ70bA2t4jHB66QPY,,,,,,,,,,,
,,,,,,,,,,,,,,p,1,0.607525,space,0.242685,0,132,132,0,1,0_dist_green/trial1.png,,,1,0,greenverival,p,58,m,24,2021-02-28_17h02.04.483,exp11,2020.2.6,Win32,60,IwAR2sL9sDz1JJqhmxL69egRraUMuB0MEUPUnRZNM0jRlJ70bA2t4jHB66QPY,,,,,,,,,,,
,,,,,,,,,,,,,,p,1,0.58643,space,0.17111,0,133,133,67,1,9_dist_green/trial18.png,,,1,9,greenverival,p,58,m,24,2021-02-28_17h02.04.483,exp11,2020.2.6,Win32,60,IwAR2sL9sDz1JJqhmxL69egRraUMuB0MEUPUnRZNM0jRlJ70bA2t4jHB66QPY,,,,,,,,,,,
,,,,,,,,,,,,,,a,1,0.55901,space,0.20169,0,134,134,119,1,0_targ_1_dist_green/trial20.png,,,0,1,greenverival,a,58,m,24,2021-02-28_17h02.04.483,exp11,2020.2.6,Win32,60,IwAR2sL9sDz1JJqhmxL69egRraUMuB0MEUPUnRZNM0jRlJ70bA2t4jHB66QPY,,,,,,,,,,,
,,,,,,,,,,,,,,p,1,0.54524,space,0.138775,0,135,135,8,1,0_dist_green/trial9.png,,,1,0,greenverival,p,58,m,24,2021-02-28_17h02.04.483,exp11,2020.2.6,Win32,60,IwAR2sL9sDz1JJqhmxL69egRraUMuB0MEUPUnRZNM0jRlJ70bA2t4jHB66QPY,,,,,,,,,,,
,,,,,,,,,,,,,,p,1,0.621985,space,0.159535,0,136,136,63,1,9_dist_green/trial14.png,,,1,9,greenverival,p,58,m,24,2021-02-28_17h02.04.483,exp11,2020.2.6,Win32,60,IwAR2sL9sDz1JJqhmxL69egRraUMuB0MEUPUnRZNM0jRlJ70bA2t4jHB66QPY,,,,,,,,,,,
,,,,,,,,,,,,,,a,1,0.751615,space,0.12358,0,137,137,112,1,0_targ_1_dist_green/trial13.png,,,0,1,greenverival,a,58,m,24,2021-02-28_17h02.04.483,exp11,2020.2.6,Win32,60,IwAR2sL9sDz1JJqhmxL69egRraUMuB0MEUPUnRZNM0jRlJ70bA2t4jHB66QPY,,,,,,,,,,,
,,,,,,,,,,,,,,a,1,0.60631,space,0.13738,0,138,138,100,1,0_targ_1_dist_green/trial1.png,,,0,1,greenverival,a,58,m,24,2021-02-28_17h02.04.483,exp11,2020.2.6,Win32,60,IwAR2sL9sDz1JJqhmxL69egRraUMuB0MEUPUnRZNM0jRlJ70bA2t4jHB66QPY,,,,,,,,,,,
,,,,,,,,,,,,,,a,1,0.61613,space,0.17452,0,139,139,131,1,0_targ_4_dist_green/trial7.png,,,0,4,greenverival,a,58,m,24,2021-02-28_17h02.04.483,exp11,2020.2.6,Win32,60,IwAR2sL9sDz1JJqhmxL69egRraUMuB0MEUPUnRZNM0jRlJ70bA2t4jHB66QPY,,,,,,,,,,,
,,,,,,,,,,,,,,a,1,0.914105,space,0.168,0,140,140,177,1,0_targ_16_dist_green/trial3.png,,,0,16,greenverival,a,58,m,24,2021-02-28_17h02.04.483,exp11,2020.2.6,Win32,60,IwAR2sL9sDz1JJqhmxL69egRraUMuB0MEUPUnRZNM0jRlJ70bA2t4jHB66QPY,,,,,,,,,,,
,,,,,,,,,,,,,,p,1,0.585335,space,0.123185,0,141,141,1,1,0_dist_green/trial2.png,,,1,0,greenverival,p,58,m,24,2021-02-28_17h02.04.483,exp11,2020.2.6,Win32,60,IwAR2sL9sDz1JJqhmxL69egRraUMuB0MEUPUnRZNM0jRlJ70bA2t4jHB66QPY,,,,,,,,,,,
,,,,,,,,,,,,,,p,1,0.61235,space,0.120895,0,142,142,82,1,15_dist_green/trial8.png,,,1,15,greenverival,p,58,m,24,2021-02-28_17h02.04.483,exp11,2020.2.6,Win32,60,IwAR2sL9sDz1JJqhmxL69egRraUMuB0MEUPUnRZNM0jRlJ70bA2t4jHB66QPY,,,,,,,,,,,
,,,,,,,,,,,,,,a,1,0.604095,space,0.167755,0,143,143,134,1,0_targ_4_dist_green/trial10.png,,,0,4,greenverival,a,58,m,24,2021-02-28_17h02.04.483,exp11,2020.2.6,Win32,60,IwAR2sL9sDz1JJqhmxL69egRraUMuB0MEUPUnRZNM0jRlJ70bA2t4jHB66QPY,,,,,,,,,,,
,,,,,,,,,,,,,,a,1,0.555445,space,0.186925,0,144,144,146,1,0_targ_4_dist_green/trial22.png,,,0,4,greenverival,a,58,m,24,2021-02-28_17h02.04.483,exp11,2020.2.6,Win32,60,IwAR2sL9sDz1JJqhmxL69egRraUMuB0MEUPUnRZNM0jRlJ70bA2t4jHB66QPY,,,,,,,,,,,
,,,,,,,,,,,,,,p,1,0.681735,space,0.308065,0,145,145,39,1,3_dist_green/trial15.png,,,1,3,greenverival,p,58,m,24,2021-02-28_17h02.04.483,exp11,2020.2.6,Win32,60,IwAR2sL9sDz1JJqhmxL69egRraUMuB0MEUPUnRZNM0jRlJ70bA2t4jHB66QPY,,,,,,,,,,,
,,,,,,,,,,,,,,a,0,0.68498,space,0.304065,0,146,146,98,1,15_dist_green/trial24.png,,,1,15,greenverival,p,58,m,24,2021-02-28_17h02.04.483,exp11,2020.2.6,Win32,60,IwAR2sL9sDz1JJqhmxL69egRraUMuB0MEUPUnRZNM0jRlJ70bA2t4jHB66QPY,,,,,,,,,,,
,,,,,,,,,,,,,,p,1,0.562775,space,0.172995,0,147,147,64,1,9_dist_green/trial15.png,,,1,9,greenverival,p,58,m,24,2021-02-28_17h02.04.483,exp11,2020.2.6,Win32,60,IwAR2sL9sDz1JJqhmxL69egRraUMuB0MEUPUnRZNM0jRlJ70bA2t4jHB66QPY,,,,,,,,,,,
,,,,,,,,,,,,,,a,1,0.56405,space,0.202935,0,148,148,108,1,0_targ_1_dist_green/trial9.png,,,0,1,greenverival,a,58,m,24,2021-02-28_17h02.04.483,exp11,2020.2.6,Win32,60,IwAR2sL9sDz1JJqhmxL69egRraUMuB0MEUPUnRZNM0jRlJ70bA2t4jHB66QPY,,,,,,,,,,,
,,,,,,,,,,,,,,p,1,0.5863,space,0.190275,0,149,149,36,1,3_dist_green/trial12.png,,,1,3,greenverival,p,58,m,24,2021-02-28_17h02.04.483,exp11,2020.2.6,Win32,60,IwAR2sL9sDz1JJqhmxL69egRraUMuB0MEUPUnRZNM0jRlJ70bA2t4jHB66QPY,,,,,,,,,,,
,,,,,,,,,,,,,,p,1,0.565225,space,0.119695,0,150,150,38,1,3_dist_green/trial14.png,,,1,3,greenverival,p,58,m,24,2021-02-28_17h02.04.483,exp11,2020.2.6,Win32,60,IwAR2sL9sDz1JJqhmxL69egRraUMuB0MEUPUnRZNM0jRlJ70bA2t4jHB66QPY,,,,,,,,,,,
,,,,,,,,,,,,,,a,1,0.62834,space,0.152195,0,151,151,148,1,0_targ_4_dist_green/trial24.png,,,0,4,greenverival,a,58,m,24,2021-02-28_17h02.04.483,exp11,2020.2.6,Win32,60,IwAR2sL9sDz1JJqhmxL69egRraUMuB0MEUPUnRZNM0jRlJ70bA2t4jHB66QPY,,,,,,,,,,,
,,,,,,,,,,,,,,p,1,0.657755,space,0.18389,0,152,152,58,1,9_dist_green/trial9.png,,,1,9,greenverival,p,58,m,24,2021-02-28_17h02.04.483,exp11,2020.2.6,Win32,60,IwAR2sL9sDz1JJqhmxL69egRraUMuB0MEUPUnRZNM0jRlJ70bA2t4jHB66QPY,,,,,,,,,,,
,,,,,,,,,,,,,,a,1,0.803495,space,0.14813,0,153,153,191,1,0_targ_16_dist_green/trial17.png,,,0,16,greenverival,a,58,m,24,2021-02-28_17h02.04.483,exp11,2020.2.6,Win32,60,IwAR2sL9sDz1JJqhmxL69egRraUMuB0MEUPUnRZNM0jRlJ70bA2t4jHB66QPY,,,,,,,,,,,
,,,,,,,,,,,,,,p,1,0.616535,space,0.10032,0,154,154,16,1,0_dist_green/trial17.png,,,1,0,greenverival,p,58,m,24,2021-02-28_17h02.04.483,exp11,2020.2.6,Win32,60,IwAR2sL9sDz1JJqhmxL69egRraUMuB0MEUPUnRZNM0jRlJ70bA2t4jHB66QPY,,,,,,,,,,,
,,,,,,,,,,,,,,a,1,0.62962,space,0.17895,0,155,155,174,1,0_targ_10_dist_green/trial25.png,,,0,10,greenverival,a,58,m,24,2021-02-28_17h02.04.483,exp11,2020.2.6,Win32,60,IwAR2sL9sDz1JJqhmxL69egRraUMuB0MEUPUnRZNM0jRlJ70bA2t4jHB66QPY,,,,,,,,,,,
,,,,,,,,,,,,,,a,1,0.81401,space,0.15888,0,156,156,181,1,0_targ_16_dist_green/trial7.png,,,0,16,greenverival,a,58,m,24,2021-02-28_17h02.04.483,exp11,2020.2.6,Win32,60,IwAR2sL9sDz1JJqhmxL69egRraUMuB0MEUPUnRZNM0jRlJ70bA2t4jHB66QPY,,,,,,,,,,,
,,,,,,,,,,,,,,a,1,0.667855,space,0.1827,0,157,157,195,1,0_targ_16_dist_green/trial21.png,,,0,16,greenverival,a,58,m,24,2021-02-28_17h02.04.483,exp11,2020.2.6,Win32,60,IwAR2sL9sDz1JJqhmxL69egRraUMuB0MEUPUnRZNM0jRlJ70bA2t4jHB66QPY,,,,,,,,,,,
,,,,,,,,,,,,,,a,1,0.62095,space,0.24391,0,158,158,132,1,0_targ_4_dist_green/trial8.png,,,0,4,greenverival,a,58,m,24,2021-02-28_17h02.04.483,exp11,2020.2.6,Win32,60,IwAR2sL9sDz1JJqhmxL69egRraUMuB0MEUPUnRZNM0jRlJ70bA2t4jHB66QPY,,,,,,,,,,,
,,,,,,,,,,,,,,a,1,0.57382,space,0.178255,0,159,159,169,1,0_targ_10_dist_green/trial20.png,,,0,10,greenverival,a,58,m,24,2021-02-28_17h02.04.483,exp11,2020.2.6,Win32,60,IwAR2sL9sDz1JJqhmxL69egRraUMuB0MEUPUnRZNM0jRlJ70bA2t4jHB66QPY,,,,,,,,,,,
,,,,,,,,,,,,,,a,1,0.520065,space,0.21468,0,160,160,163,1,0_targ_10_dist_green/trial14.png,,,0,10,greenverival,a,58,m,24,2021-02-28_17h02.04.483,exp11,2020.2.6,Win32,60,IwAR2sL9sDz1JJqhmxL69egRraUMuB0MEUPUnRZNM0jRlJ70bA2t4jHB66QPY,,,,,,,,,,,
,,,,,,,,,,,,,,a,1,0.680265,space,0.17036,0,161,161,126,1,0_targ_4_dist_green/trial2.png,,,0,4,greenverival,a,58,m,24,2021-02-28_17h02.04.483,exp11,2020.2.6,Win32,60,IwAR2sL9sDz1JJqhmxL69egRraUMuB0MEUPUnRZNM0jRlJ70bA2t4jHB66QPY,,,,,,,,,,,
,,,,,,,,,,,,,,a,1,0.52415,space,0.219885,0,162,162,166,1,0_targ_10_dist_green/trial17.png,,,0,10,greenverival,a,58,m,24,2021-02-28_17h02.04.483,exp11,2020.2.6,Win32,60,IwAR2sL9sDz1JJqhmxL69egRraUMuB0MEUPUnRZNM0jRlJ70bA2t4jHB66QPY,,,,,,,,,,,
,,,,,,,,,,,,,,a,1,0.58742,space,0.2366,0,163,163,150,1,0_targ_10_dist_green/trial1.png,,,0,10,greenverival,a,58,m,24,2021-02-28_17h02.04.483,exp11,2020.2.6,Win32,60,IwAR2sL9sDz1JJqhmxL69egRraUMuB0MEUPUnRZNM0jRlJ70bA2t4jHB66QPY,,,,,,,,,,,
,,,,,,,,,,,,,,a,0,0.57239,space,0.137605,0,164,164,76,1,15_dist_green/trial2.png,,,1,15,greenverival,p,58,m,24,2021-02-28_17h02.04.483,exp11,2020.2.6,Win32,60,IwAR2sL9sDz1JJqhmxL69egRraUMuB0MEUPUnRZNM0jRlJ70bA2t4jHB66QPY,,,,,,,,,,,
,,,,,,,,,,,,,,a,1,0.604245,space,0.195915,0,165,165,115,1,0_targ_1_dist_green/trial6.png,,,0,1,greenverival,a,58,m,24,2021-02-28_17h02.04.483,exp11,2020.2.6,Win32,60,IwAR2sL9sDz1JJqhmxL69egRraUMuB0MEUPUnRZNM0jRlJ70bA2t4jHB66QPY,,,,,,,,,,,
,,,,,,,,,,,,,,p,1,0.660945,space,0.157635,0,166,166,9,1,0_dist_green/trial10.png,,,1,0,greenverival,p,58,m,24,2021-02-28_17h02.04.483,exp11,2020.2.6,Win32,60,IwAR2sL9sDz1JJqhmxL69egRraUMuB0MEUPUnRZNM0jRlJ70bA2t4jHB66QPY,,,,,,,,,,,
,,,,,,,,,,,,,,p,1,0.55398,space,0.13484,0,167,167,17,1,0_dist_green/trial18.png,,,1,0,greenverival,p,58,m,24,2021-02-28_17h02.04.483,exp11,2020.2.6,Win32,60,IwAR2sL9sDz1JJqhmxL69egRraUMuB0MEUPUnRZNM0jRlJ70bA2t4jHB66QPY,,,,,,,,,,,
,,,,,,,,,,,,,,a,0,0.537245,space,0.271605,0,168,168,80,1,15_dist_green/trial6.png,,,1,15,greenverival,p,58,m,24,2021-02-28_17h02.04.483,exp11,2020.2.6,Win32,60,IwAR2sL9sDz1JJqhmxL69egRraUMuB0MEUPUnRZNM0jRlJ70bA2t4jHB66QPY,,,,,,,,,,,
,,,,,,,,,,,,,,p,1,0.81492,space,0.17731,0,169,169,60,1,9_dist_green/trial11.png,,,1,9,greenverival,p,58,m,24,2021-02-28_17h02.04.483,exp11,2020.2.6,Win32,60,IwAR2sL9sDz1JJqhmxL69egRraUMuB0MEUPUnRZNM0jRlJ70bA2t4jHB66QPY,,,,,,,,,,,
,,,,,,,,,,,,,,p,1,0.615035,space,0.136735,0,170,170,68,1,9_dist_green/trial19.png,,,1,9,greenverival,p,58,m,24,2021-02-28_17h02.04.483,exp11,2020.2.6,Win32,60,IwAR2sL9sDz1JJqhmxL69egRraUMuB0MEUPUnRZNM0jRlJ70bA2t4jHB66QPY,,,,,,,,,,,
,,,,,,,,,,,,,,a,1,0.5906,space,0.20142,0,171,171,106,1,0_targ_1_dist_green/trial7.png,,,0,1,greenverival,a,58,m,24,2021-02-28_17h02.04.483,exp11,2020.2.6,Win32,60,IwAR2sL9sDz1JJqhmxL69egRraUMuB0MEUPUnRZNM0jRlJ70bA2t4jHB66QPY,,,,,,,,,,,
,,,,,,,,,,,,,,a,1,0.73969,space,0.20451,0,172,172,151,1,0_targ_10_dist_green/trial2.png,,,0,10,greenverival,a,58,m,24,2021-02-28_17h02.04.483,exp11,2020.2.6,Win32,60,IwAR2sL9sDz1JJqhmxL69egRraUMuB0MEUPUnRZNM0jRlJ70bA2t4jHB66QPY,,,,,,,,,,,
,,,,,,,,,,,,,,p,1,0.628555,space,0.20207,0,173,173,40,1,3_dist_green/trial16.png,,,1,3,greenverival,p,58,m,24,2021-02-28_17h02.04.483,exp11,2020.2.6,Win32,60,IwAR2sL9sDz1JJqhmxL69egRraUMuB0MEUPUnRZNM0jRlJ70bA2t4jHB66QPY,,,,,,,,,,,
,,,,,,,,,,,,,,a,0,0.534665,space,1.762145,0,174,174,51,1,9_dist_green/trial2.png,,,1,9,greenverival,p,58,m,24,2021-02-28_17h02.04.483,exp11,2020.2.6,Win32,60,IwAR2sL9sDz1JJqhmxL69egRraUMuB0MEUPUnRZNM0jRlJ70bA2t4jHB66QPY,,,,,,,,,,,
,,,,,,,,,,,,,,p,1,0.800715,space,0.245755,0,175,175,23,1,0_dist_green/trial24.png,,,1,0,greenverival,p,58,m,24,2021-02-28_17h02.04.483,exp11,2020.2.6,Win32,60,IwAR2sL9sDz1JJqhmxL69egRraUMuB0MEUPUnRZNM0jRlJ70bA2t4jHB66QPY,,,,,,,,,,,
,,,,,,,,,,,,,,a,1,0.52919,space,0.201845,0,176,176,103,1,0_targ_1_dist_green/trial4.png,,,0,1,greenverival,a,58,m,24,2021-02-28_17h02.04.483,exp11,2020.2.6,Win32,60,IwAR2sL9sDz1JJqhmxL69egRraUMuB0MEUPUnRZNM0jRlJ70bA2t4jHB66QPY,,,,,,,,,,,
,,,,,,,,,,,,,,a,1,0.833845,space,0.4373,0,177,177,168,1,0_targ_10_dist_green/trial19.png,,,0,10,greenverival,a,58,m,24,2021-02-28_17h02.04.483,exp11,2020.2.6,Win32,60,IwAR2sL9sDz1JJqhmxL69egRraUMuB0MEUPUnRZNM0jRlJ70bA2t4jHB66QPY,,,,,,,,,,,
,,,,,,,,,,,,,,p,1,0.5563,space,0.26985,0,178,178,30,1,3_dist_green/trial6.png,,,1,3,greenverival,p,58,m,24,2021-02-28_17h02.04.483,exp11,2020.2.6,Win32,60,IwAR2sL9sDz1JJqhmxL69egRraUMuB0MEUPUnRZNM0jRlJ70bA2t4jHB66QPY,,,,,,,,,,,
,,,,,,,,,,,,,,p,1,0.61953,space,0.195645,0,179,179,75,1,15_dist_green/trial1.png,,,1,15,greenverival,p,58,m,24,2021-02-28_17h02.04.483,exp11,2020.2.6,Win32,60,IwAR2sL9sDz1JJqhmxL69egRraUMuB0MEUPUnRZNM0jRlJ70bA2t4jHB66QPY,,,,,,,,,,,
,,,,,,,,,,,,,,p,1,0.540975,space,0.202845,0,180,180,89,1,15_dist_green/trial15.png,,,1,15,greenverival,p,58,m,24,2021-02-28_17h02.04.483,exp11,2020.2.6,Win32,60,IwAR2sL9sDz1JJqhmxL69egRraUMuB0MEUPUnRZNM0jRlJ70bA2t4jHB66QPY,,,,,,,,,,,
,,,,,,,,,,,,,,a,1,0.51637,space,0.241435,0,181,181,102,1,0_targ_1_dist_green/trial3.png,,,0,1,greenverival,a,58,m,24,2021-02-28_17h02.04.483,exp11,2020.2.6,Win32,60,IwAR2sL9sDz1JJqhmxL69egRraUMuB0MEUPUnRZNM0jRlJ70bA2t4jHB66QPY,,,,,,,,,,,
,,,,,,,,,,,,,,p,1,0.504445,space,0.20637,0,182,182,43,1,3_dist_green/trial19.png,,,1,3,greenverival,p,58,m,24,2021-02-28_17h02.04.483,exp11,2020.2.6,Win32,60,IwAR2sL9sDz1JJqhmxL69egRraUMuB0MEUPUnRZNM0jRlJ70bA2t4jHB66QPY,,,,,,,,,,,
,,,,,,,,,,,,,,p,1,0.570115,space,0.18653,0,183,183,44,1,3_dist_green/trial20.png,,,1,3,greenverival,p,58,m,24,2021-02-28_17h02.04.483,exp11,2020.2.6,Win32,60,IwAR2sL9sDz1JJqhmxL69egRraUMuB0MEUPUnRZNM0jRlJ70bA2t4jHB66QPY,,,,,,,,,,,
,,,,,,,,,,,,,,a,1,0.71047,space,0.21515,0,184,184,161,1,0_targ_10_dist_green/trial12.png,,,0,10,greenverival,a,58,m,24,2021-02-28_17h02.04.483,exp11,2020.2.6,Win32,60,IwAR2sL9sDz1JJqhmxL69egRraUMuB0MEUPUnRZNM0jRlJ70bA2t4jHB66QPY,,,,,,,,,,,
,,,,,,,,,,,,,,a,1,0.603905,space,0.1886,0,185,185,156,1,0_targ_10_dist_green/trial7.png,,,0,10,greenverival,a,58,m,24,2021-02-28_17h02.04.483,exp11,2020.2.6,Win32,60,IwAR2sL9sDz1JJqhmxL69egRraUMuB0MEUPUnRZNM0jRlJ70bA2t4jHB66QPY,,,,,,,,,,,
,,,,,,,,,,,,,,a,1,0.6083,space,0.216555,0,186,186,159,1,0_targ_10_dist_green/trial10.png,,,0,10,greenverival,a,58,m,24,2021-02-28_17h02.04.483,exp11,2020.2.6,Win32,60,IwAR2sL9sDz1JJqhmxL69egRraUMuB0MEUPUnRZNM0jRlJ70bA2t4jHB66QPY,,,,,,,,,,,
,,,,,,,,,,,,,,p,1,0.72272,space,0.26002,0,187,187,29,1,3_dist_green/trial5.png,,,1,3,greenverival,p,58,m,24,2021-02-28_17h02.04.483,exp11,2020.2.6,Win32,60,IwAR2sL9sDz1JJqhmxL69egRraUMuB0MEUPUnRZNM0jRlJ70bA2t4jHB66QPY,,,,,,,,,,,
,,,,,,,,,,,,,,a,1,0.71527,space,0.236315,0,188,188,149,1,0_targ_4_dist_green/trial25.png,,,0,4,greenverival,a,58,m,24,2021-02-28_17h02.04.483,exp11,2020.2.6,Win32,60,IwAR2sL9sDz1JJqhmxL69egRraUMuB0MEUPUnRZNM0jRlJ70bA2t4jHB66QPY,,,,,,,,,,,
,,,,,,,,,,,,,,a,0,0.68841,space,0.07361,0,189,189,95,1,15_dist_green/trial21.png,,,1,15,greenverival,p,58,m,24,2021-02-28_17h02.04.483,exp11,2020.2.6,Win32,60,IwAR2sL9sDz1JJqhmxL69egRraUMuB0MEUPUnRZNM0jRlJ70bA2t4jHB66QPY,,,,,,,,,,,
,,,,,,,,,,,,,,a,1,0.531915,space,0.22904,0,190,190,128,1,0_targ_4_dist_green/trial4.png,,,0,4,greenverival,a,58,m,24,2021-02-28_17h02.04.483,exp11,2020.2.6,Win32,60,IwAR2sL9sDz1JJqhmxL69egRraUMuB0MEUPUnRZNM0jRlJ70bA2t4jHB66QPY,,,,,,,,,,,
,,,,,,,,,,,,,,p,1,0.527845,space,0.156595,0,191,191,97,1,15_dist_green/trial23.png,,,1,15,greenverival,p,58,m,24,2021-02-28_17h02.04.483,exp11,2020.2.6,Win32,60,IwAR2sL9sDz1JJqhmxL69egRraUMuB0MEUPUnRZNM0jRlJ70bA2t4jHB66QPY,,,,,,,,,,,
,,,,,,,,,,,,,,p,1,0.63035,space,0.13999,0,192,192,86,1,15_dist_green/trial12.png,,,1,15,greenverival,p,58,m,24,2021-02-28_17h02.04.483,exp11,2020.2.6,Win32,60,IwAR2sL9sDz1JJqhmxL69egRraUMuB0MEUPUnRZNM0jRlJ70bA2t4jHB66QPY,,,,,,,,,,,
,,,,,,,,,,,,,,p,1,0.683375,space,0.151875,0,193,193,90,1,15_dist_green/trial16.png,,,1,15,greenverival,p,58,m,24,2021-02-28_17h02.04.483,exp11,2020.2.6,Win32,60,IwAR2sL9sDz1JJqhmxL69egRraUMuB0MEUPUnRZNM0jRlJ70bA2t4jHB66QPY,,,,,,,,,,,
,,,,,,,,,,,,,,a,1,0.6858,space,0.16077,0,194,194,183,1,0_targ_16_dist_green/trial9.png,,,0,16,greenverival,a,58,m,24,2021-02-28_17h02.04.483,exp11,2020.2.6,Win32,60,IwAR2sL9sDz1JJqhmxL69egRraUMuB0MEUPUnRZNM0jRlJ70bA2t4jHB66QPY,,,,,,,,,,,
,,,,,,,,,,,,,,a,1,0.676055,space,0.139335,0,195,195,120,1,0_targ_1_dist_green/trial21.png,,,0,1,greenverival,a,58,m,24,2021-02-28_17h02.04.483,exp11,2020.2.6,Win32,60,IwAR2sL9sDz1JJqhmxL69egRraUMuB0MEUPUnRZNM0jRlJ70bA2t4jHB66QPY,,,,,,,,,,,
,,,,,,,,,,,,,,p,1,0.55521,space,0.173995,0,196,196,94,1,15_dist_green/trial20.png,,,1,15,greenverival,p,58,m,24,2021-02-28_17h02.04.483,exp11,2020.2.6,Win32,60,IwAR2sL9sDz1JJqhmxL69egRraUMuB0MEUPUnRZNM0jRlJ70bA2t4jHB66QPY,,,,,,,,,,,
,,,,,,,,,,,,,,a,1,0.7266,space,0.155235,0,197,197,155,1,0_targ_10_dist_green/trial6.png,,,0,10,greenverival,a,58,m,24,2021-02-28_17h02.04.483,exp11,2020.2.6,Win32,60,IwAR2sL9sDz1JJqhmxL69egRraUMuB0MEUPUnRZNM0jRlJ70bA2t4jHB66QPY,,,,,,,,,,,
,,,,,,,,,,,,,,a,0,0.62016,space,0.28373,0,198,198,79,1,15_dist_green/trial5.png,,,1,15,greenverival,p,58,m,24,2021-02-28_17h02.04.483,exp11,2020.2.6,Win32,60,IwAR2sL9sDz1JJqhmxL69egRraUMuB0MEUPUnRZNM0jRlJ70bA2t4jHB66QPY,,,,,,,,,,,
,,,,,,,,,,,,,,p,1,0.65033,space,0.145065,0,199,199,21,1,0_dist_green/trial22.png,,,1,0,greenverival,p,58,m,24,2021-02-28_17h02.04.483,exp11,2020.2.6,Win32,60,IwAR2sL9sDz1JJqhmxL69egRraUMuB0MEUPUnRZNM0jRlJ70bA2t4jHB66QPY,,,,,,,,,,,
,,,,,,,,,,,,,,,,,,,,,,,,,,,,,,,58,m,24,2021-02-28_17h02.04.483,exp11,2020.2.6,Win32,60,IwAR2sL9sDz1JJqhmxL69egRraUMuB0MEUPUnRZNM0jRlJ70bA2t4jHB66QPY,0,0,0,0,1,conGreen.xlsx,green vertical,Look for green vertical bar (target) and indicate if it is present or absent in the array. If green vertical target is present press 'p' and if absent press 'a'. Press SPACE to start.,,,
,,,,,,,,,,space,0.60735,space,0.425655,p,1,1.026855,space,0.173175,0,0,0,26,1,3_dist_red/trial2.png,,,1,3,redHorizontal,p,58,m,24,2021-02-28_17h02.04.483,exp11,2020.2.6,Win32,60,IwAR2sL9sDz1JJqhmxL69egRraUMuB0MEUPUnRZNM0jRlJ70bA2t4jHB66QPY,,,,,,,,,,,
,,,,,,,,,,,,,,p,1,0.89522,space,0.107775,0,1,1,61,1,9_dist_red/trial12.png,,,1,9,redHorizontal,p,58,m,24,2021-02-28_17h02.04.483,exp11,2020.2.6,Win32,60,IwAR2sL9sDz1JJqhmxL69egRraUMuB0MEUPUnRZNM0jRlJ70bA2t4jHB66QPY,,,,,,,,,,,
,,,,,,,,,,,,,,a,1,0.608065,space,0.190645,0,2,2,110,1,0_targ_1_dist_red/trial11.png,,,0,1,redHorizontal,a,58,m,24,2021-02-28_17h02.04.483,exp11,2020.2.6,Win32,60,IwAR2sL9sDz1JJqhmxL69egRraUMuB0MEUPUnRZNM0jRlJ70bA2t4jHB66QPY,,,,,,,,,,,
,,,,,,,,,,,,,,a,1,0.491965,space,0.2042,0,3,3,139,1,0_targ_4_dist_red/trial15.png,,,0,4,redHorizontal,a,58,m,24,2021-02-28_17h02.04.483,exp11,2020.2.6,Win32,60,IwAR2sL9sDz1JJqhmxL69egRraUMuB0MEUPUnRZNM0jRlJ70bA2t4jHB66QPY,,,,,,,,,,,
,,,,,,,,,,,,,,p,0,0.68427,space,0.255985,0,4,4,196,1,0_targ_16_dist_red/trial22.png,,,0,16,redHorizontal,a,58,m,24,2021-02-28_17h02.04.483,exp11,2020.2.6,Win32,60,IwAR2sL9sDz1JJqhmxL69egRraUMuB0MEUPUnRZNM0jRlJ70bA2t4jHB66QPY,,,,,,,,,,,
,,,,,,,,,,,,,,a,1,0.87481,space,0.191485,0,5,5,147,1,0_targ_4_dist_red/trial23.png,,,0,4,redHorizontal,a,58,m,24,2021-02-28_17h02.04.483,exp11,2020.2.6,Win32,60,IwAR2sL9sDz1JJqhmxL69egRraUMuB0MEUPUnRZNM0jRlJ70bA2t4jHB66QPY,,,,,,,,,,,
,,,,,,,,,,,,,,p,1,0.676025,space,0.169555,0,6,6,88,1,15_dist_red/trial14.png,,,1,15,redHorizontal,p,58,m,24,2021-02-28_17h02.04.483,exp11,2020.2.6,Win32,60,IwAR2sL9sDz1JJqhmxL69egRraUMuB0MEUPUnRZNM0jRlJ70bA2t4jHB66QPY,,,,,,,,,,,
,,,,,,,,,,,,,,a,1,0.558125,space,0.23826,0,7,7,109,1,0_targ_1_dist_red/trial10.png,,,0,1,redHorizontal,a,58,m,24,2021-02-28_17h02.04.483,exp11,2020.2.6,Win32,60,IwAR2sL9sDz1JJqhmxL69egRraUMuB0MEUPUnRZNM0jRlJ70bA2t4jHB66QPY,,,,,,,,,,,
,,,,,,,,,,,,,,p,1,0.73646,space,0.189855,0,8,8,20,1,0_dist_red/trial21.png,,,1,0,redHorizontal,p,58,m,24,2021-02-28_17h02.04.483,exp11,2020.2.6,Win32,60,IwAR2sL9sDz1JJqhmxL69egRraUMuB0MEUPUnRZNM0jRlJ70bA2t4jHB66QPY,,,,,,,,,,,
,,,,,,,,,,,,,,p,1,0.452155,space,0.119605,0,9,9,22,1,0_dist_red/trial23.png,,,1,0,redHorizontal,p,58,m,24,2021-02-28_17h02.04.483,exp11,2020.2.6,Win32,60,IwAR2sL9sDz1JJqhmxL69egRraUMuB0MEUPUnRZNM0jRlJ70bA2t4jHB66QPY,,,,,,,,,,,
,,,,,,,,,,,,,,p,1,0.46939,space,0.134005,0,10,10,18,1,0_dist_red/trial19.png,,,1,0,redHorizontal,p,58,m,24,2021-02-28_17h02.04.483,exp11,2020.2.6,Win32,60,IwAR2sL9sDz1JJqhmxL69egRraUMuB0MEUPUnRZNM0jRlJ70bA2t4jHB66QPY,,,,,,,,,,,
,,,,,,,,,,,,,,p,1,0.508825,space,0.10178,0,11,11,13,1,0_dist_red/trial14.png,,,1,0,redHorizontal,p,58,m,24,2021-02-28_17h02.04.483,exp11,2020.2.6,Win32,60,IwAR2sL9sDz1JJqhmxL69egRraUMuB0MEUPUnRZNM0jRlJ70bA2t4jHB66QPY,,,,,,,,,,,
,,,,,,,,,,,,,,a,0,0.457935,space,0.154815,0,12,12,42,1,3_dist_red/trial18.png,,,1,3,redHorizontal,p,58,m,24,2021-02-28_17h02.04.483,exp11,2020.2.6,Win32,60,IwAR2sL9sDz1JJqhmxL69egRraUMuB0MEUPUnRZNM0jRlJ70bA2t4jHB66QPY,,,,,,,,,,,
,,,,,,,,,,,,,,p,1,0.910075,space,0.165715,0,13,13,27,1,3_dist_red/trial3.png,,,1,3,redHorizontal,p,58,m,24,2021-02-28_17h02.04.483,exp11,2020.2.6,Win32,60,IwAR2sL9sDz1JJqhmxL69egRraUMuB0MEUPUnRZNM0jRlJ70bA2t4jHB66QPY,,,,,,,,,,,
,,,,,,,,,,,,,,a,1,0.58268,space,0.184925,0,14,14,137,1,0_targ_4_dist_red/trial13.png,,,0,4,redHorizontal,a,58,m,24,2021-02-28_17h02.04.483,exp11,2020.2.6,Win32,60,IwAR2sL9sDz1JJqhmxL69egRraUMuB0MEUPUnRZNM0jRlJ70bA2t4jHB66QPY,,,,,,,,,,,
,,,,,,,,,,,,,,a,1,0.72152,space,0.15315,0,15,15,183,1,0_targ_16_dist_red/trial9.png,,,0,16,redHorizontal,a,58,m,24,2021-02-28_17h02.04.483,exp11,2020.2.6,Win32,60,IwAR2sL9sDz1JJqhmxL69egRraUMuB0MEUPUnRZNM0jRlJ70bA2t4jHB66QPY,,,,,,,,,,,
,,,,,,,,,,,,,,a,1,0.58022,space,0.2045,0,16,16,126,1,0_targ_4_dist_red/trial2.png,,,0,4,redHorizontal,a,58,m,24,2021-02-28_17h02.04.483,exp11,2020.2.6,Win32,60,IwAR2sL9sDz1JJqhmxL69egRraUMuB0MEUPUnRZNM0jRlJ70bA2t4jHB66QPY,,,,,,,,,,,
,,,,,,,,,,,,,,p,1,0.59431,space,0.261895,0,17,17,68,1,9_dist_red/trial19.png,,,1,9,redHorizontal,p,58,m,24,2021-02-28_17h02.04.483,exp11,2020.2.6,Win32,60,IwAR2sL9sDz1JJqhmxL69egRraUMuB0MEUPUnRZNM0jRlJ70bA2t4jHB66QPY,,,,,,,,,,,
,,,,,,,,,,,,,,a,1,0.595115,space,0.218485,0,18,18,198,1,0_targ_16_dist_red/trial24.png,,,0,16,redHorizontal,a,58,m,24,2021-02-28_17h02.04.483,exp11,2020.2.6,Win32,60,IwAR2sL9sDz1JJqhmxL69egRraUMuB0MEUPUnRZNM0jRlJ70bA2t4jHB66QPY,,,,,,,,,,,
,,,,,,,,,,,,,,a,1,0.64828,space,0.2056,0,19,19,167,1,0_targ_10_dist_red/trial18.png,,,0,10,redHorizontal,a,58,m,24,2021-02-28_17h02.04.483,exp11,2020.2.6,Win32,60,IwAR2sL9sDz1JJqhmxL69egRraUMuB0MEUPUnRZNM0jRlJ70bA2t4jHB66QPY,,,,,,,,,,,
,,,,,,,,,,,,,,a,1,0.54394,space,0.26637,0,20,20,163,1,0_targ_10_dist_red/trial14.png,,,0,10,redHorizontal,a,58,m,24,2021-02-28_17h02.04.483,exp11,2020.2.6,Win32,60,IwAR2sL9sDz1JJqhmxL69egRraUMuB0MEUPUnRZNM0jRlJ70bA2t4jHB66QPY,,,,,,,,,,,
,,,,,,,,,,,,,,p,1,0.635825,space,0.15525,0,21,21,89,1,15_dist_red/trial15.png,,,1,15,redHorizontal,p,58,m,24,2021-02-28_17h02.04.483,exp11,2020.2.6,Win32,60,IwAR2sL9sDz1JJqhmxL69egRraUMuB0MEUPUnRZNM0jRlJ70bA2t4jHB66QPY,,,,,,,,,,,
,,,,,,,,,,,,,,a,1,0.547765,space,0.203325,0,22,22,124,1,0_targ_1_dist_red/trial25.png,,,0,1,redHorizontal,a,58,m,24,2021-02-28_17h02.04.483,exp11,2020.2.6,Win32,60,IwAR2sL9sDz1JJqhmxL69egRraUMuB0MEUPUnRZNM0jRlJ70bA2t4jHB66QPY,,,,,,,,,,,
,,,,,,,,,,,,,,p,1,0.759705,space,0.14907,0,23,23,65,1,9_dist_red/trial16.png,,,1,9,redHorizontal,p,58,m,24,2021-02-28_17h02.04.483,exp11,2020.2.6,Win32,60,IwAR2sL9sDz1JJqhmxL69egRraUMuB0MEUPUnRZNM0jRlJ70bA2t4jHB66QPY,,,,,,,,,,,
,,,,,,,,,,,,,,p,1,0.510245,space,0.167375,0,24,24,62,1,9_dist_red/trial13.png,,,1,9,redHorizontal,p,58,m,24,2021-02-28_17h02.04.483,exp11,2020.2.6,Win32,60,IwAR2sL9sDz1JJqhmxL69egRraUMuB0MEUPUnRZNM0jRlJ70bA2t4jHB66QPY,,,,,,,,,,,
,,,,,,,,,,,,,,p,1,0.54858,space,0.19012,0,25,25,60,1,9_dist_red/trial11.png,,,1,9,redHorizontal,p,58,m,24,2021-02-28_17h02.04.483,exp11,2020.2.6,Win32,60,IwAR2sL9sDz1JJqhmxL69egRraUMuB0MEUPUnRZNM0jRlJ70bA2t4jHB66QPY,,,,,,,,,,,
,,,,,,,,,,,,,,a,1,0.60286,space,0.152095,0,26,26,153,1,0_targ_10_dist_red/trial4.png,,,0,10,redHorizontal,a,58,m,24,2021-02-28_17h02.04.483,exp11,2020.2.6,Win32,60,IwAR2sL9sDz1JJqhmxL69egRraUMuB0MEUPUnRZNM0jRlJ70bA2t4jHB66QPY,,,,,,,,,,,
,,,,,,,,,,,,,,a,1,0.59406,space,0.153725,0,27,27,120,1,0_targ_1_dist_red/trial21.png,,,0,1,redHorizontal,a,58,m,24,2021-02-28_17h02.04.483,exp11,2020.2.6,Win32,60,IwAR2sL9sDz1JJqhmxL69egRraUMuB0MEUPUnRZNM0jRlJ70bA2t4jHB66QPY,,,,,,,,,,,
,,,,,,,,,,,,,,p,1,0.57607,space,0.16158,0,28,28,23,1,0_dist_red/trial24.png,,,1,0,redHorizontal,p,58,m,24,2021-02-28_17h02.04.483,exp11,2020.2.6,Win32,60,IwAR2sL9sDz1JJqhmxL69egRraUMuB0MEUPUnRZNM0jRlJ70bA2t4jHB66QPY,,,,,,,,,,,
,,,,,,,,,,,,,,p,1,0.81177,space,0.38579,0,29,29,40,1,3_dist_red/trial16.png,,,1,3,redHorizontal,p,58,m,24,2021-02-28_17h02.04.483,exp11,2020.2.6,Win32,60,IwAR2sL9sDz1JJqhmxL69egRraUMuB0MEUPUnRZNM0jRlJ70bA2t4jHB66QPY,,,,,,,,,,,
,,,,,,,,,,,,,,p,1,0.793685,space,0.151095,0,30,30,86,1,15_dist_red/trial12.png,,,1,15,redHorizontal,p,58,m,24,2021-02-28_17h02.04.483,exp11,2020.2.6,Win32,60,IwAR2sL9sDz1JJqhmxL69egRraUMuB0MEUPUnRZNM0jRlJ70bA2t4jHB66QPY,,,,,,,,,,,
,,,,,,,,,,,,,,a,1,0.729825,space,0.13162,0,31,31,184,1,0_targ_16_dist_red/trial10.png,,,0,16,redHorizontal,a,58,m,24,2021-02-28_17h02.04.483,exp11,2020.2.6,Win32,60,IwAR2sL9sDz1JJqhmxL69egRraUMuB0MEUPUnRZNM0jRlJ70bA2t4jHB66QPY,,,,,,,,,,,
,,,,,,,,,,,,,,p,1,0.7744,space,0.117165,0,32,32,77,1,15_dist_red/trial3.png,,,1,15,redHorizontal,p,58,m,24,2021-02-28_17h02.04.483,exp11,2020.2.6,Win32,60,IwAR2sL9sDz1JJqhmxL69egRraUMuB0MEUPUnRZNM0jRlJ70bA2t4jHB66QPY,,,,,,,,,,,
,,,,,,,,,,,,,,a,1,0.758455,space,0.12491,0,33,33,130,1,0_targ_4_dist_red/trial6.png,,,0,4,redHorizontal,a,58,m,24,2021-02-28_17h02.04.483,exp11,2020.2.6,Win32,60,IwAR2sL9sDz1JJqhmxL69egRraUMuB0MEUPUnRZNM0jRlJ70bA2t4jHB66QPY,,,,,,,,,,,
,,,,,,,,,,,,,,a,1,0.58419,space,0.151565,0,34,34,132,1,0_targ_4_dist_red/trial8.png,,,0,4,redHorizontal,a,58,m,24,2021-02-28_17h02.04.483,exp11,2020.2.6,Win32,60,IwAR2sL9sDz1JJqhmxL69egRraUMuB0MEUPUnRZNM0jRlJ70bA2t4jHB66QPY,,,,,,,,,,,
,,,,,,,,,,,,,,a,1,0.58295,space,0.21828,0,35,35,123,1,0_targ_1_dist_red/trial24.png,,,0,1,redHorizontal,a,58,m,24,2021-02-28_17h02.04.483,exp11,2020.2.6,Win32,60,IwAR2sL9sDz1JJqhmxL69egRraUMuB0MEUPUnRZNM0jRlJ70bA2t4jHB66QPY,,,,,,,,,,,
,,,,,,,,,,,,,,a,1,0.53324,space,0.16731,0,36,36,194,1,0_targ_16_dist_red/trial20.png,,,0,16,redHorizontal,a,58,m,24,2021-02-28_17h02.04.483,exp11,2020.2.6,Win32,60,IwAR2sL9sDz1JJqhmxL69egRraUMuB0MEUPUnRZNM0jRlJ70bA2t4jHB66QPY,,,,,,,,,,,
,,,,,,,,,,,,,,a,1,0.5656,space,0.21885,0,37,37,179,1,0_targ_16_dist_red/trial5.png,,,0,16,redHorizontal,a,58,m,24,2021-02-28_17h02.04.483,exp11,2020.2.6,Win32,60,IwAR2sL9sDz1JJqhmxL69egRraUMuB0MEUPUnRZNM0jRlJ70bA2t4jHB66QPY,,,,,,,,,,,
,,,,,,,,,,,,,,p,1,0.70556,space,0.1084,0,38,38,49,1,3_dist_red/trial25.png,,,1,3,redHorizontal,p,58,m,24,2021-02-28_17h02.04.483,exp11,2020.2.6,Win32,60,IwAR2sL9sDz1JJqhmxL69egRraUMuB0MEUPUnRZNM0jRlJ70bA2t4jHB66QPY,,,,,,,,,,,
,,,,,,,,,,,,,,a,1,0.541435,space,0.14169,0,39,39,121,1,0_targ_1_dist_red/trial22.png,,,0,1,redHorizontal,a,58,m,24,2021-02-28_17h02.04.483,exp11,2020.2.6,Win32,60,IwAR2sL9sDz1JJqhmxL69egRraUMuB0MEUPUnRZNM0jRlJ70bA2t4jHB66QPY,,,,,,,,,,,
,,,,,,,,,,,,,,p,1,0.5881,space,0.17083,0,40,40,33,1,3_dist_red/trial9.png,,,1,3,redHorizontal,p,58,m,24,2021-02-28_17h02.04.483,exp11,2020.2.6,Win32,60,IwAR2sL9sDz1JJqhmxL69egRraUMuB0MEUPUnRZNM0jRlJ70bA2t4jHB66QPY,,,,,,,,,,,
,,,,,,,,,,,,,,a,1,0.730695,space,0.138765,0,41,41,108,1,0_targ_1_dist_red/trial9.png,,,0,1,redHorizontal,a,58,m,24,2021-02-28_17h02.04.483,exp11,2020.2.6,Win32,60,IwAR2sL9sDz1JJqhmxL69egRraUMuB0MEUPUnRZNM0jRlJ70bA2t4jHB66QPY,,,,,,,,,,,
,,,,,,,,,,,,,,p,1,1.494395,space,0.12791,0,42,42,46,1,3_dist_red/trial22.png,,,1,3,redHorizontal,p,58,m,24,2021-02-28_17h02.04.483,exp11,2020.2.6,Win32,60,IwAR2sL9sDz1JJqhmxL69egRraUMuB0MEUPUnRZNM0jRlJ70bA2t4jHB66QPY,,,,,,,,,,,
,,,,,,,,,,,,,,a,1,1.40853,space,0.10161,0,43,43,158,1,0_targ_10_dist_red/trial9.png,,,0,10,redHorizontal,a,58,m,24,2021-02-28_17h02.04.483,exp11,2020.2.6,Win32,60,IwAR2sL9sDz1JJqhmxL69egRraUMuB0MEUPUnRZNM0jRlJ70bA2t4jHB66QPY,,,,,,,,,,,
,,,,,,,,,,,,,,a,1,0.616915,space,0.24734,0,44,44,169,1,0_targ_10_dist_red/trial20.png,,,0,10,redHorizontal,a,58,m,24,2021-02-28_17h02.04.483,exp11,2020.2.6,Win32,60,IwAR2sL9sDz1JJqhmxL69egRraUMuB0MEUPUnRZNM0jRlJ70bA2t4jHB66QPY,,,,,,,,,,,
,,,,,,,,,,,,,,a,1,0.6109,space,0.205385,0,45,45,106,1,0_targ_1_dist_red/trial7.png,,,0,1,redHorizontal,a,58,m,24,2021-02-28_17h02.04.483,exp11,2020.2.6,Win32,60,IwAR2sL9sDz1JJqhmxL69egRraUMuB0MEUPUnRZNM0jRlJ70bA2t4jHB66QPY,,,,,,,,,,,
,,,,,,,,,,,,,,a,1,0.555035,space,0.219045,0,46,46,181,1,0_targ_16_dist_red/trial7.png,,,0,16,redHorizontal,a,58,m,24,2021-02-28_17h02.04.483,exp11,2020.2.6,Win32,60,IwAR2sL9sDz1JJqhmxL69egRraUMuB0MEUPUnRZNM0jRlJ70bA2t4jHB66QPY,,,,,,,,,,,
,,,,,,,,,,,,,,p,1,0.78414,space,0.21556,0,47,47,69,1,9_dist_red/trial20.png,,,1,9,redHorizontal,p,58,m,24,2021-02-28_17h02.04.483,exp11,2020.2.6,Win32,60,IwAR2sL9sDz1JJqhmxL69egRraUMuB0MEUPUnRZNM0jRlJ70bA2t4jHB66QPY,,,,,,,,,,,
,,,,,,,,,,,,,,a,0,0.75784,space,0.18741,0,48,48,74,1,9_dist_red/trial25.png,,,1,9,redHorizontal,p,58,m,24,2021-02-28_17h02.04.483,exp11,2020.2.6,Win32,60,IwAR2sL9sDz1JJqhmxL69egRraUMuB0MEUPUnRZNM0jRlJ70bA2t4jHB66QPY,,,,,,,,,,,
,,,,,,,,,,,,,,a,0,0.998445,space,0.27809,0,49,49,93,1,15_dist_red/trial19.png,,,1,15,redHorizontal,p,58,m,24,2021-02-28_17h02.04.483,exp11,2020.2.6,Win32,60,IwAR2sL9sDz1JJqhmxL69egRraUMuB0MEUPUnRZNM0jRlJ70bA2t4jHB66QPY,,,,,,,,,,,
,,,,,,,,,,,,,,a,1,1.333985,space,0.15019,0,50,50,177,1,0_targ_16_dist_red/trial3.png,,,0,16,redHorizontal,a,58,m,24,2021-02-28_17h02.04.483,exp11,2020.2.6,Win32,60,IwAR2sL9sDz1JJqhmxL69egRraUMuB0MEUPUnRZNM0jRlJ70bA2t4jHB66QPY,,,,,,,,,,,
,,,,,,,,,,,,,,p,1,0.6808,space,0.10864,0,51,51,53,1,9_dist_red/trial4.png,,,1,9,redHorizontal,p,58,m,24,2021-02-28_17h02.04.483,exp11,2020.2.6,Win32,60,IwAR2sL9sDz1JJqhmxL69egRraUMuB0MEUPUnRZNM0jRlJ70bA2t4jHB66QPY,,,,,,,,,,,
,,,,,,,,,,,,,,a,1,0.67805,space,0.16431,0,52,52,114,1,0_targ_1_dist_red/trial15.png,,,0,1,redHorizontal,a,58,m,24,2021-02-28_17h02.04.483,exp11,2020.2.6,Win32,60,IwAR2sL9sDz1JJqhmxL69egRraUMuB0MEUPUnRZNM0jRlJ70bA2t4jHB66QPY,,,,,,,,,,,
,,,,,,,,,,,,,,p,1,1.07726,space,0.15961,0,53,53,78,1,15_dist_red/trial4.png,,,1,15,redHorizontal,p,58,m,24,2021-02-28_17h02.04.483,exp11,2020.2.6,Win32,60,IwAR2sL9sDz1JJqhmxL69egRraUMuB0MEUPUnRZNM0jRlJ70bA2t4jHB66QPY,,,,,,,,,,,
,,,,,,,,,,,,,,p,1,0.59228,space,0.11998,0,54,54,8,1,0_dist_red/trial9.png,,,1,0,redHorizontal,p,58,m,24,2021-02-28_17h02.04.483,exp11,2020.2.6,Win32,60,IwAR2sL9sDz1JJqhmxL69egRraUMuB0MEUPUnRZNM0jRlJ70bA2t4jHB66QPY,,,,,,,,,,,
,,,,,,,,,,,,,,p,1,0.90265,space,0.10587,0,55,55,94,1,15_dist_red/trial20.png,,,1,15,redHorizontal,p,58,m,24,2021-02-28_17h02.04.483,exp11,2020.2.6,Win32,60,IwAR2sL9sDz1JJqhmxL69egRraUMuB0MEUPUnRZNM0jRlJ70bA2t4jHB66QPY,,,,,,,,,,,
,,,,,,,,,,,,,,p,1,0.577095,space,0.059705,0,56,56,36,1,3_dist_red/trial12.png,,,1,3,redHorizontal,p,58,m,24,2021-02-28_17h02.04.483,exp11,2020.2.6,Win32,60,IwAR2sL9sDz1JJqhmxL69egRraUMuB0MEUPUnRZNM0jRlJ70bA2t4jHB66QPY,,,,,,,,,,,
,,,,,,,,,,,,,,a,1,0.651485,space,0.18698,0,57,57,134,1,0_targ_4_dist_red/trial10.png,,,0,4,redHorizontal,a,58,m,24,2021-02-28_17h02.04.483,exp11,2020.2.6,Win32,60,IwAR2sL9sDz1JJqhmxL69egRraUMuB0MEUPUnRZNM0jRlJ70bA2t4jHB66QPY,,,,,,,,,,,
,,,,,,,,,,,,,,a,1,0.59753,space,0.21862,0,58,58,127,1,0_targ_4_dist_red/trial3.png,,,0,4,redHorizontal,a,58,m,24,2021-02-28_17h02.04.483,exp11,2020.2.6,Win32,60,IwAR2sL9sDz1JJqhmxL69egRraUMuB0MEUPUnRZNM0jRlJ70bA2t4jHB66QPY,,,,,,,,,,,
,,,,,,,,,,,,,,p,1,0.67805,space,0.192415,0,59,59,30,1,3_dist_red/trial6.png,,,1,3,redHorizontal,p,58,m,24,2021-02-28_17h02.04.483,exp11,2020.2.6,Win32,60,IwAR2sL9sDz1JJqhmxL69egRraUMuB0MEUPUnRZNM0jRlJ70bA2t4jHB66QPY,,,,,,,,,,,
,,,,,,,,,,,,,,a,1,0.63224,space,0.17966,0,60,60,150,1,0_targ_10_dist_red/trial1.png,,,0,10,redHorizontal,a,58,m,24,2021-02-28_17h02.04.483,exp11,2020.2.6,Win32,60,IwAR2sL9sDz1JJqhmxL69egRraUMuB0MEUPUnRZNM0jRlJ70bA2t4jHB66QPY,,,,,,,,,,,
,,,,,,,,,,,,,,a,1,0.875975,space,0.20422,0,61,61,101,1,0_targ_1_dist_red/trial2.png,,,0,1,redHorizontal,a,58,m,24,2021-02-28_17h02.04.483,exp11,2020.2.6,Win32,60,IwAR2sL9sDz1JJqhmxL69egRraUMuB0MEUPUnRZNM0jRlJ70bA2t4jHB66QPY,,,,,,,,,,,
,,,,,,,,,,,,,,p,1,0.575215,space,0.12197,0,62,62,9,1,0_dist_red/trial10.png,,,1,0,redHorizontal,p,58,m,24,2021-02-28_17h02.04.483,exp11,2020.2.6,Win32,60,IwAR2sL9sDz1JJqhmxL69egRraUMuB0MEUPUnRZNM0jRlJ70bA2t4jHB66QPY,,,,,,,,,,,
,,,,,,,,,,,,,,a,1,0.69141,space,0.15337,0,63,63,125,1,0_targ_4_dist_red/trial1.png,,,0,4,redHorizontal,a,58,m,24,2021-02-28_17h02.04.483,exp11,2020.2.6,Win32,60,IwAR2sL9sDz1JJqhmxL69egRraUMuB0MEUPUnRZNM0jRlJ70bA2t4jHB66QPY,,,,,,,,,,,
,,,,,,,,,,,,,,p,1,0.688325,space,0.11745,0,64,64,2,1,0_dist_red/trial3.png,,,1,0,redHorizontal,p,58,m,24,2021-02-28_17h02.04.483,exp11,2020.2.6,Win32,60,IwAR2sL9sDz1JJqhmxL69egRraUMuB0MEUPUnRZNM0jRlJ70bA2t4jHB66QPY,,,,,,,,,,,
,,,,,,,,,,,,,,a,1,0.60667,space,0.117425,0,65,65,151,1,0_targ_10_dist_red/trial2.png,,,0,10,redHorizontal,a,58,m,24,2021-02-28_17h02.04.483,exp11,2020.2.6,Win32,60,IwAR2sL9sDz1JJqhmxL69egRraUMuB0MEUPUnRZNM0jRlJ70bA2t4jHB66QPY,,,,,,,,,,,
,,,,,,,,,,,,,,a,1,0.864315,space,0.11853,0,66,66,118,1,0_targ_1_dist_red/trial19.png,,,0,1,redHorizontal,a,58,m,24,2021-02-28_17h02.04.483,exp11,2020.2.6,Win32,60,IwAR2sL9sDz1JJqhmxL69egRraUMuB0MEUPUnRZNM0jRlJ70bA2t4jHB66QPY,,,,,,,,,,,
,,,,,,,,,,,,,,a,1,0.74133,space,0.11309,0,67,67,180,1,0_targ_16_dist_red/trial6.png,,,0,16,redHorizontal,a,58,m,24,2021-02-28_17h02.04.483,exp11,2020.2.6,Win32,60,IwAR2sL9sDz1JJqhmxL69egRraUMuB0MEUPUnRZNM0jRlJ70bA2t4jHB66QPY,,,,,,,,,,,
,,,,,,,,,,,,,,a,1,0.560465,space,0.14072,0,68,68,157,1,0_targ_10_dist_red/trial8.png,,,0,10,redHorizontal,a,58,m,24,2021-02-28_17h02.04.483,exp11,2020.2.6,Win32,60,IwAR2sL9sDz1JJqhmxL69egRraUMuB0MEUPUnRZNM0jRlJ70bA2t4jHB66QPY,,,,,,,,,,,
,,,,,,,,,,,,,,p,1,0.583415,space,0.10435,0,69,69,38,1,3_dist_red/trial14.png,,,1,3,redHorizontal,p,58,m,24,2021-02-28_17h02.04.483,exp11,2020.2.6,Win32,60,IwAR2sL9sDz1JJqhmxL69egRraUMuB0MEUPUnRZNM0jRlJ70bA2t4jHB66QPY,,,,,,,,,,,
,,,,,,,,,,,,,,a,1,0.607145,space,0.13844,0,70,70,122,1,0_targ_1_dist_red/trial23.png,,,0,1,redHorizontal,a,58,m,24,2021-02-28_17h02.04.483,exp11,2020.2.6,Win32,60,IwAR2sL9sDz1JJqhmxL69egRraUMuB0MEUPUnRZNM0jRlJ70bA2t4jHB66QPY,,,,,,,,,,,
,,,,,,,,,,,,,,p,1,0.65053,space,0.068345,0,71,71,5,1,0_dist_red/trial6.png,,,1,0,redHorizontal,p,58,m,24,2021-02-28_17h02.04.483,exp11,2020.2.6,Win32,60,IwAR2sL9sDz1JJqhmxL69egRraUMuB0MEUPUnRZNM0jRlJ70bA2t4jHB66QPY,,,,,,,,,,,
,,,,,,,,,,,,,,p,1,0.642005,space,0.11999,0,72,72,0,1,0_dist_red/trial1.png,,,1,0,redHorizontal,p,58,m,24,2021-02-28_17h02.04.483,exp11,2020.2.6,Win32,60,IwAR2sL9sDz1JJqhmxL69egRraUMuB0MEUPUnRZNM0jRlJ70bA2t4jHB66QPY,,,,,,,,,,,
,,,,,,,,,,,,,,a,1,0.58988,space,0.10926,0,73,73,119,1,0_targ_1_dist_red/trial20.png,,,0,1,redHorizontal,a,58,m,24,2021-02-28_17h02.04.483,exp11,2020.2.6,Win32,60,IwAR2sL9sDz1JJqhmxL69egRraUMuB0MEUPUnRZNM0jRlJ70bA2t4jHB66QPY,,,,,,,,,,,
,,,,,,,,,,,,,,a,1,1.570125,space,0.253385,0,74,74,172,1,0_targ_10_dist_red/trial23.png,,,0,10,redHorizontal,a,58,m,24,2021-02-28_17h02.04.483,exp11,2020.2.6,Win32,60,IwAR2sL9sDz1JJqhmxL69egRraUMuB0MEUPUnRZNM0jRlJ70bA2t4jHB66QPY,,,,,,,,,,,
,,,,,,,,,,,,,,p,1,0.502595,space,0.145965,0,75,75,17,1,0_dist_red/trial18.png,,,1,0,redHorizontal,p,58,m,24,2021-02-28_17h02.04.483,exp11,2020.2.6,Win32,60,IwAR2sL9sDz1JJqhmxL69egRraUMuB0MEUPUnRZNM0jRlJ70bA2t4jHB66QPY,,,,,,,,,,,
,,,,,,,,,,,,,,p,1,0.593475,space,0.159565,0,76,76,12,1,0_dist_red/trial13.png,,,1,0,redHorizontal,p,58,m,24,2021-02-28_17h02.04.483,exp11,2020.2.6,Win32,60,IwAR2sL9sDz1JJqhmxL69egRraUMuB0MEUPUnRZNM0jRlJ70bA2t4jHB66QPY,,,,,,,,,,,
,,,,,,,,,,,,,,p,1,0.58922,space,0.182935,0,77,77,56,1,9_dist_red/trial7.png,,,1,9,redHorizontal,p,58,m,24,2021-02-28_17h02.04.483,exp11,2020.2.6,Win32,60,IwAR2sL9sDz1JJqhmxL69egRraUMuB0MEUPUnRZNM0jRlJ70bA2t4jHB66QPY,,,,,,,,,,,
,,,,,,,,,,,,,,p,1,0.53976,space,0.259645,0,78,78,64,1,9_dist_red/trial15.png,,,1,9,redHorizontal,p,58,m,24,2021-02-28_17h02.04.483,exp11,2020.2.6,Win32,60,IwAR2sL9sDz1JJqhmxL69egRraUMuB0MEUPUnRZNM0jRlJ70bA2t4jHB66QPY,,,,,,,,,,,
,,,,,,,,,,,,,,a,1,0.55757,space,0.12377,0,79,79,143,1,0_targ_4_dist_red/trial19.png,,,0,4,redHorizontal,a,58,m,24,2021-02-28_17h02.04.483,exp11,2020.2.6,Win32,60,IwAR2sL9sDz1JJqhmxL69egRraUMuB0MEUPUnRZNM0jRlJ70bA2t4jHB66QPY,,,,,,,,,,,
,,,,,,,,,,,,,,a,1,0.640945,space,0.165395,0,80,80,145,1,0_targ_4_dist_red/trial21.png,,,0,4,redHorizontal,a,58,m,24,2021-02-28_17h02.04.483,exp11,2020.2.6,Win32,60,IwAR2sL9sDz1JJqhmxL69egRraUMuB0MEUPUnRZNM0jRlJ70bA2t4jHB66QPY,,,,,,,,,,,
,,,,,,,,,,,,,,a,1,0.730075,space,0.171645,0,81,81,182,1,0_targ_16_dist_red/trial8.png,,,0,16,redHorizontal,a,58,m,24,2021-02-28_17h02.04.483,exp11,2020.2.6,Win32,60,IwAR2sL9sDz1JJqhmxL69egRraUMuB0MEUPUnRZNM0jRlJ70bA2t4jHB66QPY,,,,,,,,,,,
,,,,,,,,,,,,,,a,1,0.55362,space,0.24449,0,82,82,155,1,0_targ_10_dist_red/trial6.png,,,0,10,redHorizontal,a,58,m,24,2021-02-28_17h02.04.483,exp11,2020.2.6,Win32,60,IwAR2sL9sDz1JJqhmxL69egRraUMuB0MEUPUnRZNM0jRlJ70bA2t4jHB66QPY,,,,,,,,,,,
,,,,,,,,,,,,,,p,1,0.442535,space,0.18459,0,83,83,58,1,9_dist_red/trial9.png,,,1,9,redHorizontal,p,58,m,24,2021-02-28_17h02.04.483,exp11,2020.2.6,Win32,60,IwAR2sL9sDz1JJqhmxL69egRraUMuB0MEUPUnRZNM0jRlJ70bA2t4jHB66QPY,,,,,,,,,,,
,,,,,,,,,,,,,,p,1,0.476125,space,0.166045,0,84,84,7,1,0_dist_red/trial8.png,,,1,0,redHorizontal,p,58,m,24,2021-02-28_17h02.04.483,exp11,2020.2.6,Win32,60,IwAR2sL9sDz1JJqhmxL69egRraUMuB0MEUPUnRZNM0jRlJ70bA2t4jHB66QPY,,,,,,,,,,,
,,,,,,,,,,,,,,a,1,0.686415,space,0.140105,0,85,85,102,1,0_targ_1_dist_red/trial3.png,,,0,1,redHorizontal,a,58,m,24,2021-02-28_17h02.04.483,exp11,2020.2.6,Win32,60,IwAR2sL9sDz1JJqhmxL69egRraUMuB0MEUPUnRZNM0jRlJ70bA2t4jHB66QPY,,,,,,,,,,,
,,,,,,,,,,,,,,a,1,0.73316,space,0.21881,0,86,86,178,1,0_targ_16_dist_red/trial4.png,,,0,16,redHorizontal,a,58,m,24,2021-02-28_17h02.04.483,exp11,2020.2.6,Win32,60,IwAR2sL9sDz1JJqhmxL69egRraUMuB0MEUPUnRZNM0jRlJ70bA2t4jHB66QPY,,,,,,,,,,,
,,,,,,,,,,,,,,a,1,0.507645,space,0.20288,0,87,87,117,1,0_targ_1_dist_red/trial18.png,,,0,1,redHorizontal,a,58,m,24,2021-02-28_17h02.04.483,exp11,2020.2.6,Win32,60,IwAR2sL9sDz1JJqhmxL69egRraUMuB0MEUPUnRZNM0jRlJ70bA2t4jHB66QPY,,,,,,,,,,,
,,,,,,,,,,,,,,p,1,0.650115,space,0.167495,0,88,88,98,1,15_dist_red/trial24.png,,,1,15,redHorizontal,p,58,m,24,2021-02-28_17h02.04.483,exp11,2020.2.6,Win32,60,IwAR2sL9sDz1JJqhmxL69egRraUMuB0MEUPUnRZNM0jRlJ70bA2t4jHB66QPY,,,,,,,,,,,
,,,,,,,,,,,,,,p,1,0.806165,space,0.139695,0,89,89,48,1,3_dist_red/trial24.png,,,1,3,redHorizontal,p,58,m,24,2021-02-28_17h02.04.483,exp11,2020.2.6,Win32,60,IwAR2sL9sDz1JJqhmxL69egRraUMuB0MEUPUnRZNM0jRlJ70bA2t4jHB66QPY,,,,,,,,,,,
,,,,,,,,,,,,,,a,1,0.67446,space,0.18746,0,90,90,159,1,0_targ_10_dist_red/trial10.png,,,0,10,redHorizontal,a,58,m,24,2021-02-28_17h02.04.483,exp11,2020.2.6,Win32,60,IwAR2sL9sDz1JJqhmxL69egRraUMuB0MEUPUnRZNM0jRlJ70bA2t4jHB66QPY,,,,,,,,,,,
,,,,,,,,,,,,,,a,1,0.71583,space,0.23522,0,91,91,129,1,0_targ_4_dist_red/trial5.png,,,0,4,redHorizontal,a,58,m,24,2021-02-28_17h02.04.483,exp11,2020.2.6,Win32,60,IwAR2sL9sDz1JJqhmxL69egRraUMuB0MEUPUnRZNM0jRlJ70bA2t4jHB66QPY,,,,,,,,,,,
,,,,,,,,,,,,,,p,1,0.741835,space,0.15785,0,92,92,57,1,9_dist_red/trial8.png,,,1,9,redHorizontal,p,58,m,24,2021-02-28_17h02.04.483,exp11,2020.2.6,Win32,60,IwAR2sL9sDz1JJqhmxL69egRraUMuB0MEUPUnRZNM0jRlJ70bA2t4jHB66QPY,,,,,,,,,,,
,,,,,,,,,,,,,,a,0,0.740625,space,0.002125,0,93,93,92,1,15_dist_red/trial18.png,,,1,15,redHorizontal,p,58,m,24,2021-02-28_17h02.04.483,exp11,2020.2.6,Win32,60,IwAR2sL9sDz1JJqhmxL69egRraUMuB0MEUPUnRZNM0jRlJ70bA2t4jHB66QPY,,,,,,,,,,,
,,,,,,,,,,,,,,a,1,1.255745,space,0.14604,0,94,94,187,1,0_targ_16_dist_red/trial13.png,,,0,16,redHorizontal,a,58,m,24,2021-02-28_17h02.04.483,exp11,2020.2.6,Win32,60,IwAR2sL9sDz1JJqhmxL69egRraUMuB0MEUPUnRZNM0jRlJ70bA2t4jHB66QPY,,,,,,,,,,,
,,,,,,,,,,,,,,a,1,0.712935,space,0.181475,0,95,95,161,1,0_targ_10_dist_red/trial12.png,,,0,10,redHorizontal,a,58,m,24,2021-02-28_17h02.04.483,exp11,2020.2.6,Win32,60,IwAR2sL9sDz1JJqhmxL69egRraUMuB0MEUPUnRZNM0jRlJ70bA2t4jHB66QPY,,,,,,,,,,,
,,,,,,,,,,,,,,p,1,0.80137,space,0.204305,0,96,96,79,1,15_dist_red/trial5.png,,,1,15,redHorizontal,p,58,m,24,2021-02-28_17h02.04.483,exp11,2020.2.6,Win32,60,IwAR2sL9sDz1JJqhmxL69egRraUMuB0MEUPUnRZNM0jRlJ70bA2t4jHB66QPY,,,,,,,,,,,
,,,,,,,,,,,,,,a,1,0.68122,space,0.18645,0,97,97,185,1,0_targ_16_dist_red/trial11.png,,,0,16,redHorizontal,a,58,m,24,2021-02-28_17h02.04.483,exp11,2020.2.6,Win32,60,IwAR2sL9sDz1JJqhmxL69egRraUMuB0MEUPUnRZNM0jRlJ70bA2t4jHB66QPY,,,,,,,,,,,
,,,,,,,,,,,,,,p,1,0.58375,space,0.329965,0,98,98,81,1,15_dist_red/trial7.png,,,1,15,redHorizontal,p,58,m,24,2021-02-28_17h02.04.483,exp11,2020.2.6,Win32,60,IwAR2sL9sDz1JJqhmxL69egRraUMuB0MEUPUnRZNM0jRlJ70bA2t4jHB66QPY,,,,,,,,,,,
,,,,,,,,,,,,,,a,1,0.63346,space,0.193695,0,99,99,103,1,0_targ_1_dist_red/trial4.png,,,0,1,redHorizontal,a,58,m,24,2021-02-28_17h02.04.483,exp11,2020.2.6,Win32,60,IwAR2sL9sDz1JJqhmxL69egRraUMuB0MEUPUnRZNM0jRlJ70bA2t4jHB66QPY,,,,,,,,,,,
,,,,,,,,,,,,,,p,1,0.606475,space,0.13698,0,100,100,3,1,0_dist_red/trial4.png,,,1,0,redHorizontal,p,58,m,24,2021-02-28_17h02.04.483,exp11,2020.2.6,Win32,60,IwAR2sL9sDz1JJqhmxL69egRraUMuB0MEUPUnRZNM0jRlJ70bA2t4jHB66QPY,,,,,,,,,,,
,,,,,,,,,,,,,,a,1,0.599215,space,0.182985,0,101,101,142,1,0_targ_4_dist_red/trial18.png,,,0,4,redHorizontal,a,58,m,24,2021-02-28_17h02.04.483,exp11,2020.2.6,Win32,60,IwAR2sL9sDz1JJqhmxL69egRraUMuB0MEUPUnRZNM0jRlJ70bA2t4jHB66QPY,,,,,,,,,,,
,,,,,,,,,,,,,,a,1,0.738875,space,0.167005,0,102,102,176,1,0_targ_16_dist_red/trial2.png,,,0,16,redHorizontal,a,58,m,24,2021-02-28_17h02.04.483,exp11,2020.2.6,Win32,60,IwAR2sL9sDz1JJqhmxL69egRraUMuB0MEUPUnRZNM0jRlJ70bA2t4jHB66QPY,,,,,,,,,,,
,,,,,,,,,,,,,,a,1,0.61732,space,0.174655,0,103,103,191,1,0_targ_16_dist_red/trial17.png,,,0,16,redHorizontal,a,58,m,24,2021-02-28_17h02.04.483,exp11,2020.2.6,Win32,60,IwAR2sL9sDz1JJqhmxL69egRraUMuB0MEUPUnRZNM0jRlJ70bA2t4jHB66QPY,,,,,,,,,,,
,,,,,,,,,,,,,,p,1,0.5402,space,0.17081,0,104,104,52,1,9_dist_red/trial3.png,,,1,9,redHorizontal,p,58,m,24,2021-02-28_17h02.04.483,exp11,2020.2.6,Win32,60,IwAR2sL9sDz1JJqhmxL69egRraUMuB0MEUPUnRZNM0jRlJ70bA2t4jHB66QPY,,,,,,,,,,,
,,,,,,,,,,,,,,a,1,0.906675,space,0.170115,0,105,105,154,1,0_targ_10_dist_red/trial5.png,,,0,10,redHorizontal,a,58,m,24,2021-02-28_17h02.04.483,exp11,2020.2.6,Win32,60,IwAR2sL9sDz1JJqhmxL69egRraUMuB0MEUPUnRZNM0jRlJ70bA2t4jHB66QPY,,,,,,,,,,,
,,,,,,,,,,,,,,p,1,0.740995,space,0.151135,0,106,106,11,1,0_dist_red/trial12.png,,,1,0,redHorizontal,p,58,m,24,2021-02-28_17h02.04.483,exp11,2020.2.6,Win32,60,IwAR2sL9sDz1JJqhmxL69egRraUMuB0MEUPUnRZNM0jRlJ70bA2t4jHB66QPY,,,,,,,,,,,
,,,,,,,,,,,,,,a,1,0.662085,space,0.14435,0,107,107,133,1,0_targ_4_dist_red/trial9.png,,,0,4,redHorizontal,a,58,m,24,2021-02-28_17h02.04.483,exp11,2020.2.6,Win32,60,IwAR2sL9sDz1JJqhmxL69egRraUMuB0MEUPUnRZNM0jRlJ70bA2t4jHB66QPY,,,,,,,,,,,
,,,,,,,,,,,,,,a,1,0.656855,space,0.20825,0,108,108,193,1,0_targ_16_dist_red/trial19.png,,,0,16,redHorizontal,a,58,m,24,2021-02-28_17h02.04.483,exp11,2020.2.6,Win32,60,IwAR2sL9sDz1JJqhmxL69egRraUMuB0MEUPUnRZNM0jRlJ70bA2t4jHB66QPY,,,,,,,,,,,
,,,,,,,,,,,,,,a,1,0.58419,space,0.20635,0,109,109,140,1,0_targ_4_dist_red/trial6.png,,,0,4,redHorizontal,a,58,m,24,2021-02-28_17h02.04.483,exp11,2020.2.6,Win32,60,IwAR2sL9sDz1JJqhmxL69egRraUMuB0MEUPUnRZNM0jRlJ70bA2t4jHB66QPY,,,,,,,,,,,
,,,,,,,,,,,,,,a,1,0.58253,space,0.252575,0,110,110,190,1,0_targ_16_dist_red/trial16.png,,,0,16,redHorizontal,a,58,m,24,2021-02-28_17h02.04.483,exp11,2020.2.6,Win32,60,IwAR2sL9sDz1JJqhmxL69egRraUMuB0MEUPUnRZNM0jRlJ70bA2t4jHB66QPY,,,,,,,,,,,
,,,,,,,,,,,,,,p,1,0.5938,space,0.191115,0,111,111,35,1,3_dist_red/trial11.png,,,1,3,redHorizontal,p,58,m,24,2021-02-28_17h02.04.483,exp11,2020.2.6,Win32,60,IwAR2sL9sDz1JJqhmxL69egRraUMuB0MEUPUnRZNM0jRlJ70bA2t4jHB66QPY,,,,,,,,,,,
,,,,,,,,,,,,,,a,1,0.718795,space,0.265975,0,112,112,162,1,0_targ_10_dist_red/trial13.png,,,0,10,redHorizontal,a,58,m,24,2021-02-28_17h02.04.483,exp11,2020.2.6,Win32,60,IwAR2sL9sDz1JJqhmxL69egRraUMuB0MEUPUnRZNM0jRlJ70bA2t4jHB66QPY,,,,,,,,,,,
,,,,,,,,,,,,,,a,1,0.548735,space,0.24037,0,113,113,146,1,0_targ_4_dist_red/trial22.png,,,0,4,redHorizontal,a,58,m,24,2021-02-28_17h02.04.483,exp11,2020.2.6,Win32,60,IwAR2sL9sDz1JJqhmxL69egRraUMuB0MEUPUnRZNM0jRlJ70bA2t4jHB66QPY,,,,,,,,,,,
,,,,,,,,,,,,,,p,1,1.11687,space,0.28625,0,114,114,45,1,3_dist_red/trial21.png,,,1,3,redHorizontal,p,58,m,24,2021-02-28_17h02.04.483,exp11,2020.2.6,Win32,60,IwAR2sL9sDz1JJqhmxL69egRraUMuB0MEUPUnRZNM0jRlJ70bA2t4jHB66QPY,,,,,,,,,,,
,,,,,,,,,,,,,,a,1,0.9263,space,0.251435,0,115,115,186,1,0_targ_16_dist_red/trial12.png,,,0,16,redHorizontal,a,58,m,24,2021-02-28_17h02.04.483,exp11,2020.2.6,Win32,60,IwAR2sL9sDz1JJqhmxL69egRraUMuB0MEUPUnRZNM0jRlJ70bA2t4jHB66QPY,,,,,,,,,,,
,,,,,,,,,,,,,,p,1,0.82549,space,0.202625,0,116,116,29,1,3_dist_red/trial5.png,,,1,3,redHorizontal,p,58,m,24,2021-02-28_17h02.04.483,exp11,2020.2.6,Win32,60,IwAR2sL9sDz1JJqhmxL69egRraUMuB0MEUPUnRZNM0jRlJ70bA2t4jHB66QPY,,,,,,,,,,,
,,,,,,,,,,,,,,a,0,0.79486,space,0.192095,0,117,117,34,1,3_dist_red/trial10.png,,,1,3,redHorizontal,p,58,m,24,2021-02-28_17h02.04.483,exp11,2020.2.6,Win32,60,IwAR2sL9sDz1JJqhmxL69egRraUMuB0MEUPUnRZNM0jRlJ70bA2t4jHB66QPY,,,,,,,,,,,
,,,,,,,,,,,,,,a,1,0.91331,space,0.162435,0,118,118,104,1,0_targ_1_dist_red/trial5.png,,,0,1,redHorizontal,a,58,m,24,2021-02-28_17h02.04.483,exp11,2020.2.6,Win32,60,IwAR2sL9sDz1JJqhmxL69egRraUMuB0MEUPUnRZNM0jRlJ70bA2t4jHB66QPY,,,,,,,,,,,
,,,,,,,,,,,,,,p,1,0.58268,space,0.154595,0,119,119,15,1,0_dist_red/trial16.png,,,1,0,redHorizontal,p,58,m,24,2021-02-28_17h02.04.483,exp11,2020.2.6,Win32,60,IwAR2sL9sDz1JJqhmxL69egRraUMuB0MEUPUnRZNM0jRlJ70bA2t4jHB66QPY,,,,,,,,,,,
,,,,,,,,,,,,,,p,1,0.558735,space,0.15112,0,120,120,43,1,3_dist_red/trial19.png,,,1,3,redHorizontal,p,58,m,24,2021-02-28_17h02.04.483,exp11,2020.2.6,Win32,60,IwAR2sL9sDz1JJqhmxL69egRraUMuB0MEUPUnRZNM0jRlJ70bA2t4jHB66QPY,,,,,,,,,,,
,,,,,,,,,,,,,,p,1,0.90634,space,0.13781,0,121,121,80,1,15_dist_red/trial6.png,,,1,15,redHorizontal,p,58,m,24,2021-02-28_17h02.04.483,exp11,2020.2.6,Win32,60,IwAR2sL9sDz1JJqhmxL69egRraUMuB0MEUPUnRZNM0jRlJ70bA2t4jHB66QPY,,,,,,,,,,,
,,,,,,,,,,,,,,p,1,0.71833,space,0.13769,0,122,122,72,1,9_dist_red/trial23.png,,,1,9,redHorizontal,p,58,m,24,2021-02-28_17h02.04.483,exp11,2020.2.6,Win32,60,IwAR2sL9sDz1JJqhmxL69egRraUMuB0MEUPUnRZNM0jRlJ70bA2t4jHB66QPY,,,,,,,,,,,
,,,,,,,,,,,,,,a,1,0.709655,space,0.173245,0,123,123,175,1,0_targ_16_dist_red/trial1.png,,,0,16,redHorizontal,a,58,m,24,2021-02-28_17h02.04.483,exp11,2020.2.6,Win32,60,IwAR2sL9sDz1JJqhmxL69egRraUMuB0MEUPUnRZNM0jRlJ70bA2t4jHB66QPY,,,,,,,,,,,
,,,,,,,,,,,,,,p,1,0.60683,space,0.138735,0,124,124,37,1,3_dist_red/trial13.png,,,1,3,redHorizontal,p,58,m,24,2021-02-28_17h02.04.483,exp11,2020.2.6,Win32,60,IwAR2sL9sDz1JJqhmxL69egRraUMuB0MEUPUnRZNM0jRlJ70bA2t4jHB66QPY,,,,,,,,,,,
,,,,,,,,,,,,,,a,1,1.67714,space,0.185395,0,125,125,195,1,0_targ_16_dist_red/trial21.png,,,0,16,redHorizontal,a,58,m,24,2021-02-28_17h02.04.483,exp11,2020.2.6,Win32,60,IwAR2sL9sDz1JJqhmxL69egRraUMuB0MEUPUnRZNM0jRlJ70bA2t4jHB66QPY,,,,,,,,,,,
,,,,,,,,,,,,,,a,1,0.63786,space,0.21073,0,126,126,149,1,0_targ_4_dist_red/trial25.png,,,0,4,redHorizontal,a,58,m,24,2021-02-28_17h02.04.483,exp11,2020.2.6,Win32,60,IwAR2sL9sDz1JJqhmxL69egRraUMuB0MEUPUnRZNM0jRlJ70bA2t4jHB66QPY,,,,,,,,,,,
,,,,,,,,,,,,,,a,1,0.692635,space,0.23492,0,127,127,116,1,0_targ_1_dist_red/trial17.png,,,0,1,redHorizontal,a,58,m,24,2021-02-28_17h02.04.483,exp11,2020.2.6,Win32,60,IwAR2sL9sDz1JJqhmxL69egRraUMuB0MEUPUnRZNM0jRlJ70bA2t4jHB66QPY,,,,,,,,,,,
,,,,,,,,,,,,,,a,1,0.5339,space,0.19897,0,128,128,148,1,0_targ_4_dist_red/trial24.png,,,0,4,redHorizontal,a,58,m,24,2021-02-28_17h02.04.483,exp11,2020.2.6,Win32,60,IwAR2sL9sDz1JJqhmxL69egRraUMuB0MEUPUnRZNM0jRlJ70bA2t4jHB66QPY,,,,,,,,,,,
,,,,,,,,,,,,,,p,1,0.51696,space,0.15183,0,129,129,21,1,0_dist_red/trial22.png,,,1,0,redHorizontal,p,58,m,24,2021-02-28_17h02.04.483,exp11,2020.2.6,Win32,60,IwAR2sL9sDz1JJqhmxL69egRraUMuB0MEUPUnRZNM0jRlJ70bA2t4jHB66QPY,,,,,,,,,,,
,,,,,,,,,,,,,,a,1,0.72887,space,0.15888,0,130,130,128,1,0_targ_4_dist_red/trial4.png,,,0,4,redHorizontal,a,58,m,24,2021-02-28_17h02.04.483,exp11,2020.2.6,Win32,60,IwAR2sL9sDz1JJqhmxL69egRraUMuB0MEUPUnRZNM0jRlJ70bA2t4jHB66QPY,,,,,,,,,,,
,,,,,,,,,,,,,,a,1,0.65794,space,0.16855,0,131,131,188,1,0_targ_16_dist_red/trial14.png,,,0,16,redHorizontal,a,58,m,24,2021-02-28_17h02.04.483,exp11,2020.2.6,Win32,60,IwAR2sL9sDz1JJqhmxL69egRraUMuB0MEUPUnRZNM0jRlJ70bA2t4jHB66QPY,,,,,,,,,,,
,,,,,,,,,,,,,,a,1,0.575695,space,0.20621,0,132,132,160,1,0_targ_10_dist_red/trial11.png,,,0,10,redHorizontal,a,58,m,24,2021-02-28_17h02.04.483,exp11,2020.2.6,Win32,60,IwAR2sL9sDz1JJqhmxL69egRraUMuB0MEUPUnRZNM0jRlJ70bA2t4jHB66QPY,,,,,,,,,,,
,,,,,,,,,,,,,,a,1,0.55845,space,0.38749,0,133,133,131,1,0_targ_4_dist_red/trial7.png,,,0,4,redHorizontal,a,58,m,24,2021-02-28_17h02.04.483,exp11,2020.2.6,Win32,60,IwAR2sL9sDz1JJqhmxL69egRraUMuB0MEUPUnRZNM0jRlJ70bA2t4jHB66QPY,,,,,,,,,,,
,,,,,,,,,,,,,,a,1,0.568505,space,0.20272,0,134,134,170,1,0_targ_10_dist_red/trial21.png,,,0,10,redHorizontal,a,58,m,24,2021-02-28_17h02.04.483,exp11,2020.2.6,Win32,60,IwAR2sL9sDz1JJqhmxL69egRraUMuB0MEUPUnRZNM0jRlJ70bA2t4jHB66QPY,,,,,,,,,,,
,,,,,,,,,,,,,,a,1,0.46789,space,0.15511,0,135,135,173,1,0_targ_10_dist_red/trial24.png,,,0,10,redHorizontal,a,58,m,24,2021-02-28_17h02.04.483,exp11,2020.2.6,Win32,60,IwAR2sL9sDz1JJqhmxL69egRraUMuB0MEUPUnRZNM0jRlJ70bA2t4jHB66QPY,,,,,,,,,,,
,,,,,,,,,,,,,,a,1,0.55039,space,0.1813,0,136,136,152,1,0_targ_10_dist_red/trial3.png,,,0,10,redHorizontal,a,58,m,24,2021-02-28_17h02.04.483,exp11,2020.2.6,Win32,60,IwAR2sL9sDz1JJqhmxL69egRraUMuB0MEUPUnRZNM0jRlJ70bA2t4jHB66QPY,,,,,,,,,,,
,,,,,,,,,,,,,,a,1,0.507795,space,0.1811,0,137,137,135,1,0_targ_4_dist_red/trial11.png,,,0,4,redHorizontal,a,58,m,24,2021-02-28_17h02.04.483,exp11,2020.2.6,Win32,60,IwAR2sL9sDz1JJqhmxL69egRraUMuB0MEUPUnRZNM0jRlJ70bA2t4jHB66QPY,,,,,,,,,,,
,,,,,,,,,,,,,,p,1,0.67314,space,0.10709,0,138,138,73,1,9_dist_red/trial24.png,,,1,9,redHorizontal,p,58,m,24,2021-02-28_17h02.04.483,exp11,2020.2.6,Win32,60,IwAR2sL9sDz1JJqhmxL69egRraUMuB0MEUPUnRZNM0jRlJ70bA2t4jHB66QPY,,,,,,,,,,,
,,,,,,,,,,,,,,p,1,0.587115,space,0.16879,0,139,139,32,1,3_dist_red/trial8.png,,,1,3,redHorizontal,p,58,m,24,2021-02-28_17h02.04.483,exp11,2020.2.6,Win32,60,IwAR2sL9sDz1JJqhmxL69egRraUMuB0MEUPUnRZNM0jRlJ70bA2t4jHB66QPY,,,,,,,,,,,
,,,,,,,,,,,,,,a,1,0.60464,space,0.137315,0,140,140,136,1,0_targ_4_dist_red/trial12.png,,,0,4,redHorizontal,a,58,m,24,2021-02-28_17h02.04.483,exp11,2020.2.6,Win32,60,IwAR2sL9sDz1JJqhmxL69egRraUMuB0MEUPUnRZNM0jRlJ70bA2t4jHB66QPY,,,,,,,,,,,
,,,,,,,,,,,,,,a,0,0.737515,space,0.040835,0,141,141,55,1,9_dist_red/trial6.png,,,1,9,redHorizontal,p,58,m,24,2021-02-28_17h02.04.483,exp11,2020.2.6,Win32,60,IwAR2sL9sDz1JJqhmxL69egRraUMuB0MEUPUnRZNM0jRlJ70bA2t4jHB66QPY,,,,,,,,,,,
,,,,,,,,,,,,,,p,1,1.000775,space,0.188105,0,142,142,70,1,9_dist_red/trial21.png,,,1,9,redHorizontal,p,58,m,24,2021-02-28_17h02.04.483,exp11,2020.2.6,Win32,60,IwAR2sL9sDz1JJqhmxL69egRraUMuB0MEUPUnRZNM0jRlJ70bA2t4jHB66QPY,,,,,,,,,,,
,,,,,,,,,,,,,,p,1,0.558425,space,0.132535,0,143,143,39,1,3_dist_red/trial15.png,,,1,3,redHorizontal,p,58,m,24,2021-02-28_17h02.04.483,exp11,2020.2.6,Win32,60,IwAR2sL9sDz1JJqhmxL69egRraUMuB0MEUPUnRZNM0jRlJ70bA2t4jHB66QPY,,,,,,,,,,,
,,,,,,,,,,,,,,p,1,0.64766,space,0.130915,0,144,144,71,1,9_dist_red/trial22.png,,,1,9,redHorizontal,p,58,m,24,2021-02-28_17h02.04.483,exp11,2020.2.6,Win32,60,IwAR2sL9sDz1JJqhmxL69egRraUMuB0MEUPUnRZNM0jRlJ70bA2t4jHB66QPY,,,,,,,,,,,
,,,,,,,,,,,,,,p,1,0.63568,space,0.13217,0,145,145,76,1,15_dist_red/trial2.png,,,1,15,redHorizontal,p,58,m,24,2021-02-28_17h02.04.483,exp11,2020.2.6,Win32,60,IwAR2sL9sDz1JJqhmxL69egRraUMuB0MEUPUnRZNM0jRlJ70bA2t4jHB66QPY,,,,,,,,,,,
,,,,,,,,,,,,,,a,1,0.580175,space,0.16886,0,146,146,171,1,0_targ_10_dist_red/trial22.png,,,0,10,redHorizontal,a,58,m,24,2021-02-28_17h02.04.483,exp11,2020.2.6,Win32,60,IwAR2sL9sDz1JJqhmxL69egRraUMuB0MEUPUnRZNM0jRlJ70bA2t4jHB66QPY,,,,,,,,,,,
,,,,,,,,,,,,,,p,1,0.65224,space,0.16188,0,147,147,82,1,15_dist_red/trial8.png,,,1,15,redHorizontal,p,58,m,24,2021-02-28_17h02.04.483,exp11,2020.2.6,Win32,60,IwAR2sL9sDz1JJqhmxL69egRraUMuB0MEUPUnRZNM0jRlJ70bA2t4jHB66QPY,,,,,,,,,,,
,,,,,,,,,,,,,,p,1,0.672315,space,0.219965,0,148,148,85,1,15_dist_red/trial11.png,,,1,15,redHorizontal,p,58,m,24,2021-02-28_17h02.04.483,exp11,2020.2.6,Win32,60,IwAR2sL9sDz1JJqhmxL69egRraUMuB0MEUPUnRZNM0jRlJ70bA2t4jHB66QPY,,,,,,,,,,,
,,,,,,,,,,,,,,p,1,0.57891,space,0.1073,0,149,149,28,1,3_dist_red/trial4.png,,,1,3,redHorizontal,p,58,m,24,2021-02-28_17h02.04.483,exp11,2020.2.6,Win32,60,IwAR2sL9sDz1JJqhmxL69egRraUMuB0MEUPUnRZNM0jRlJ70bA2t4jHB66QPY,,,,,,,,,,,
,,,,,,,,,,,,,,p,1,0.613155,space,0.13519,0,150,150,90,1,15_dist_red/trial16.png,,,1,15,redHorizontal,p,58,m,24,2021-02-28_17h02.04.483,exp11,2020.2.6,Win32,60,IwAR2sL9sDz1JJqhmxL69egRraUMuB0MEUPUnRZNM0jRlJ70bA2t4jHB66QPY,,,,,,,,,,,
,,,,,,,,,,,,,,p,1,0.715755,space,0.10141,0,151,151,84,1,15_dist_red/trial10.png,,,1,15,redHorizontal,p,58,m,24,2021-02-28_17h02.04.483,exp11,2020.2.6,Win32,60,IwAR2sL9sDz1JJqhmxL69egRraUMuB0MEUPUnRZNM0jRlJ70bA2t4jHB66QPY,,,,,,,,,,,
,,,,,,,,,,,,,,a,1,0.69031,space,0.15185,0,152,152,164,1,0_targ_10_dist_red/trial15.png,,,0,10,redHorizontal,a,58,m,24,2021-02-28_17h02.04.483,exp11,2020.2.6,Win32,60,IwAR2sL9sDz1JJqhmxL69egRraUMuB0MEUPUnRZNM0jRlJ70bA2t4jHB66QPY,,,,,,,,,,,
,,,,,,,,,,,,,,p,1,0.571495,space,0.167755,0,153,153,87,1,15_dist_red/trial13.png,,,1,15,redHorizontal,p,58,m,24,2021-02-28_17h02.04.483,exp11,2020.2.6,Win32,60,IwAR2sL9sDz1JJqhmxL69egRraUMuB0MEUPUnRZNM0jRlJ70bA2t4jHB66QPY,,,,,,,,,,,
,,,,,,,,,,,,,,p,1,0.59602,space,0.12759,0,154,154,63,1,9_dist_red/trial14.png,,,1,9,redHorizontal,p,58,m,24,2021-02-28_17h02.04.483,exp11,2020.2.6,Win32,60,IwAR2sL9sDz1JJqhmxL69egRraUMuB0MEUPUnRZNM0jRlJ70bA2t4jHB66QPY,,,,,,,,,,,
,,,,,,,,,,,,,,p,1,0.68219,space,0.152615,0,155,155,47,1,3_dist_red/trial23.png,,,1,3,redHorizontal,p,58,m,24,2021-02-28_17h02.04.483,exp11,2020.2.6,Win32,60,IwAR2sL9sDz1JJqhmxL69egRraUMuB0MEUPUnRZNM0jRlJ70bA2t4jHB66QPY,,,,,,,,,,,
,,,,,,,,,,,,,,a,1,0.674405,space,0.190155,0,156,156,197,1,0_targ_16_dist_red/trial23.png,,,0,16,redHorizontal,a,58,m,24,2021-02-28_17h02.04.483,exp11,2020.2.6,Win32,60,IwAR2sL9sDz1JJqhmxL69egRraUMuB0MEUPUnRZNM0jRlJ70bA2t4jHB66QPY,,,,,,,,,,,
,,,,,,,,,,,,,,a,1,0.763875,space,0.15149,0,157,157,144,1,0_targ_4_dist_red/trial20.png,,,0,4,redHorizontal,a,58,m,24,2021-02-28_17h02.04.483,exp11,2020.2.6,Win32,60,IwAR2sL9sDz1JJqhmxL69egRraUMuB0MEUPUnRZNM0jRlJ70bA2t4jHB66QPY,,,,,,,,,,,
,,,,,,,,,,,,,,a,1,0.79146,space,0.218465,0,158,158,174,1,0_targ_10_dist_red/trial25.png,,,0,10,redHorizontal,a,58,m,24,2021-02-28_17h02.04.483,exp11,2020.2.6,Win32,60,IwAR2sL9sDz1JJqhmxL69egRraUMuB0MEUPUnRZNM0jRlJ70bA2t4jHB66QPY,,,,,,,,,,,
,,,,,,,,,,,,,,a,1,0.565915,space,0.23503,0,159,159,166,1,0_targ_10_dist_red/trial17.png,,,0,10,redHorizontal,a,58,m,24,2021-02-28_17h02.04.483,exp11,2020.2.6,Win32,60,IwAR2sL9sDz1JJqhmxL69egRraUMuB0MEUPUnRZNM0jRlJ70bA2t4jHB66QPY,,,,,,,,,,,
,,,,,,,,,,,,,,a,1,0.54437,space,0.254075,0,160,160,141,1,0_targ_4_dist_red/trial17.png,,,0,4,redHorizontal,a,58,m,24,2021-02-28_17h02.04.483,exp11,2020.2.6,Win32,60,IwAR2sL9sDz1JJqhmxL69egRraUMuB0MEUPUnRZNM0jRlJ70bA2t4jHB66QPY,,,,,,,,,,,
,,,,,,,,,,,,,,a,1,0.59313,space,0.20582,0,161,161,105,1,0_targ_1_dist_red/trial6.png,,,0,1,redHorizontal,a,58,m,24,2021-02-28_17h02.04.483,exp11,2020.2.6,Win32,60,IwAR2sL9sDz1JJqhmxL69egRraUMuB0MEUPUnRZNM0jRlJ70bA2t4jHB66QPY,,,,,,,,,,,
,,,,,,,,,,,,,,a,0,0.487105,space,0.13874,0,162,162,4,1,0_dist_red/trial5.png,,,1,0,redHorizontal,p,58,m,24,2021-02-28_17h02.04.483,exp11,2020.2.6,Win32,60,IwAR2sL9sDz1JJqhmxL69egRraUMuB0MEUPUnRZNM0jRlJ70bA2t4jHB66QPY,,,,,,,,,,,
,,,,,,,,,,,,,,a,0,0.81283,space,0.13525,0,163,163,50,1,9_dist_red/trial1.png,,,1,9,redHorizontal,p,58,m,24,2021-02-28_17h02.04.483,exp11,2020.2.6,Win32,60,IwAR2sL9sDz1JJqhmxL69egRraUMuB0MEUPUnRZNM0jRlJ70bA2t4jHB66QPY,,,,,,,,,,,
,,,,,,,,,,,,,,p,1,0.64768,space,0.08704,0,164,164,91,1,15_dist_red/trial17.png,,,1,15,redHorizontal,p,58,m,24,2021-02-28_17h02.04.483,exp11,2020.2.6,Win32,60,IwAR2sL9sDz1JJqhmxL69egRraUMuB0MEUPUnRZNM0jRlJ70bA2t4jHB66QPY,,,,,,,,,,,
,,,,,,,,,,,,,,a,1,0.600945,space,0.16704,0,165,165,112,1,0_targ_1_dist_red/trial13.png,,,0,1,redHorizontal,a,58,m,24,2021-02-28_17h02.04.483,exp11,2020.2.6,Win32,60,IwAR2sL9sDz1JJqhmxL69egRraUMuB0MEUPUnRZNM0jRlJ70bA2t4jHB66QPY,,,,,,,,,,,
,,,,,,,,,,,,,,a,1,0.6035,space,0.13763,0,166,166,199,1,0_targ_16_dist_red/trial25.png,,,0,16,redHorizontal,a,58,m,24,2021-02-28_17h02.04.483,exp11,2020.2.6,Win32,60,IwAR2sL9sDz1JJqhmxL69egRraUMuB0MEUPUnRZNM0jRlJ70bA2t4jHB66QPY,,,,,,,,,,,
,,,,,,,,,,,,,,a,0,0.55743,space,0.10489,0,167,167,59,1,9_dist_red/trial10.png,,,1,9,redHorizontal,p,58,m,24,2021-02-28_17h02.04.483,exp11,2020.2.6,Win32,60,IwAR2sL9sDz1JJqhmxL69egRraUMuB0MEUPUnRZNM0jRlJ70bA2t4jHB66QPY,,,,,,,,,,,
,,,,,,,,,,,,,,p,1,1.21417,space,0.14633,0,168,168,44,1,3_dist_red/trial20.png,,,1,3,redHorizontal,p,58,m,24,2021-02-28_17h02.04.483,exp11,2020.2.6,Win32,60,IwAR2sL9sDz1JJqhmxL69egRraUMuB0MEUPUnRZNM0jRlJ70bA2t4jHB66QPY,,,,,,,,,,,
,,,,,,,,,,,,,,p,1,0.5762,space,0.157785,0,169,169,25,1,3_dist_red/trial1.png,,,1,3,redHorizontal,p,58,m,24,2021-02-28_17h02.04.483,exp11,2020.2.6,Win32,60,IwAR2sL9sDz1JJqhmxL69egRraUMuB0MEUPUnRZNM0jRlJ70bA2t4jHB66QPY,,,,,,,,,,,
,,,,,,,,,,,,,,a,1,0.63998,space,0.145055,0,170,170,100,1,0_targ_1_dist_red/trial1.png,,,0,1,redHorizontal,a,58,m,24,2021-02-28_17h02.04.483,exp11,2020.2.6,Win32,60,IwAR2sL9sDz1JJqhmxL69egRraUMuB0MEUPUnRZNM0jRlJ70bA2t4jHB66QPY,,,,,,,,,,,
,,,,,,,,,,,,,,p,1,0.725185,space,0.201045,0,171,171,10,1,0_dist_red/trial11.png,,,1,0,redHorizontal,p,58,m,24,2021-02-28_17h02.04.483,exp11,2020.2.6,Win32,60,IwAR2sL9sDz1JJqhmxL69egRraUMuB0MEUPUnRZNM0jRlJ70bA2t4jHB66QPY,,,,,,,,,,,
,,,,,,,,,,,,,,p,1,0.62512,space,0.153215,0,172,172,51,1,9_dist_red/trial2.png,,,1,9,redHorizontal,p,58,m,24,2021-02-28_17h02.04.483,exp11,2020.2.6,Win32,60,IwAR2sL9sDz1JJqhmxL69egRraUMuB0MEUPUnRZNM0jRlJ70bA2t4jHB66QPY,,,,,,,,,,,
,,,,,,,,,,,,,,p,1,0.477065,space,0.11661,0,173,173,67,1,9_dist_red/trial18.png,,,1,9,redHorizontal,p,58,m,24,2021-02-28_17h02.04.483,exp11,2020.2.6,Win32,60,IwAR2sL9sDz1JJqhmxL69egRraUMuB0MEUPUnRZNM0jRlJ70bA2t4jHB66QPY,,,,,,,,,,,
,,,,,,,,,,,,,,p,1,0.567625,space,0.157855,0,174,174,83,1,15_dist_red/trial9.png,,,1,15,redHorizontal,p,58,m,24,2021-02-28_17h02.04.483,exp11,2020.2.6,Win32,60,IwAR2sL9sDz1JJqhmxL69egRraUMuB0MEUPUnRZNM0jRlJ70bA2t4jHB66QPY,,,,,,,,,,,
,,,,,,,,,,,,,,p,1,0.498715,space,0.124655,0,175,175,24,1,0_dist_red/trial25.png,,,1,0,redHorizontal,p,58,m,24,2021-02-28_17h02.04.483,exp11,2020.2.6,Win32,60,IwAR2sL9sDz1JJqhmxL69egRraUMuB0MEUPUnRZNM0jRlJ70bA2t4jHB66QPY,,,,,,,,,,,
,,,,,,,,,,,,,,p,1,0.427525,space,0.10068,0,176,176,14,1,0_dist_red/trial15.png,,,1,0,redHorizontal,p,58,m,24,2021-02-28_17h02.04.483,exp11,2020.2.6,Win32,60,IwAR2sL9sDz1JJqhmxL69egRraUMuB0MEUPUnRZNM0jRlJ70bA2t4jHB66QPY,,,,,,,,,,,
,,,,,,,,,,,,,,a,1,0.535405,space,0.18424,0,177,177,113,1,0_targ_1_dist_red/trial14.png,,,0,1,redHorizontal,a,58,m,24,2021-02-28_17h02.04.483,exp11,2020.2.6,Win32,60,IwAR2sL9sDz1JJqhmxL69egRraUMuB0MEUPUnRZNM0jRlJ70bA2t4jHB66QPY,,,,,,,,,,,
,,,,,,,,,,,,,,a,1,0.59427,space,0.166195,0,178,178,115,1,0_targ_1_dist_red/trial6.png,,,0,1,redHorizontal,a,58,m,24,2021-02-28_17h02.04.483,exp11,2020.2.6,Win32,60,IwAR2sL9sDz1JJqhmxL69egRraUMuB0MEUPUnRZNM0jRlJ70bA2t4jHB66QPY,,,,,,,,,,,
,,,,,,,,,,,,,,a,1,0.90246,space,0.17365,0,179,179,192,1,0_targ_16_dist_red/trial18.png,,,0,16,redHorizontal,a,58,m,24,2021-02-28_17h02.04.483,exp11,2020.2.6,Win32,60,IwAR2sL9sDz1JJqhmxL69egRraUMuB0MEUPUnRZNM0jRlJ70bA2t4jHB66QPY,,,,,,,,,,,
,,,,,,,,,,,,,,p,1,0.663765,space,0.264125,0,180,180,99,1,15_dist_red/trial25.png,,,1,15,redHorizontal,p,58,m,24,2021-02-28_17h02.04.483,exp11,2020.2.6,Win32,60,IwAR2sL9sDz1JJqhmxL69egRraUMuB0MEUPUnRZNM0jRlJ70bA2t4jHB66QPY,,,,,,,,,,,
,,,,,,,,,,,,,,p,1,0.74498,space,0.18308,0,181,181,96,1,15_dist_red/trial22.png,,,1,15,redHorizontal,p,58,m,24,2021-02-28_17h02.04.483,exp11,2020.2.6,Win32,60,IwAR2sL9sDz1JJqhmxL69egRraUMuB0MEUPUnRZNM0jRlJ70bA2t4jHB66QPY,,,,,,,,,,,
,,,,,,,,,,,,,,p,1,0.528495,space,0.175265,0,182,182,19,1,0_dist_red/trial20.png,,,1,0,redHorizontal,p,58,m,24,2021-02-28_17h02.04.483,exp11,2020.2.6,Win32,60,IwAR2sL9sDz1JJqhmxL69egRraUMuB0MEUPUnRZNM0jRlJ70bA2t4jHB66QPY,,,,,,,,,,,
,,,,,,,,,,,,,,p,1,0.55682,space,0.15959,0,183,183,1,1,0_dist_red/trial2.png,,,1,0,redHorizontal,p,58,m,24,2021-02-28_17h02.04.483,exp11,2020.2.6,Win32,60,IwAR2sL9sDz1JJqhmxL69egRraUMuB0MEUPUnRZNM0jRlJ70bA2t4jHB66QPY,,,,,,,,,,,
,,,,,,,,,,,,,,p,1,0.730865,space,0.131775,0,184,184,97,1,15_dist_red/trial23.png,,,1,15,redHorizontal,p,58,m,24,2021-02-28_17h02.04.483,exp11,2020.2.6,Win32,60,IwAR2sL9sDz1JJqhmxL69egRraUMuB0MEUPUnRZNM0jRlJ70bA2t4jHB66QPY,,,,,,,,,,,
,,,,,,,,,,,,,,a,1,0.658255,space,0.150155,0,185,185,168,1,0_targ_10_dist_red/trial19.png,,,0,10,redHorizontal,a,58,m,24,2021-02-28_17h02.04.483,exp11,2020.2.6,Win32,60,IwAR2sL9sDz1JJqhmxL69egRraUMuB0MEUPUnRZNM0jRlJ70bA2t4jHB66QPY,,,,,,,,,,,
,,,,,,,,,,,,,,a,1,0.647485,space,0.204705,0,186,186,165,1,0_targ_10_dist_red/trial16.png,,,0,10,redHorizontal,a,58,m,24,2021-02-28_17h02.04.483,exp11,2020.2.6,Win32,60,IwAR2sL9sDz1JJqhmxL69egRraUMuB0MEUPUnRZNM0jRlJ70bA2t4jHB66QPY,,,,,,,,,,,
,,,,,,,,,,,,,,a,1,0.5907,space,0.187725,0,187,187,111,1,0_targ_1_dist_red/trial12.png,,,0,1,redHorizontal,a,58,m,24,2021-02-28_17h02.04.483,exp11,2020.2.6,Win32,60,IwAR2sL9sDz1JJqhmxL69egRraUMuB0MEUPUnRZNM0jRlJ70bA2t4jHB66QPY,,,,,,,,,,,
,,,,,,,,,,,,,,p,1,0.634285,space,0.177735,0,188,188,6,1,0_dist_red/trial7.png,,,1,0,redHorizontal,p,58,m,24,2021-02-28_17h02.04.483,exp11,2020.2.6,Win32,60,IwAR2sL9sDz1JJqhmxL69egRraUMuB0MEUPUnRZNM0jRlJ70bA2t4jHB66QPY,,,,,,,,,,,
,,,,,,,,,,,,,,p,1,1.039825,space,0.15527,0,189,189,41,1,3_dist_red/trial17.png,,,1,3,redHorizontal,p,58,m,24,2021-02-28_17h02.04.483,exp11,2020.2.6,Win32,60,IwAR2sL9sDz1JJqhmxL69egRraUMuB0MEUPUnRZNM0jRlJ70bA2t4jHB66QPY,,,,,,,,,,,
,,,,,,,,,,,,,,a,1,0.689705,space,0.15276,0,190,190,156,1,0_targ_10_dist_red/trial7.png,,,0,10,redHorizontal,a,58,m,24,2021-02-28_17h02.04.483,exp11,2020.2.6,Win32,60,IwAR2sL9sDz1JJqhmxL69egRraUMuB0MEUPUnRZNM0jRlJ70bA2t4jHB66QPY,,,,,,,,,,,
,,,,,,,,,,,,,,p,1,0.74977,space,0.143895,0,191,191,54,1,9_dist_red/trial5.png,,,1,9,redHorizontal,p,58,m,24,2021-02-28_17h02.04.483,exp11,2020.2.6,Win32,60,IwAR2sL9sDz1JJqhmxL69egRraUMuB0MEUPUnRZNM0jRlJ70bA2t4jHB66QPY,,,,,,,,,,,
,,,,,,,,,,,,,,p,1,0.503705,space,0.170665,0,192,192,31,1,3_dist_red/trial7.png,,,1,3,redHorizontal,p,58,m,24,2021-02-28_17h02.04.483,exp11,2020.2.6,Win32,60,IwAR2sL9sDz1JJqhmxL69egRraUMuB0MEUPUnRZNM0jRlJ70bA2t4jHB66QPY,,,,,,,,,,,
,,,,,,,,,,,,,,p,1,1.16847,space,0.150165,0,193,193,95,1,15_dist_red/trial21.png,,,1,15,redHorizontal,p,58,m,24,2021-02-28_17h02.04.483,exp11,2020.2.6,Win32,60,IwAR2sL9sDz1JJqhmxL69egRraUMuB0MEUPUnRZNM0jRlJ70bA2t4jHB66QPY,,,,,,,,,,,
,,,,,,,,,,,,,,a,1,0.808205,space,0.110545,0,194,194,138,1,0_targ_4_dist_red/trial14.png,,,0,4,redHorizontal,a,58,m,24,2021-02-28_17h02.04.483,exp11,2020.2.6,Win32,60,IwAR2sL9sDz1JJqhmxL69egRraUMuB0MEUPUnRZNM0jRlJ70bA2t4jHB66QPY,,,,,,,,,,,
,,,,,,,,,,,,,,a,1,0.693085,space,0.189425,0,195,195,189,1,0_targ_16_dist_red/trial15.png,,,0,16,redHorizontal,a,58,m,24,2021-02-28_17h02.04.483,exp11,2020.2.6,Win32,60,IwAR2sL9sDz1JJqhmxL69egRraUMuB0MEUPUnRZNM0jRlJ70bA2t4jHB66QPY,,,,,,,,,,,
,,,,,,,,,,,,,,a,1,0.53144,space,0.17602,0,196,196,107,1,0_targ_1_dist_red/trial8.png,,,0,1,redHorizontal,a,58,m,24,2021-02-28_17h02.04.483,exp11,2020.2.6,Win32,60,IwAR2sL9sDz1JJqhmxL69egRraUMuB0MEUPUnRZNM0jRlJ70bA2t4jHB66QPY,,,,,,,,,,,
,,,,,,,,,,,,,,p,1,0.72303,space,0.152225,0,197,197,16,1,0_dist_red/trial17.png,,,1,0,redHorizontal,p,58,m,24,2021-02-28_17h02.04.483,exp11,2020.2.6,Win32,60,IwAR2sL9sDz1JJqhmxL69egRraUMuB0MEUPUnRZNM0jRlJ70bA2t4jHB66QPY,,,,,,,,,,,
,,,,,,,,,,,,,,p,1,0.696435,space,0.133945,0,198,198,75,1,15_dist_red/trial1.png,,,1,15,redHorizontal,p,58,m,24,2021-02-28_17h02.04.483,exp11,2020.2.6,Win32,60,IwAR2sL9sDz1JJqhmxL69egRraUMuB0MEUPUnRZNM0jRlJ70bA2t4jHB66QPY,,,,,,,,,,,
,,,,,,,,,,,,,,p,1,0.727135,space,0.16823,0,199,199,66,1,9_dist_red/trial17.png,,,1,9,redHorizontal,p,58,m,24,2021-02-28_17h02.04.483,exp11,2020.2.6,Win32,60,IwAR2sL9sDz1JJqhmxL69egRraUMuB0MEUPUnRZNM0jRlJ70bA2t4jHB66QPY,,,,,,,,,,,
,,,,,,,,,,,,,,,,,,,,,,,,,,,,,,,58,m,24,2021-02-28_17h02.04.483,exp11,2020.2.6,Win32,60,IwAR2sL9sDz1JJqhmxL69egRraUMuB0MEUPUnRZNM0jRlJ70bA2t4jHB66QPY,0,1,1,1,1,conRed.xlsx,red horizontal,Look for red horizontal bar (target) and indicate if it is present or absent in the array. If red horizontal target is present press 'p' and if absent press 'a'. Press SPACE to start.,,,
