key_resp_6.keys,key_resp_6.rt,key_resp_7.keys,key_resp_7.rt,key_resp_8.keys,key_resp_8.rt,key_resp_10.keys,key_resp_10.rt,key_resp_9.keys,key_resp_9.rt,key_resp_3.keys,key_resp_3.rt,key_resp_5.keys,key_resp_5.rt,key_resp.keys,key_resp.corr,key_resp.rt,key_resp_4.keys,key_resp_4.rt,trials.thisRepN,trials.thisTrialN,trials.thisN,trials.thisIndex,trials.ran,ImageFile,tarPos,tarSize,targPres,numDist,targetName,correctAns,participant,age,sex,date,expName,psychopyVersion,OS,frameRate,trials_2.thisRepN,trials_2.thisTrialN,trials_2.thisN,trials_2.thisIndex,trials_2.ran,condsFile,targName,instructionText,colTarget,sizeTarg,posit
space,8.288,space,8.219,space,2.995,space,0.339,space,0.406,space,0.336,space,24.714,a,1,25.246,space,2.817,0,0,0,152,1,0_targ_10_dist_red/trial3.png,,,0,10,redHorizontal,a,60,23,M,2021-02-19_15h10.23.280,exp11,2020.2.6,MacIntel,60,,,,,,,,,,,
,,,,,,,,,,,,,,p,1,1.858,space,2.105,0,1,1,87,1,15_dist_red/trial13.png,,,1,15,redHorizontal,p,60,23,M,2021-02-19_15h10.23.280,exp11,2020.2.6,MacIntel,60,,,,,,,,,,,
,,,,,,,,,,,,,,p,1,1.628,space,1.04,0,2,2,48,1,3_dist_red/trial24.png,,,1,3,redHorizontal,p,60,23,M,2021-02-19_15h10.23.280,exp11,2020.2.6,MacIntel,60,,,,,,,,,,,
,,,,,,,,,,,,,,p,1,2.913,space,3.238,0,3,3,53,1,9_dist_red/trial4.png,,,1,9,redHorizontal,p,60,23,M,2021-02-19_15h10.23.280,exp11,2020.2.6,MacIntel,60,,,,,,,,,,,
,,,,,,,,,,,,,,a,1,3.328,space,0.842,0,4,4,165,1,0_targ_10_dist_red/trial16.png,,,0,10,redHorizontal,a,60,23,M,2021-02-19_15h10.23.280,exp11,2020.2.6,MacIntel,60,,,,,,,,,,,
,,,,,,,,,,,,,,p,1,1.125,space,0.878,0,5,5,3,1,0_dist_red/trial4.png,,,1,0,redHorizontal,p,60,23,M,2021-02-19_15h10.23.280,exp11,2020.2.6,MacIntel,60,,,,,,,,,,,
,,,,,,,,,,,,,,p,1,1.763,space,1.419,0,6,6,56,1,9_dist_red/trial7.png,,,1,9,redHorizontal,p,60,23,M,2021-02-19_15h10.23.280,exp11,2020.2.6,MacIntel,60,,,,,,,,,,,
,,,,,,,,,,,,,,p,1,3.153,space,0.74,0,7,7,41,1,3_dist_red/trial17.png,,,1,3,redHorizontal,p,60,23,M,2021-02-19_15h10.23.280,exp11,2020.2.6,MacIntel,60,,,,,,,,,,,
,,,,,,,,,,,,,,a,1,1.679,space,0.697,0,8,8,168,1,0_targ_10_dist_red/trial19.png,,,0,10,redHorizontal,a,60,23,M,2021-02-19_15h10.23.280,exp11,2020.2.6,MacIntel,60,,,,,,,,,,,
,,,,,,,,,,,,,,a,1,1.38,space,0.573,0,9,9,153,1,0_targ_10_dist_red/trial4.png,,,0,10,redHorizontal,a,60,23,M,2021-02-19_15h10.23.280,exp11,2020.2.6,MacIntel,60,,,,,,,,,,,
,,,,,,,,,,,,,,a,1,6.91,space,1.348,0,10,10,170,1,0_targ_10_dist_red/trial21.png,,,0,10,redHorizontal,a,60,23,M,2021-02-19_15h10.23.280,exp11,2020.2.6,MacIntel,60,,,,,,,,,,,
,,,,,,,,,,,,,,p,1,1.142,space,0.682,0,11,11,88,1,15_dist_red/trial14.png,,,1,15,redHorizontal,p,60,23,M,2021-02-19_15h10.23.280,exp11,2020.2.6,MacIntel,60,,,,,,,,,,,
,,,,,,,,,,,,,,a,1,1.283,space,0.473,0,12,12,172,1,0_targ_10_dist_red/trial23.png,,,0,10,redHorizontal,a,60,23,M,2021-02-19_15h10.23.280,exp11,2020.2.6,MacIntel,60,,,,,,,,,,,
,,,,,,,,,,,,,,a,1,1.47,space,0.379,0,13,13,112,1,0_targ_1_dist_red/trial13.png,,,0,1,redHorizontal,a,60,23,M,2021-02-19_15h10.23.280,exp11,2020.2.6,MacIntel,60,,,,,,,,,,,
,,,,,,,,,,,,,,a,1,1.768,space,0.439,0,14,14,196,1,0_targ_16_dist_red/trial22.png,,,0,16,redHorizontal,a,60,23,M,2021-02-19_15h10.23.280,exp11,2020.2.6,MacIntel,60,,,,,,,,,,,
,,,,,,,,,,,,,,p,1,1.045,space,0.503,0,15,15,15,1,0_dist_red/trial16.png,,,1,0,redHorizontal,p,60,23,M,2021-02-19_15h10.23.280,exp11,2020.2.6,MacIntel,60,,,,,,,,,,,
,,,,,,,,,,,,,,a,1,0.963,space,0.392,0,16,16,173,1,0_targ_10_dist_red/trial24.png,,,0,10,redHorizontal,a,60,23,M,2021-02-19_15h10.23.280,exp11,2020.2.6,MacIntel,60,,,,,,,,,,,
,,,,,,,,,,,,,,a,1,0.891,space,0.318,0,17,17,191,1,0_targ_16_dist_red/trial17.png,,,0,16,redHorizontal,a,60,23,M,2021-02-19_15h10.23.280,exp11,2020.2.6,MacIntel,60,,,,,,,,,,,
,,,,,,,,,,,,,,a,1,0.862,space,0.387,0,18,18,141,1,0_targ_4_dist_red/trial17.png,,,0,4,redHorizontal,a,60,23,M,2021-02-19_15h10.23.280,exp11,2020.2.6,MacIntel,60,,,,,,,,,,,
,,,,,,,,,,,,,,p,1,0.81,space,0.339,0,19,19,17,1,0_dist_red/trial18.png,,,1,0,redHorizontal,p,60,23,M,2021-02-19_15h10.23.280,exp11,2020.2.6,MacIntel,60,,,,,,,,,,,
,,,,,,,,,,,,,,a,0,0.818,space,0.704,0,20,20,96,1,15_dist_red/trial22.png,,,1,15,redHorizontal,p,60,23,M,2021-02-19_15h10.23.280,exp11,2020.2.6,MacIntel,60,,,,,,,,,,,
,,,,,,,,,,,,,,a,1,2.458,space,0.422,0,21,21,177,1,0_targ_16_dist_red/trial3.png,,,0,16,redHorizontal,a,60,23,M,2021-02-19_15h10.23.280,exp11,2020.2.6,MacIntel,60,,,,,,,,,,,
,,,,,,,,,,,,,,a,1,0.96,space,0.436,0,22,22,127,1,0_targ_4_dist_red/trial3.png,,,0,4,redHorizontal,a,60,23,M,2021-02-19_15h10.23.280,exp11,2020.2.6,MacIntel,60,,,,,,,,,,,
,,,,,,,,,,,,,,a,1,1.186,space,0.526,0,23,23,157,1,0_targ_10_dist_red/trial8.png,,,0,10,redHorizontal,a,60,23,M,2021-02-19_15h10.23.280,exp11,2020.2.6,MacIntel,60,,,,,,,,,,,
,,,,,,,,,,,,,,p,1,1.448,space,0.322,0,24,24,66,1,9_dist_red/trial17.png,,,1,9,redHorizontal,p,60,23,M,2021-02-19_15h10.23.280,exp11,2020.2.6,MacIntel,60,,,,,,,,,,,
,,,,,,,,,,,,,,p,1,0.796,space,0.342,0,25,25,19,1,0_dist_red/trial20.png,,,1,0,redHorizontal,p,60,23,M,2021-02-19_15h10.23.280,exp11,2020.2.6,MacIntel,60,,,,,,,,,,,
,,,,,,,,,,,,,,a,1,0.91,space,0.303,0,26,26,143,1,0_targ_4_dist_red/trial19.png,,,0,4,redHorizontal,a,60,23,M,2021-02-19_15h10.23.280,exp11,2020.2.6,MacIntel,60,,,,,,,,,,,
,,,,,,,,,,,,,,p,1,1.079,space,0.286,0,27,27,76,1,15_dist_red/trial2.png,,,1,15,redHorizontal,p,60,23,M,2021-02-19_15h10.23.280,exp11,2020.2.6,MacIntel,60,,,,,,,,,,,
,,,,,,,,,,,,,,p,1,0.741,space,0.255,0,28,28,24,1,0_dist_red/trial25.png,,,1,0,redHorizontal,p,60,23,M,2021-02-19_15h10.23.280,exp11,2020.2.6,MacIntel,60,,,,,,,,,,,
,,,,,,,,,,,,,,a,1,0.829,space,0.272,0,29,29,169,1,0_targ_10_dist_red/trial20.png,,,0,10,redHorizontal,a,60,23,M,2021-02-19_15h10.23.280,exp11,2020.2.6,MacIntel,60,,,,,,,,,,,
,,,,,,,,,,,,,,a,1,1.775,space,0.289,0,30,30,117,1,0_targ_1_dist_red/trial18.png,,,0,1,redHorizontal,a,60,23,M,2021-02-19_15h10.23.280,exp11,2020.2.6,MacIntel,60,,,,,,,,,,,
,,,,,,,,,,,,,,a,1,1.294,space,0.24,0,31,31,176,1,0_targ_16_dist_red/trial2.png,,,0,16,redHorizontal,a,60,23,M,2021-02-19_15h10.23.280,exp11,2020.2.6,MacIntel,60,,,,,,,,,,,
,,,,,,,,,,,,,,a,1,1.326,space,0.284,0,32,32,195,1,0_targ_16_dist_red/trial21.png,,,0,16,redHorizontal,a,60,23,M,2021-02-19_15h10.23.280,exp11,2020.2.6,MacIntel,60,,,,,,,,,,,
,,,,,,,,,,,,,,a,1,1.175,space,0.423,0,33,33,188,1,0_targ_16_dist_red/trial14.png,,,0,16,redHorizontal,a,60,23,M,2021-02-19_15h10.23.280,exp11,2020.2.6,MacIntel,60,,,,,,,,,,,
,,,,,,,,,,,,,,a,1,2.176,space,5.06,0,34,34,160,1,0_targ_10_dist_red/trial11.png,,,0,10,redHorizontal,a,60,23,M,2021-02-19_15h10.23.280,exp11,2020.2.6,MacIntel,60,,,,,,,,,,,
,,,,,,,,,,,,,,a,1,1.274,space,0.472,0,35,35,164,1,0_targ_10_dist_red/trial15.png,,,0,10,redHorizontal,a,60,23,M,2021-02-19_15h10.23.280,exp11,2020.2.6,MacIntel,60,,,,,,,,,,,
,,,,,,,,,,,,,,p,1,1.19,space,0.323,0,36,36,58,1,9_dist_red/trial9.png,,,1,9,redHorizontal,p,60,23,M,2021-02-19_15h10.23.280,exp11,2020.2.6,MacIntel,60,,,,,,,,,,,
,,,,,,,,,,,,,,p,1,0.949,space,0.396,0,37,37,22,1,0_dist_red/trial23.png,,,1,0,redHorizontal,p,60,23,M,2021-02-19_15h10.23.280,exp11,2020.2.6,MacIntel,60,,,,,,,,,,,
,,,,,,,,,,,,,,p,1,1.169,space,0.459,0,38,38,84,1,15_dist_red/trial10.png,,,1,15,redHorizontal,p,60,23,M,2021-02-19_15h10.23.280,exp11,2020.2.6,MacIntel,60,,,,,,,,,,,
,,,,,,,,,,,,,,p,1,1.247,space,0.488,0,39,39,85,1,15_dist_red/trial11.png,,,1,15,redHorizontal,p,60,23,M,2021-02-19_15h10.23.280,exp11,2020.2.6,MacIntel,60,,,,,,,,,,,
,,,,,,,,,,,,,,p,1,1.409,space,0.39,0,40,40,4,1,0_dist_red/trial5.png,,,1,0,redHorizontal,p,60,23,M,2021-02-19_15h10.23.280,exp11,2020.2.6,MacIntel,60,,,,,,,,,,,
,,,,,,,,,,,,,,p,1,1.078,space,0.278,0,41,41,94,1,15_dist_red/trial20.png,,,1,15,redHorizontal,p,60,23,M,2021-02-19_15h10.23.280,exp11,2020.2.6,MacIntel,60,,,,,,,,,,,
,,,,,,,,,,,,,,p,1,0.835,space,0.303,0,42,42,30,1,3_dist_red/trial6.png,,,1,3,redHorizontal,p,60,23,M,2021-02-19_15h10.23.280,exp11,2020.2.6,MacIntel,60,,,,,,,,,,,
,,,,,,,,,,,,,,p,1,0.946,space,0.308,0,43,43,59,1,9_dist_red/trial10.png,,,1,9,redHorizontal,p,60,23,M,2021-02-19_15h10.23.280,exp11,2020.2.6,MacIntel,60,,,,,,,,,,,
,,,,,,,,,,,,,,p,1,0.779,space,0.322,0,44,44,36,1,3_dist_red/trial12.png,,,1,3,redHorizontal,p,60,23,M,2021-02-19_15h10.23.280,exp11,2020.2.6,MacIntel,60,,,,,,,,,,,
,,,,,,,,,,,,,,p,1,0.815,space,0.427,0,45,45,92,1,15_dist_red/trial18.png,,,1,15,redHorizontal,p,60,23,M,2021-02-19_15h10.23.280,exp11,2020.2.6,MacIntel,60,,,,,,,,,,,
,,,,,,,,,,,,,,p,1,0.644,space,0.386,0,46,46,23,1,0_dist_red/trial24.png,,,1,0,redHorizontal,p,60,23,M,2021-02-19_15h10.23.280,exp11,2020.2.6,MacIntel,60,,,,,,,,,,,
,,,,,,,,,,,,,,a,1,1.061,space,0.262,0,47,47,199,1,0_targ_16_dist_red/trial25.png,,,0,16,redHorizontal,a,60,23,M,2021-02-19_15h10.23.280,exp11,2020.2.6,MacIntel,60,,,,,,,,,,,
,,,,,,,,,,,,,,a,1,1.297,space,0.336,0,48,48,181,1,0_targ_16_dist_red/trial7.png,,,0,16,redHorizontal,a,60,23,M,2021-02-19_15h10.23.280,exp11,2020.2.6,MacIntel,60,,,,,,,,,,,
,,,,,,,,,,,,,,a,1,1.389,space,0.276,0,49,49,124,1,0_targ_1_dist_red/trial25.png,,,0,1,redHorizontal,a,60,23,M,2021-02-19_15h10.23.280,exp11,2020.2.6,MacIntel,60,,,,,,,,,,,
,,,,,,,,,,,,,,a,1,1.025,space,0.311,0,50,50,179,1,0_targ_16_dist_red/trial5.png,,,0,16,redHorizontal,a,60,23,M,2021-02-19_15h10.23.280,exp11,2020.2.6,MacIntel,60,,,,,,,,,,,
,,,,,,,,,,,,,,a,1,0.831,space,0.376,0,51,51,131,1,0_targ_4_dist_red/trial7.png,,,0,4,redHorizontal,a,60,23,M,2021-02-19_15h10.23.280,exp11,2020.2.6,MacIntel,60,,,,,,,,,,,
,,,,,,,,,,,,,,a,1,0.912,space,0.372,0,52,52,189,1,0_targ_16_dist_red/trial15.png,,,0,16,redHorizontal,a,60,23,M,2021-02-19_15h10.23.280,exp11,2020.2.6,MacIntel,60,,,,,,,,,,,
,,,,,,,,,,,,,,p,1,0.996,space,0.285,0,53,53,80,1,15_dist_red/trial6.png,,,1,15,redHorizontal,p,60,23,M,2021-02-19_15h10.23.280,exp11,2020.2.6,MacIntel,60,,,,,,,,,,,
,,,,,,,,,,,,,,a,1,1.097,space,0.22,0,54,54,145,1,0_targ_4_dist_red/trial21.png,,,0,4,redHorizontal,a,60,23,M,2021-02-19_15h10.23.280,exp11,2020.2.6,MacIntel,60,,,,,,,,,,,
,,,,,,,,,,,,,,p,1,0.71,space,0.153,0,55,55,72,1,9_dist_red/trial23.png,,,1,9,redHorizontal,p,60,23,M,2021-02-19_15h10.23.280,exp11,2020.2.6,MacIntel,60,,,,,,,,,,,
,,,,,,,,,,,,,,p,1,1.034,space,0.139,0,56,56,55,1,9_dist_red/trial6.png,,,1,9,redHorizontal,p,60,23,M,2021-02-19_15h10.23.280,exp11,2020.2.6,MacIntel,60,,,,,,,,,,,
,,,,,,,,,,,,,,a,1,1.527,space,0.379,0,57,57,184,1,0_targ_16_dist_red/trial10.png,,,0,16,redHorizontal,a,60,23,M,2021-02-19_15h10.23.280,exp11,2020.2.6,MacIntel,60,,,,,,,,,,,
,,,,,,,,,,,,,,a,1,0.831,space,0.164,0,58,58,100,1,0_targ_1_dist_red/trial1.png,,,0,1,redHorizontal,a,60,23,M,2021-02-19_15h10.23.280,exp11,2020.2.6,MacIntel,60,,,,,,,,,,,
,,,,,,,,,,,,,,a,1,1.011,space,0.112,0,59,59,166,1,0_targ_10_dist_red/trial17.png,,,0,10,redHorizontal,a,60,23,M,2021-02-19_15h10.23.280,exp11,2020.2.6,MacIntel,60,,,,,,,,,,,
,,,,,,,,,,,,,,p,1,0.697,space,0.145,0,60,60,67,1,9_dist_red/trial18.png,,,1,9,redHorizontal,p,60,23,M,2021-02-19_15h10.23.280,exp11,2020.2.6,MacIntel,60,,,,,,,,,,,
,,,,,,,,,,,,,,p,1,0.626,space,0.421,0,61,61,5,1,0_dist_red/trial6.png,,,1,0,redHorizontal,p,60,23,M,2021-02-19_15h10.23.280,exp11,2020.2.6,MacIntel,60,,,,,,,,,,,
,,,,,,,,,,,,,,a,1,0.922,space,0.171,0,62,62,161,1,0_targ_10_dist_red/trial12.png,,,0,10,redHorizontal,a,60,23,M,2021-02-19_15h10.23.280,exp11,2020.2.6,MacIntel,60,,,,,,,,,,,
,,,,,,,,,,,,,,p,1,0.61,space,0.087,0,63,63,47,1,3_dist_red/trial23.png,,,1,3,redHorizontal,p,60,23,M,2021-02-19_15h10.23.280,exp11,2020.2.6,MacIntel,60,,,,,,,,,,,
,,,,,,,,,,,,,,a,0,0.894,space,0.564,0,64,64,70,1,9_dist_red/trial21.png,,,1,9,redHorizontal,p,60,23,M,2021-02-19_15h10.23.280,exp11,2020.2.6,MacIntel,60,,,,,,,,,,,
,,,,,,,,,,,,,,a,1,2.659,space,0.287,0,65,65,136,1,0_targ_4_dist_red/trial12.png,,,0,4,redHorizontal,a,60,23,M,2021-02-19_15h10.23.280,exp11,2020.2.6,MacIntel,60,,,,,,,,,,,
,,,,,,,,,,,,,,p,1,1.297,space,0.259,0,66,66,14,1,0_dist_red/trial15.png,,,1,0,redHorizontal,p,60,23,M,2021-02-19_15h10.23.280,exp11,2020.2.6,MacIntel,60,,,,,,,,,,,
,,,,,,,,,,,,,,a,1,0.863,space,0.475,0,67,67,150,1,0_targ_10_dist_red/trial1.png,,,0,10,redHorizontal,a,60,23,M,2021-02-19_15h10.23.280,exp11,2020.2.6,MacIntel,60,,,,,,,,,,,
,,,,,,,,,,,,,,p,0,1.249,space,1.039,0,68,68,156,1,0_targ_10_dist_red/trial7.png,,,0,10,redHorizontal,a,60,23,M,2021-02-19_15h10.23.280,exp11,2020.2.6,MacIntel,60,,,,,,,,,,,
,,,,,,,,,,,,,,p,1,3.552,space,0.433,0,69,69,73,1,9_dist_red/trial24.png,,,1,9,redHorizontal,p,60,23,M,2021-02-19_15h10.23.280,exp11,2020.2.6,MacIntel,60,,,,,,,,,,,
,,,,,,,,,,,,,,p,1,0.808,space,0.393,0,70,70,1,1,0_dist_red/trial2.png,,,1,0,redHorizontal,p,60,23,M,2021-02-19_15h10.23.280,exp11,2020.2.6,MacIntel,60,,,,,,,,,,,
,,,,,,,,,,,,,,p,1,1.567,space,0.341,0,71,71,95,1,15_dist_red/trial21.png,,,1,15,redHorizontal,p,60,23,M,2021-02-19_15h10.23.280,exp11,2020.2.6,MacIntel,60,,,,,,,,,,,
,,,,,,,,,,,,,,a,1,0.776,space,0.31,0,72,72,103,1,0_targ_1_dist_red/trial4.png,,,0,1,redHorizontal,a,60,23,M,2021-02-19_15h10.23.280,exp11,2020.2.6,MacIntel,60,,,,,,,,,,,
,,,,,,,,,,,,,,p,1,0.8,space,0.438,0,73,73,89,1,15_dist_red/trial15.png,,,1,15,redHorizontal,p,60,23,M,2021-02-19_15h10.23.280,exp11,2020.2.6,MacIntel,60,,,,,,,,,,,
,,,,,,,,,,,,,,p,1,1.093,space,0.409,0,74,74,86,1,15_dist_red/trial12.png,,,1,15,redHorizontal,p,60,23,M,2021-02-19_15h10.23.280,exp11,2020.2.6,MacIntel,60,,,,,,,,,,,
,,,,,,,,,,,,,,p,1,0.643,space,0.588,0,75,75,9,1,0_dist_red/trial10.png,,,1,0,redHorizontal,p,60,23,M,2021-02-19_15h10.23.280,exp11,2020.2.6,MacIntel,60,,,,,,,,,,,
,,,,,,,,,,,,,,p,1,0.98,space,0.449,0,76,76,49,1,3_dist_red/trial25.png,,,1,3,redHorizontal,p,60,23,M,2021-02-19_15h10.23.280,exp11,2020.2.6,MacIntel,60,,,,,,,,,,,
,,,,,,,,,,,,,,p,1,0.707,space,0.407,0,77,77,12,1,0_dist_red/trial13.png,,,1,0,redHorizontal,p,60,23,M,2021-02-19_15h10.23.280,exp11,2020.2.6,MacIntel,60,,,,,,,,,,,
,,,,,,,,,,,,,,a,1,0.978,space,0.373,0,78,78,198,1,0_targ_16_dist_red/trial24.png,,,0,16,redHorizontal,a,60,23,M,2021-02-19_15h10.23.280,exp11,2020.2.6,MacIntel,60,,,,,,,,,,,
,,,,,,,,,,,,,,p,1,0.733,space,0.372,0,79,79,62,1,9_dist_red/trial13.png,,,1,9,redHorizontal,p,60,23,M,2021-02-19_15h10.23.280,exp11,2020.2.6,MacIntel,60,,,,,,,,,,,
,,,,,,,,,,,,,,p,1,0.926,space,0.363,0,80,80,51,1,9_dist_red/trial2.png,,,1,9,redHorizontal,p,60,23,M,2021-02-19_15h10.23.280,exp11,2020.2.6,MacIntel,60,,,,,,,,,,,
,,,,,,,,,,,,,,a,1,0.911,space,0.372,0,81,81,144,1,0_targ_4_dist_red/trial20.png,,,0,4,redHorizontal,a,60,23,M,2021-02-19_15h10.23.280,exp11,2020.2.6,MacIntel,60,,,,,,,,,,,
,,,,,,,,,,,,,,a,1,0.865,space,0.377,0,82,82,107,1,0_targ_1_dist_red/trial8.png,,,0,1,redHorizontal,a,60,23,M,2021-02-19_15h10.23.280,exp11,2020.2.6,MacIntel,60,,,,,,,,,,,
,,,,,,,,,,,,,,p,1,0.711,space,0.309,0,83,83,83,1,15_dist_red/trial9.png,,,1,15,redHorizontal,p,60,23,M,2021-02-19_15h10.23.280,exp11,2020.2.6,MacIntel,60,,,,,,,,,,,
,,,,,,,,,,,,,,a,1,1,space,0.347,0,84,84,115,1,0_targ_1_dist_red/trial6.png,,,0,1,redHorizontal,a,60,23,M,2021-02-19_15h10.23.280,exp11,2020.2.6,MacIntel,60,,,,,,,,,,,
,,,,,,,,,,,,,,a,0,0.875,space,1.126,0,85,85,77,1,15_dist_red/trial3.png,,,1,15,redHorizontal,p,60,23,M,2021-02-19_15h10.23.280,exp11,2020.2.6,MacIntel,60,,,,,,,,,,,
,,,,,,,,,,,,,,p,1,2.01,space,0.338,0,86,86,38,1,3_dist_red/trial14.png,,,1,3,redHorizontal,p,60,23,M,2021-02-19_15h10.23.280,exp11,2020.2.6,MacIntel,60,,,,,,,,,,,
,,,,,,,,,,,,,,a,1,0.859,space,0.253,0,87,87,108,1,0_targ_1_dist_red/trial9.png,,,0,1,redHorizontal,a,60,23,M,2021-02-19_15h10.23.280,exp11,2020.2.6,MacIntel,60,,,,,,,,,,,
,,,,,,,,,,,,,,p,1,0.691,space,0.269,0,88,88,10,1,0_dist_red/trial11.png,,,1,0,redHorizontal,p,60,23,M,2021-02-19_15h10.23.280,exp11,2020.2.6,MacIntel,60,,,,,,,,,,,
,,,,,,,,,,,,,,a,1,1.283,space,0.272,0,89,89,122,1,0_targ_1_dist_red/trial23.png,,,0,1,redHorizontal,a,60,23,M,2021-02-19_15h10.23.280,exp11,2020.2.6,MacIntel,60,,,,,,,,,,,
,,,,,,,,,,,,,,p,1,0.942,space,0.279,0,90,90,52,1,9_dist_red/trial3.png,,,1,9,redHorizontal,p,60,23,M,2021-02-19_15h10.23.280,exp11,2020.2.6,MacIntel,60,,,,,,,,,,,
,,,,,,,,,,,,,,p,1,1.513,space,0.275,0,91,91,33,1,3_dist_red/trial9.png,,,1,3,redHorizontal,p,60,23,M,2021-02-19_15h10.23.280,exp11,2020.2.6,MacIntel,60,,,,,,,,,,,
,,,,,,,,,,,,,,a,1,0.875,space,0.259,0,92,92,106,1,0_targ_1_dist_red/trial7.png,,,0,1,redHorizontal,a,60,23,M,2021-02-19_15h10.23.280,exp11,2020.2.6,MacIntel,60,,,,,,,,,,,
,,,,,,,,,,,,,,a,0,0.895,space,2.706,0,93,93,91,1,15_dist_red/trial17.png,,,1,15,redHorizontal,p,60,23,M,2021-02-19_15h10.23.280,exp11,2020.2.6,MacIntel,60,,,,,,,,,,,
,,,,,,,,,,,,,,a,1,2.334,space,0.227,0,94,94,155,1,0_targ_10_dist_red/trial6.png,,,0,10,redHorizontal,a,60,23,M,2021-02-19_15h10.23.280,exp11,2020.2.6,MacIntel,60,,,,,,,,,,,
,,,,,,,,,,,,,,a,1,0.911,space,0.256,0,95,95,121,1,0_targ_1_dist_red/trial22.png,,,0,1,redHorizontal,a,60,23,M,2021-02-19_15h10.23.280,exp11,2020.2.6,MacIntel,60,,,,,,,,,,,
,,,,,,,,,,,,,,p,1,0.868,space,0.307,0,96,96,75,1,15_dist_red/trial1.png,,,1,15,redHorizontal,p,60,23,M,2021-02-19_15h10.23.280,exp11,2020.2.6,MacIntel,60,,,,,,,,,,,
,,,,,,,,,,,,,,a,1,1.078,space,0.26,0,97,97,134,1,0_targ_4_dist_red/trial10.png,,,0,4,redHorizontal,a,60,23,M,2021-02-19_15h10.23.280,exp11,2020.2.6,MacIntel,60,,,,,,,,,,,
,,,,,,,,,,,,,,a,1,0.852,space,0.319,0,98,98,132,1,0_targ_4_dist_red/trial8.png,,,0,4,redHorizontal,a,60,23,M,2021-02-19_15h10.23.280,exp11,2020.2.6,MacIntel,60,,,,,,,,,,,
,,,,,,,,,,,,,,p,1,0.987,space,0.289,0,99,99,32,1,3_dist_red/trial8.png,,,1,3,redHorizontal,p,60,23,M,2021-02-19_15h10.23.280,exp11,2020.2.6,MacIntel,60,,,,,,,,,,,
,,,,,,,,,,,,,,a,1,0.986,space,0.27,0,100,100,123,1,0_targ_1_dist_red/trial24.png,,,0,1,redHorizontal,a,60,23,M,2021-02-19_15h10.23.280,exp11,2020.2.6,MacIntel,60,,,,,,,,,,,
,,,,,,,,,,,,,,p,1,0.912,space,0.286,0,101,101,46,1,3_dist_red/trial22.png,,,1,3,redHorizontal,p,60,23,M,2021-02-19_15h10.23.280,exp11,2020.2.6,MacIntel,60,,,,,,,,,,,
,,,,,,,,,,,,,,a,1,0.641,space,0.705,0,102,102,109,1,0_targ_1_dist_red/trial10.png,,,0,1,redHorizontal,a,60,23,M,2021-02-19_15h10.23.280,exp11,2020.2.6,MacIntel,60,,,,,,,,,,,
,,,,,,,,,,,,,,a,1,2.944,space,0.288,0,103,103,182,1,0_targ_16_dist_red/trial8.png,,,0,16,redHorizontal,a,60,23,M,2021-02-19_15h10.23.280,exp11,2020.2.6,MacIntel,60,,,,,,,,,,,
,,,,,,,,,,,,,,a,1,0.861,space,0.339,0,104,104,110,1,0_targ_1_dist_red/trial11.png,,,0,1,redHorizontal,a,60,23,M,2021-02-19_15h10.23.280,exp11,2020.2.6,MacIntel,60,,,,,,,,,,,
,,,,,,,,,,,,,,p,1,0.868,space,0.252,0,105,105,90,1,15_dist_red/trial16.png,,,1,15,redHorizontal,p,60,23,M,2021-02-19_15h10.23.280,exp11,2020.2.6,MacIntel,60,,,,,,,,,,,
,,,,,,,,,,,,,,a,1,1.579,space,0.269,0,106,106,171,1,0_targ_10_dist_red/trial22.png,,,0,10,redHorizontal,a,60,23,M,2021-02-19_15h10.23.280,exp11,2020.2.6,MacIntel,60,,,,,,,,,,,
,,,,,,,,,,,,,,a,1,1.126,space,0.244,0,107,107,180,1,0_targ_16_dist_red/trial6.png,,,0,16,redHorizontal,a,60,23,M,2021-02-19_15h10.23.280,exp11,2020.2.6,MacIntel,60,,,,,,,,,,,
,,,,,,,,,,,,,,a,1,0.851,space,0.248,0,108,108,140,1,0_targ_4_dist_red/trial6.png,,,0,4,redHorizontal,a,60,23,M,2021-02-19_15h10.23.280,exp11,2020.2.6,MacIntel,60,,,,,,,,,,,
,,,,,,,,,,,,,,p,1,0.978,space,0.239,0,109,109,39,1,3_dist_red/trial15.png,,,1,3,redHorizontal,p,60,23,M,2021-02-19_15h10.23.280,exp11,2020.2.6,MacIntel,60,,,,,,,,,,,
,,,,,,,,,,,,,,p,1,0.888,space,0.253,0,110,110,78,1,15_dist_red/trial4.png,,,1,15,redHorizontal,p,60,23,M,2021-02-19_15h10.23.280,exp11,2020.2.6,MacIntel,60,,,,,,,,,,,
,,,,,,,,,,,,,,a,1,0.946,space,0.525,0,111,111,175,1,0_targ_16_dist_red/trial1.png,,,0,16,redHorizontal,a,60,23,M,2021-02-19_15h10.23.280,exp11,2020.2.6,MacIntel,60,,,,,,,,,,,
,,,,,,,,,,,,,,p,1,0.816,space,0.427,0,112,112,81,1,15_dist_red/trial7.png,,,1,15,redHorizontal,p,60,23,M,2021-02-19_15h10.23.280,exp11,2020.2.6,MacIntel,60,,,,,,,,,,,
,,,,,,,,,,,,,,a,1,1.114,space,0.253,0,113,113,163,1,0_targ_10_dist_red/trial14.png,,,0,10,redHorizontal,a,60,23,M,2021-02-19_15h10.23.280,exp11,2020.2.6,MacIntel,60,,,,,,,,,,,
,,,,,,,,,,,,,,p,1,0.909,space,0.252,0,114,114,97,1,15_dist_red/trial23.png,,,1,15,redHorizontal,p,60,23,M,2021-02-19_15h10.23.280,exp11,2020.2.6,MacIntel,60,,,,,,,,,,,
,,,,,,,,,,,,,,a,1,0.776,space,0.307,0,115,115,149,1,0_targ_4_dist_red/trial25.png,,,0,4,redHorizontal,a,60,23,M,2021-02-19_15h10.23.280,exp11,2020.2.6,MacIntel,60,,,,,,,,,,,
,,,,,,,,,,,,,,a,1,0.885,space,0.339,0,116,116,193,1,0_targ_16_dist_red/trial19.png,,,0,16,redHorizontal,a,60,23,M,2021-02-19_15h10.23.280,exp11,2020.2.6,MacIntel,60,,,,,,,,,,,
,,,,,,,,,,,,,,p,1,0.844,space,0.27,0,117,117,45,1,3_dist_red/trial21.png,,,1,3,redHorizontal,p,60,23,M,2021-02-19_15h10.23.280,exp11,2020.2.6,MacIntel,60,,,,,,,,,,,
,,,,,,,,,,,,,,a,1,0.758,space,0.394,0,118,118,101,1,0_targ_1_dist_red/trial2.png,,,0,1,redHorizontal,a,60,23,M,2021-02-19_15h10.23.280,exp11,2020.2.6,MacIntel,60,,,,,,,,,,,
,,,,,,,,,,,,,,a,1,0.811,space,0.252,0,119,119,129,1,0_targ_4_dist_red/trial5.png,,,0,4,redHorizontal,a,60,23,M,2021-02-19_15h10.23.280,exp11,2020.2.6,MacIntel,60,,,,,,,,,,,
,,,,,,,,,,,,,,p,1,0.691,space,0.346,0,120,120,63,1,9_dist_red/trial14.png,,,1,9,redHorizontal,p,60,23,M,2021-02-19_15h10.23.280,exp11,2020.2.6,MacIntel,60,,,,,,,,,,,
,,,,,,,,,,,,,,a,1,0.781,space,0.259,0,121,121,139,1,0_targ_4_dist_red/trial15.png,,,0,4,redHorizontal,a,60,23,M,2021-02-19_15h10.23.280,exp11,2020.2.6,MacIntel,60,,,,,,,,,,,
,,,,,,,,,,,,,,p,1,0.679,space,0.321,0,122,122,65,1,9_dist_red/trial16.png,,,1,9,redHorizontal,p,60,23,M,2021-02-19_15h10.23.280,exp11,2020.2.6,MacIntel,60,,,,,,,,,,,
,,,,,,,,,,,,,,a,1,1.082,space,0.256,0,123,123,135,1,0_targ_4_dist_red/trial11.png,,,0,4,redHorizontal,a,60,23,M,2021-02-19_15h10.23.280,exp11,2020.2.6,MacIntel,60,,,,,,,,,,,
,,,,,,,,,,,,,,p,1,0.658,space,0.345,0,124,124,82,1,15_dist_red/trial8.png,,,1,15,redHorizontal,p,60,23,M,2021-02-19_15h10.23.280,exp11,2020.2.6,MacIntel,60,,,,,,,,,,,
,,,,,,,,,,,,,,a,1,0.979,space,0.22,0,125,125,183,1,0_targ_16_dist_red/trial9.png,,,0,16,redHorizontal,a,60,23,M,2021-02-19_15h10.23.280,exp11,2020.2.6,MacIntel,60,,,,,,,,,,,
,,,,,,,,,,,,,,p,1,0.543,space,0.21,0,126,126,18,1,0_dist_red/trial19.png,,,1,0,redHorizontal,p,60,23,M,2021-02-19_15h10.23.280,exp11,2020.2.6,MacIntel,60,,,,,,,,,,,
,,,,,,,,,,,,,,p,0,0.625,space,0.722,0,127,127,142,1,0_targ_4_dist_red/trial18.png,,,0,4,redHorizontal,a,60,23,M,2021-02-19_15h10.23.280,exp11,2020.2.6,MacIntel,60,,,,,,,,,,,
,,,,,,,,,,,,,,p,1,1.112,space,0.325,0,128,128,7,1,0_dist_red/trial8.png,,,1,0,redHorizontal,p,60,23,M,2021-02-19_15h10.23.280,exp11,2020.2.6,MacIntel,60,,,,,,,,,,,
,,,,,,,,,,,,,,p,1,0.949,space,0.248,0,129,129,69,1,9_dist_red/trial20.png,,,1,9,redHorizontal,p,60,23,M,2021-02-19_15h10.23.280,exp11,2020.2.6,MacIntel,60,,,,,,,,,,,
,,,,,,,,,,,,,,p,1,0.726,space,0.445,0,130,130,28,1,3_dist_red/trial4.png,,,1,3,redHorizontal,p,60,23,M,2021-02-19_15h10.23.280,exp11,2020.2.6,MacIntel,60,,,,,,,,,,,
,,,,,,,,,,,,,,p,1,0.762,space,0.353,0,131,131,0,1,0_dist_red/trial1.png,,,1,0,redHorizontal,p,60,23,M,2021-02-19_15h10.23.280,exp11,2020.2.6,MacIntel,60,,,,,,,,,,,
,,,,,,,,,,,,,,a,1,1.007,space,0.479,0,132,132,154,1,0_targ_10_dist_red/trial5.png,,,0,10,redHorizontal,a,60,23,M,2021-02-19_15h10.23.280,exp11,2020.2.6,MacIntel,60,,,,,,,,,,,
,,,,,,,,,,,,,,p,1,1.178,space,0.372,0,133,133,71,1,9_dist_red/trial22.png,,,1,9,redHorizontal,p,60,23,M,2021-02-19_15h10.23.280,exp11,2020.2.6,MacIntel,60,,,,,,,,,,,
,,,,,,,,,,,,,,p,1,0.897,space,0.429,0,134,134,98,1,15_dist_red/trial24.png,,,1,15,redHorizontal,p,60,23,M,2021-02-19_15h10.23.280,exp11,2020.2.6,MacIntel,60,,,,,,,,,,,
,,,,,,,,,,,,,,a,1,1.175,space,0.457,0,135,135,146,1,0_targ_4_dist_red/trial22.png,,,0,4,redHorizontal,a,60,23,M,2021-02-19_15h10.23.280,exp11,2020.2.6,MacIntel,60,,,,,,,,,,,
,,,,,,,,,,,,,,a,1,1.384,space,0.521,0,136,136,162,1,0_targ_10_dist_red/trial13.png,,,0,10,redHorizontal,a,60,23,M,2021-02-19_15h10.23.280,exp11,2020.2.6,MacIntel,60,,,,,,,,,,,
,,,,,,,,,,,,,,a,1,0.772,space,0.52,0,137,137,126,1,0_targ_4_dist_red/trial2.png,,,0,4,redHorizontal,a,60,23,M,2021-02-19_15h10.23.280,exp11,2020.2.6,MacIntel,60,,,,,,,,,,,
,,,,,,,,,,,,,,p,1,0.763,space,0.405,0,138,138,25,1,3_dist_red/trial1.png,,,1,3,redHorizontal,p,60,23,M,2021-02-19_15h10.23.280,exp11,2020.2.6,MacIntel,60,,,,,,,,,,,
,,,,,,,,,,,,,,a,1,0.998,space,0.403,0,139,139,194,1,0_targ_16_dist_red/trial20.png,,,0,16,redHorizontal,a,60,23,M,2021-02-19_15h10.23.280,exp11,2020.2.6,MacIntel,60,,,,,,,,,,,
,,,,,,,,,,,,,,p,1,0.744,space,0.307,0,140,140,26,1,3_dist_red/trial2.png,,,1,3,redHorizontal,p,60,23,M,2021-02-19_15h10.23.280,exp11,2020.2.6,MacIntel,60,,,,,,,,,,,
,,,,,,,,,,,,,,a,1,0.96,space,0.327,0,141,141,128,1,0_targ_4_dist_red/trial4.png,,,0,4,redHorizontal,a,60,23,M,2021-02-19_15h10.23.280,exp11,2020.2.6,MacIntel,60,,,,,,,,,,,
,,,,,,,,,,,,,,p,1,0.561,space,0.422,0,142,142,16,1,0_dist_red/trial17.png,,,1,0,redHorizontal,p,60,23,M,2021-02-19_15h10.23.280,exp11,2020.2.6,MacIntel,60,,,,,,,,,,,
,,,,,,,,,,,,,,a,1,1.413,space,0.338,0,143,143,147,1,0_targ_4_dist_red/trial23.png,,,0,4,redHorizontal,a,60,23,M,2021-02-19_15h10.23.280,exp11,2020.2.6,MacIntel,60,,,,,,,,,,,
,,,,,,,,,,,,,,p,1,0.494,space,0.839,0,144,144,21,1,0_dist_red/trial22.png,,,1,0,redHorizontal,p,60,23,M,2021-02-19_15h10.23.280,exp11,2020.2.6,MacIntel,60,,,,,,,,,,,
,,,,,,,,,,,,,,a,1,1.513,space,0.293,0,145,145,158,1,0_targ_10_dist_red/trial9.png,,,0,10,redHorizontal,a,60,23,M,2021-02-19_15h10.23.280,exp11,2020.2.6,MacIntel,60,,,,,,,,,,,
,,,,,,,,,,,,,,a,1,0.951,space,0.755,0,146,146,159,1,0_targ_10_dist_red/trial10.png,,,0,10,redHorizontal,a,60,23,M,2021-02-19_15h10.23.280,exp11,2020.2.6,MacIntel,60,,,,,,,,,,,
,,,,,,,,,,,,,,a,1,0.735,space,0.429,0,147,147,192,1,0_targ_16_dist_red/trial18.png,,,0,16,redHorizontal,a,60,23,M,2021-02-19_15h10.23.280,exp11,2020.2.6,MacIntel,60,,,,,,,,,,,
,,,,,,,,,,,,,,a,1,0.976,space,0.438,0,148,148,116,1,0_targ_1_dist_red/trial17.png,,,0,1,redHorizontal,a,60,23,M,2021-02-19_15h10.23.280,exp11,2020.2.6,MacIntel,60,,,,,,,,,,,
,,,,,,,,,,,,,,a,1,1.115,space,0.477,0,149,149,190,1,0_targ_16_dist_red/trial16.png,,,0,16,redHorizontal,a,60,23,M,2021-02-19_15h10.23.280,exp11,2020.2.6,MacIntel,60,,,,,,,,,,,
,,,,,,,,,,,,,,p,1,0.846,space,0.347,0,150,150,57,1,9_dist_red/trial8.png,,,1,9,redHorizontal,p,60,23,M,2021-02-19_15h10.23.280,exp11,2020.2.6,MacIntel,60,,,,,,,,,,,
,,,,,,,,,,,,,,p,1,0.608,space,0.455,0,151,151,8,1,0_dist_red/trial9.png,,,1,0,redHorizontal,p,60,23,M,2021-02-19_15h10.23.280,exp11,2020.2.6,MacIntel,60,,,,,,,,,,,
,,,,,,,,,,,,,,p,1,0.659,space,0.488,0,152,152,43,1,3_dist_red/trial19.png,,,1,3,redHorizontal,p,60,23,M,2021-02-19_15h10.23.280,exp11,2020.2.6,MacIntel,60,,,,,,,,,,,
,,,,,,,,,,,,,,a,1,0.642,space,0.338,0,153,153,148,1,0_targ_4_dist_red/trial24.png,,,0,4,redHorizontal,a,60,23,M,2021-02-19_15h10.23.280,exp11,2020.2.6,MacIntel,60,,,,,,,,,,,
,,,,,,,,,,,,,,p,0,0.879,space,0.871,0,154,154,151,1,0_targ_10_dist_red/trial2.png,,,0,10,redHorizontal,a,60,23,M,2021-02-19_15h10.23.280,exp11,2020.2.6,MacIntel,60,,,,,,,,,,,
,,,,,,,,,,,,,,p,1,1.075,space,0.483,0,155,155,50,1,9_dist_red/trial1.png,,,1,9,redHorizontal,p,60,23,M,2021-02-19_15h10.23.280,exp11,2020.2.6,MacIntel,60,,,,,,,,,,,
,,,,,,,,,,,,,,a,1,1.458,space,0.742,0,156,156,119,1,0_targ_1_dist_red/trial20.png,,,0,1,redHorizontal,a,60,23,M,2021-02-19_15h10.23.280,exp11,2020.2.6,MacIntel,60,,,,,,,,,,,
,,,,,,,,,,,,,,p,1,1.495,space,0.388,0,157,157,68,1,9_dist_red/trial19.png,,,1,9,redHorizontal,p,60,23,M,2021-02-19_15h10.23.280,exp11,2020.2.6,MacIntel,60,,,,,,,,,,,
,,,,,,,,,,,,,,a,1,0.826,space,0.389,0,158,158,138,1,0_targ_4_dist_red/trial14.png,,,0,4,redHorizontal,a,60,23,M,2021-02-19_15h10.23.280,exp11,2020.2.6,MacIntel,60,,,,,,,,,,,
,,,,,,,,,,,,,,p,1,0.909,space,0.296,0,159,159,34,1,3_dist_red/trial10.png,,,1,3,redHorizontal,p,60,23,M,2021-02-19_15h10.23.280,exp11,2020.2.6,MacIntel,60,,,,,,,,,,,
,,,,,,,,,,,,,,a,1,1.162,space,0.488,0,160,160,137,1,0_targ_4_dist_red/trial13.png,,,0,4,redHorizontal,a,60,23,M,2021-02-19_15h10.23.280,exp11,2020.2.6,MacIntel,60,,,,,,,,,,,
,,,,,,,,,,,,,,p,1,1.075,space,0.636,0,161,161,42,1,3_dist_red/trial18.png,,,1,3,redHorizontal,p,60,23,M,2021-02-19_15h10.23.280,exp11,2020.2.6,MacIntel,60,,,,,,,,,,,
,,,,,,,,,,,,,,p,1,2.365,space,0.342,0,162,162,61,1,9_dist_red/trial12.png,,,1,9,redHorizontal,p,60,23,M,2021-02-19_15h10.23.280,exp11,2020.2.6,MacIntel,60,,,,,,,,,,,
,,,,,,,,,,,,,,p,1,0.585,space,0.444,0,163,163,31,1,3_dist_red/trial7.png,,,1,3,redHorizontal,p,60,23,M,2021-02-19_15h10.23.280,exp11,2020.2.6,MacIntel,60,,,,,,,,,,,
,,,,,,,,,,,,,,p,1,0.595,space,0.474,0,164,164,37,1,3_dist_red/trial13.png,,,1,3,redHorizontal,p,60,23,M,2021-02-19_15h10.23.280,exp11,2020.2.6,MacIntel,60,,,,,,,,,,,
,,,,,,,,,,,,,,a,1,0.83,space,0.325,0,165,165,186,1,0_targ_16_dist_red/trial12.png,,,0,16,redHorizontal,a,60,23,M,2021-02-19_15h10.23.280,exp11,2020.2.6,MacIntel,60,,,,,,,,,,,
,,,,,,,,,,,,,,p,1,0.914,space,0.379,0,166,166,6,1,0_dist_red/trial7.png,,,1,0,redHorizontal,p,60,23,M,2021-02-19_15h10.23.280,exp11,2020.2.6,MacIntel,60,,,,,,,,,,,
,,,,,,,,,,,,,,p,1,1.058,space,0.424,0,167,167,35,1,3_dist_red/trial11.png,,,1,3,redHorizontal,p,60,23,M,2021-02-19_15h10.23.280,exp11,2020.2.6,MacIntel,60,,,,,,,,,,,
,,,,,,,,,,,,,,p,1,0.813,space,0.407,0,168,168,40,1,3_dist_red/trial16.png,,,1,3,redHorizontal,p,60,23,M,2021-02-19_15h10.23.280,exp11,2020.2.6,MacIntel,60,,,,,,,,,,,
,,,,,,,,,,,,,,a,1,1.263,space,0.424,0,169,169,178,1,0_targ_16_dist_red/trial4.png,,,0,16,redHorizontal,a,60,23,M,2021-02-19_15h10.23.280,exp11,2020.2.6,MacIntel,60,,,,,,,,,,,
,,,,,,,,,,,,,,a,1,1.013,space,0.626,0,170,170,187,1,0_targ_16_dist_red/trial13.png,,,0,16,redHorizontal,a,60,23,M,2021-02-19_15h10.23.280,exp11,2020.2.6,MacIntel,60,,,,,,,,,,,
,,,,,,,,,,,,,,a,1,0.727,space,0.438,0,171,171,118,1,0_targ_1_dist_red/trial19.png,,,0,1,redHorizontal,a,60,23,M,2021-02-19_15h10.23.280,exp11,2020.2.6,MacIntel,60,,,,,,,,,,,
,,,,,,,,,,,,,,a,1,1.099,space,0.414,0,172,172,167,1,0_targ_10_dist_red/trial18.png,,,0,10,redHorizontal,a,60,23,M,2021-02-19_15h10.23.280,exp11,2020.2.6,MacIntel,60,,,,,,,,,,,
,,,,,,,,,,,,,,a,1,0.93,space,0.297,0,173,173,125,1,0_targ_4_dist_red/trial1.png,,,0,4,redHorizontal,a,60,23,M,2021-02-19_15h10.23.280,exp11,2020.2.6,MacIntel,60,,,,,,,,,,,
,,,,,,,,,,,,,,a,1,1.39,space,0.469,0,174,174,197,1,0_targ_16_dist_red/trial23.png,,,0,16,redHorizontal,a,60,23,M,2021-02-19_15h10.23.280,exp11,2020.2.6,MacIntel,60,,,,,,,,,,,
,,,,,,,,,,,,,,a,1,0.89,space,0.442,0,175,175,185,1,0_targ_16_dist_red/trial11.png,,,0,16,redHorizontal,a,60,23,M,2021-02-19_15h10.23.280,exp11,2020.2.6,MacIntel,60,,,,,,,,,,,
,,,,,,,,,,,,,,a,1,0.734,space,0.428,0,176,176,111,1,0_targ_1_dist_red/trial12.png,,,0,1,redHorizontal,a,60,23,M,2021-02-19_15h10.23.280,exp11,2020.2.6,MacIntel,60,,,,,,,,,,,
,,,,,,,,,,,,,,p,1,0.864,space,0.381,0,177,177,79,1,15_dist_red/trial5.png,,,1,15,redHorizontal,p,60,23,M,2021-02-19_15h10.23.280,exp11,2020.2.6,MacIntel,60,,,,,,,,,,,
,,,,,,,,,,,,,,p,1,0.743,space,0.343,0,178,178,29,1,3_dist_red/trial5.png,,,1,3,redHorizontal,p,60,23,M,2021-02-19_15h10.23.280,exp11,2020.2.6,MacIntel,60,,,,,,,,,,,
,,,,,,,,,,,,,,a,1,1.008,space,0.424,0,179,179,174,1,0_targ_10_dist_red/trial25.png,,,0,10,redHorizontal,a,60,23,M,2021-02-19_15h10.23.280,exp11,2020.2.6,MacIntel,60,,,,,,,,,,,
,,,,,,,,,,,,,,p,1,0.707,space,0.322,0,180,180,54,1,9_dist_red/trial5.png,,,1,9,redHorizontal,p,60,23,M,2021-02-19_15h10.23.280,exp11,2020.2.6,MacIntel,60,,,,,,,,,,,
,,,,,,,,,,,,,,p,1,0.713,space,0.376,0,181,181,27,1,3_dist_red/trial3.png,,,1,3,redHorizontal,p,60,23,M,2021-02-19_15h10.23.280,exp11,2020.2.6,MacIntel,60,,,,,,,,,,,
,,,,,,,,,,,,,,p,1,0.617,space,0.441,0,182,182,2,1,0_dist_red/trial3.png,,,1,0,redHorizontal,p,60,23,M,2021-02-19_15h10.23.280,exp11,2020.2.6,MacIntel,60,,,,,,,,,,,
,,,,,,,,,,,,,,a,1,0.667,space,0.341,0,183,183,105,1,0_targ_1_dist_red/trial6.png,,,0,1,redHorizontal,a,60,23,M,2021-02-19_15h10.23.280,exp11,2020.2.6,MacIntel,60,,,,,,,,,,,
,,,,,,,,,,,,,,p,1,1.697,space,0.898,0,184,184,74,1,9_dist_red/trial25.png,,,1,9,redHorizontal,p,60,23,M,2021-02-19_15h10.23.280,exp11,2020.2.6,MacIntel,60,,,,,,,,,,,
,,,,,,,,,,,,,,p,1,1.674,space,0.272,0,185,185,93,1,15_dist_red/trial19.png,,,1,15,redHorizontal,p,60,23,M,2021-02-19_15h10.23.280,exp11,2020.2.6,MacIntel,60,,,,,,,,,,,
,,,,,,,,,,,,,,a,1,1.161,space,0.48,0,186,186,114,1,0_targ_1_dist_red/trial15.png,,,0,1,redHorizontal,a,60,23,M,2021-02-19_15h10.23.280,exp11,2020.2.6,MacIntel,60,,,,,,,,,,,
,,,,,,,,,,,,,,a,1,0.86,space,0.373,0,187,187,120,1,0_targ_1_dist_red/trial21.png,,,0,1,redHorizontal,a,60,23,M,2021-02-19_15h10.23.280,exp11,2020.2.6,MacIntel,60,,,,,,,,,,,
,,,,,,,,,,,,,,p,1,1.237,space,0.343,0,188,188,44,1,3_dist_red/trial20.png,,,1,3,redHorizontal,p,60,23,M,2021-02-19_15h10.23.280,exp11,2020.2.6,MacIntel,60,,,,,,,,,,,
,,,,,,,,,,,,,,p,1,0.783,space,0.335,0,189,189,99,1,15_dist_red/trial25.png,,,1,15,redHorizontal,p,60,23,M,2021-02-19_15h10.23.280,exp11,2020.2.6,MacIntel,60,,,,,,,,,,,
,,,,,,,,,,,,,,p,1,0.698,space,1.021,0,190,190,13,1,0_dist_red/trial14.png,,,1,0,redHorizontal,p,60,23,M,2021-02-19_15h10.23.280,exp11,2020.2.6,MacIntel,60,,,,,,,,,,,
,,,,,,,,,,,,,,p,1,0.761,space,0.272,0,191,191,60,1,9_dist_red/trial11.png,,,1,9,redHorizontal,p,60,23,M,2021-02-19_15h10.23.280,exp11,2020.2.6,MacIntel,60,,,,,,,,,,,
,,,,,,,,,,,,,,a,1,0.703,space,0.243,0,192,192,104,1,0_targ_1_dist_red/trial5.png,,,0,1,redHorizontal,a,60,23,M,2021-02-19_15h10.23.280,exp11,2020.2.6,MacIntel,60,,,,,,,,,,,
,,,,,,,,,,,,,,p,1,0.778,space,0.306,0,193,193,20,1,0_dist_red/trial21.png,,,1,0,redHorizontal,p,60,23,M,2021-02-19_15h10.23.280,exp11,2020.2.6,MacIntel,60,,,,,,,,,,,
,,,,,,,,,,,,,,a,1,0.979,space,1.075,0,194,194,113,1,0_targ_1_dist_red/trial14.png,,,0,1,redHorizontal,a,60,23,M,2021-02-19_15h10.23.280,exp11,2020.2.6,MacIntel,60,,,,,,,,,,,
,,,,,,,,,,,,,,a,1,1.248,space,0.27,0,195,195,133,1,0_targ_4_dist_red/trial9.png,,,0,4,redHorizontal,a,60,23,M,2021-02-19_15h10.23.280,exp11,2020.2.6,MacIntel,60,,,,,,,,,,,
,,,,,,,,,,,,,,p,1,0.684,space,0.259,0,196,196,11,1,0_dist_red/trial12.png,,,1,0,redHorizontal,p,60,23,M,2021-02-19_15h10.23.280,exp11,2020.2.6,MacIntel,60,,,,,,,,,,,
,,,,,,,,,,,,,,p,1,0.928,space,0.237,0,197,197,64,1,9_dist_red/trial15.png,,,1,9,redHorizontal,p,60,23,M,2021-02-19_15h10.23.280,exp11,2020.2.6,MacIntel,60,,,,,,,,,,,
,,,,,,,,,,,,,,a,1,0.761,space,0.279,0,198,198,102,1,0_targ_1_dist_red/trial3.png,,,0,1,redHorizontal,a,60,23,M,2021-02-19_15h10.23.280,exp11,2020.2.6,MacIntel,60,,,,,,,,,,,
,,,,,,,,,,,,,,p,0,1.096,space,1.711,0,199,199,130,1,0_targ_4_dist_red/trial6.png,,,0,4,redHorizontal,a,60,23,M,2021-02-19_15h10.23.280,exp11,2020.2.6,MacIntel,60,,,,,,,,,,,
,,,,,,,,,,,,,,,,,,,,,,,,,,,,,,,60,23,M,2021-02-19_15h10.23.280,exp11,2020.2.6,MacIntel,60,0,0,0,1,1,conRed.xlsx,red horizontal,Look for red horizontal bar (target) and indicate if it is present or absent in the array. If red horizontal target is present press 'p' and if absent press 'a'. Press SPACE to start.,,,
,,,,,,,,,,space,10.216,space,6.61,a,1,1.715,space,0.339,0,0,0,158,1,0_targ_10_dist_green/trial9.png,,,0,10,greenverival,a,60,23,M,2021-02-19_15h10.23.280,exp11,2020.2.6,MacIntel,60,,,,,,,,,,,
,,,,,,,,,,,,,,a,1,0.842,space,0.419,0,1,1,110,1,0_targ_1_dist_green/trial11.png,,,0,1,greenverival,a,60,23,M,2021-02-19_15h10.23.280,exp11,2020.2.6,MacIntel,60,,,,,,,,,,,
,,,,,,,,,,,,,,p,1,0.708,space,0.305,0,2,2,20,1,0_dist_green/trial21.png,,,1,0,greenverival,p,60,23,M,2021-02-19_15h10.23.280,exp11,2020.2.6,MacIntel,60,,,,,,,,,,,
,,,,,,,,,,,,,,p,1,0.669,space,0.288,0,3,3,54,1,9_dist_green/trial5.png,,,1,9,greenverival,p,60,23,M,2021-02-19_15h10.23.280,exp11,2020.2.6,MacIntel,60,,,,,,,,,,,
,,,,,,,,,,,,,,p,1,0.896,space,0.239,0,4,4,56,1,9_dist_green/trial7.png,,,1,9,greenverival,p,60,23,M,2021-02-19_15h10.23.280,exp11,2020.2.6,MacIntel,60,,,,,,,,,,,
,,,,,,,,,,,,,,a,1,1.294,space,0.376,0,5,5,186,1,0_targ_16_dist_green/trial12.png,,,0,16,greenverival,a,60,23,M,2021-02-19_15h10.23.280,exp11,2020.2.6,MacIntel,60,,,,,,,,,,,
,,,,,,,,,,,,,,p,1,0.843,space,0.312,0,6,6,63,1,9_dist_green/trial14.png,,,1,9,greenverival,p,60,23,M,2021-02-19_15h10.23.280,exp11,2020.2.6,MacIntel,60,,,,,,,,,,,
,,,,,,,,,,,,,,a,1,1.1,space,0.223,0,7,7,109,1,0_targ_1_dist_green/trial10.png,,,0,1,greenverival,a,60,23,M,2021-02-19_15h10.23.280,exp11,2020.2.6,MacIntel,60,,,,,,,,,,,
,,,,,,,,,,,,,,a,1,0.978,space,0.214,0,8,8,166,1,0_targ_10_dist_green/trial17.png,,,0,10,greenverival,a,60,23,M,2021-02-19_15h10.23.280,exp11,2020.2.6,MacIntel,60,,,,,,,,,,,
,,,,,,,,,,,,,,p,1,0.774,space,0.207,0,9,9,73,1,9_dist_green/trial24.png,,,1,9,greenverival,p,60,23,M,2021-02-19_15h10.23.280,exp11,2020.2.6,MacIntel,60,,,,,,,,,,,
,,,,,,,,,,,,,,a,1,1.126,space,0.188,0,10,10,118,1,0_targ_1_dist_green/trial19.png,,,0,1,greenverival,a,60,23,M,2021-02-19_15h10.23.280,exp11,2020.2.6,MacIntel,60,,,,,,,,,,,
,,,,,,,,,,,,,,a,1,0.747,space,0.239,0,11,11,129,1,0_targ_4_dist_green/trial5.png,,,0,4,greenverival,a,60,23,M,2021-02-19_15h10.23.280,exp11,2020.2.6,MacIntel,60,,,,,,,,,,,
,,,,,,,,,,,,,,p,1,0.961,space,0.152,0,12,12,26,1,3_dist_green/trial2.png,,,1,3,greenverival,p,60,23,M,2021-02-19_15h10.23.280,exp11,2020.2.6,MacIntel,60,,,,,,,,,,,
,,,,,,,,,,,,,,a,1,1.075,space,0.173,0,13,13,152,1,0_targ_10_dist_green/trial3.png,,,0,10,greenverival,a,60,23,M,2021-02-19_15h10.23.280,exp11,2020.2.6,MacIntel,60,,,,,,,,,,,
,,,,,,,,,,,,,,p,1,0.791,space,0.106,0,14,14,60,1,9_dist_green/trial11.png,,,1,9,greenverival,p,60,23,M,2021-02-19_15h10.23.280,exp11,2020.2.6,MacIntel,60,,,,,,,,,,,
,,,,,,,,,,,,,,a,1,1.111,space,0.121,0,15,15,135,1,0_targ_4_dist_green/trial11.png,,,0,4,greenverival,a,60,23,M,2021-02-19_15h10.23.280,exp11,2020.2.6,MacIntel,60,,,,,,,,,,,
,,,,,,,,,,,,,,p,1,0.695,space,0.062,0,16,16,53,1,9_dist_green/trial4.png,,,1,9,greenverival,p,60,23,M,2021-02-19_15h10.23.280,exp11,2020.2.6,MacIntel,60,,,,,,,,,,,
,,,,,,,,,,,,,,a,1,0.912,space,0.09,0,17,17,114,1,0_targ_1_dist_green/trial15.png,,,0,1,greenverival,a,60,23,M,2021-02-19_15h10.23.280,exp11,2020.2.6,MacIntel,60,,,,,,,,,,,
,,,,,,,,,,,,,,p,1,0.877,space,0.561,0,18,18,49,1,3_dist_green/trial25.png,,,1,3,greenverival,p,60,23,M,2021-02-19_15h10.23.280,exp11,2020.2.6,MacIntel,60,,,,,,,,,,,
,,,,,,,,,,,,,,a,1,1.29,space,0.109,0,19,19,160,1,0_targ_10_dist_green/trial11.png,,,0,10,greenverival,a,60,23,M,2021-02-19_15h10.23.280,exp11,2020.2.6,MacIntel,60,,,,,,,,,,,
,,,,,,,,,,,,,,p,1,1.244,space,0.089,0,20,20,90,1,15_dist_green/trial16.png,,,1,15,greenverival,p,60,23,M,2021-02-19_15h10.23.280,exp11,2020.2.6,MacIntel,60,,,,,,,,,,,
,,,,,,,,,,,,,,p,1,1.029,space,0.064,0,21,21,57,1,9_dist_green/trial8.png,,,1,9,greenverival,p,60,23,M,2021-02-19_15h10.23.280,exp11,2020.2.6,MacIntel,60,,,,,,,,,,,
,,,,,,,,,,,,,,p,1,0.934,space,0.1,0,22,22,75,1,15_dist_green/trial1.png,,,1,15,greenverival,p,60,23,M,2021-02-19_15h10.23.280,exp11,2020.2.6,MacIntel,60,,,,,,,,,,,
,,,,,,,,,,,,,,p,1,0.69,space,0.012,0,23,23,12,1,0_dist_green/trial13.png,,,1,0,greenverival,p,60,23,M,2021-02-19_15h10.23.280,exp11,2020.2.6,MacIntel,60,,,,,,,,,,,
,,,,,,,,,,,,,,a,1,1.109,space,0.121,0,24,24,119,1,0_targ_1_dist_green/trial20.png,,,0,1,greenverival,a,60,23,M,2021-02-19_15h10.23.280,exp11,2020.2.6,MacIntel,60,,,,,,,,,,,
,,,,,,,,,,,,,,a,1,1.041,space,0.068,0,25,25,147,1,0_targ_4_dist_green/trial23.png,,,0,4,greenverival,a,60,23,M,2021-02-19_15h10.23.280,exp11,2020.2.6,MacIntel,60,,,,,,,,,,,
,,,,,,,,,,,,,,a,1,1.297,space,1.04,0,26,26,188,1,0_targ_16_dist_green/trial14.png,,,0,16,greenverival,a,60,23,M,2021-02-19_15h10.23.280,exp11,2020.2.6,MacIntel,60,,,,,,,,,,,
,,,,,,,,,,,,,,a,1,1.382,space,0.148,0,27,27,187,1,0_targ_16_dist_green/trial13.png,,,0,16,greenverival,a,60,23,M,2021-02-19_15h10.23.280,exp11,2020.2.6,MacIntel,60,,,,,,,,,,,
,,,,,,,,,,,,,,a,1,0.927,space,0.127,0,28,28,104,1,0_targ_1_dist_green/trial5.png,,,0,1,greenverival,a,60,23,M,2021-02-19_15h10.23.280,exp11,2020.2.6,MacIntel,60,,,,,,,,,,,
,,,,,,,,,,,,,,p,1,0.932,space,0.125,0,29,29,82,1,15_dist_green/trial8.png,,,1,15,greenverival,p,60,23,M,2021-02-19_15h10.23.280,exp11,2020.2.6,MacIntel,60,,,,,,,,,,,
,,,,,,,,,,,,,,a,1,0.926,space,0.107,0,30,30,111,1,0_targ_1_dist_green/trial12.png,,,0,1,greenverival,a,60,23,M,2021-02-19_15h10.23.280,exp11,2020.2.6,MacIntel,60,,,,,,,,,,,
,,,,,,,,,,,,,,p,1,1.33,space,0.092,0,31,31,93,1,15_dist_green/trial19.png,,,1,15,greenverival,p,60,23,M,2021-02-19_15h10.23.280,exp11,2020.2.6,MacIntel,60,,,,,,,,,,,
,,,,,,,,,,,,,,p,1,0.942,space,0.102,0,32,32,74,1,9_dist_green/trial25.png,,,1,9,greenverival,p,60,23,M,2021-02-19_15h10.23.280,exp11,2020.2.6,MacIntel,60,,,,,,,,,,,
,,,,,,,,,,,,,,a,1,0.97,space,0.136,0,33,33,103,1,0_targ_1_dist_green/trial4.png,,,0,1,greenverival,a,60,23,M,2021-02-19_15h10.23.280,exp11,2020.2.6,MacIntel,60,,,,,,,,,,,
,,,,,,,,,,,,,,p,1,0.819,space,0.148,0,34,34,14,1,0_dist_green/trial15.png,,,1,0,greenverival,p,60,23,M,2021-02-19_15h10.23.280,exp11,2020.2.6,MacIntel,60,,,,,,,,,,,
,,,,,,,,,,,,,,p,1,1.008,space,0.126,0,35,35,83,1,15_dist_green/trial9.png,,,1,15,greenverival,p,60,23,M,2021-02-19_15h10.23.280,exp11,2020.2.6,MacIntel,60,,,,,,,,,,,
,,,,,,,,,,,,,,p,1,1.329,space,0.071,0,36,36,48,1,3_dist_green/trial24.png,,,1,3,greenverival,p,60,23,M,2021-02-19_15h10.23.280,exp11,2020.2.6,MacIntel,60,,,,,,,,,,,
,,,,,,,,,,,,,,a,1,1.378,space,0.065,0,37,37,137,1,0_targ_4_dist_green/trial13.png,,,0,4,greenverival,a,60,23,M,2021-02-19_15h10.23.280,exp11,2020.2.6,MacIntel,60,,,,,,,,,,,
,,,,,,,,,,,,,,a,1,1.33,space,0.003,0,38,38,167,1,0_targ_10_dist_green/trial18.png,,,0,10,greenverival,a,60,23,M,2021-02-19_15h10.23.280,exp11,2020.2.6,MacIntel,60,,,,,,,,,,,
,,,,,,,,,,,,,,a,1,1.746,space,0.72,0,39,39,185,1,0_targ_16_dist_green/trial11.png,,,0,16,greenverival,a,60,23,M,2021-02-19_15h10.23.280,exp11,2020.2.6,MacIntel,60,,,,,,,,,,,
,,,,,,,,,,,,,,a,1,1.105,space,0.055,0,40,40,175,1,0_targ_16_dist_green/trial1.png,,,0,16,greenverival,a,60,23,M,2021-02-19_15h10.23.280,exp11,2020.2.6,MacIntel,60,,,,,,,,,,,
,,,,,,,,,,,,,,a,1,1.836,space,0.188,0,41,41,190,1,0_targ_16_dist_green/trial16.png,,,0,16,greenverival,a,60,23,M,2021-02-19_15h10.23.280,exp11,2020.2.6,MacIntel,60,,,,,,,,,,,
,,,,,,,,,,,,,,a,1,0.918,space,0.204,0,42,42,128,1,0_targ_4_dist_green/trial4.png,,,0,4,greenverival,a,60,23,M,2021-02-19_15h10.23.280,exp11,2020.2.6,MacIntel,60,,,,,,,,,,,
,,,,,,,,,,,,,,a,1,1.089,space,0.155,0,43,43,195,1,0_targ_16_dist_green/trial21.png,,,0,16,greenverival,a,60,23,M,2021-02-19_15h10.23.280,exp11,2020.2.6,MacIntel,60,,,,,,,,,,,
,,,,,,,,,,,,,,a,1,0.711,space,0.241,0,44,44,105,1,0_targ_1_dist_green/trial6.png,,,0,1,greenverival,a,60,23,M,2021-02-19_15h10.23.280,exp11,2020.2.6,MacIntel,60,,,,,,,,,,,
,,,,,,,,,,,,,,p,1,1.578,space,0.337,0,45,45,97,1,15_dist_green/trial23.png,,,1,15,greenverival,p,60,23,M,2021-02-19_15h10.23.280,exp11,2020.2.6,MacIntel,60,,,,,,,,,,,
,,,,,,,,,,,,,,a,1,1.004,space,0.127,0,46,46,157,1,0_targ_10_dist_green/trial8.png,,,0,10,greenverival,a,60,23,M,2021-02-19_15h10.23.280,exp11,2020.2.6,MacIntel,60,,,,,,,,,,,
,,,,,,,,,,,,,,a,1,0.895,space,0.139,0,47,47,145,1,0_targ_4_dist_green/trial21.png,,,0,4,greenverival,a,60,23,M,2021-02-19_15h10.23.280,exp11,2020.2.6,MacIntel,60,,,,,,,,,,,
,,,,,,,,,,,,,,a,1,1.042,space,0.105,0,48,48,173,1,0_targ_10_dist_green/trial24.png,,,0,10,greenverival,a,60,23,M,2021-02-19_15h10.23.280,exp11,2020.2.6,MacIntel,60,,,,,,,,,,,
,,,,,,,,,,,,,,a,1,1.591,space,0.156,0,49,49,176,1,0_targ_16_dist_green/trial2.png,,,0,16,greenverival,a,60,23,M,2021-02-19_15h10.23.280,exp11,2020.2.6,MacIntel,60,,,,,,,,,,,
,,,,,,,,,,,,,,p,1,0.653,space,0.189,0,50,50,40,1,3_dist_green/trial16.png,,,1,3,greenverival,p,60,23,M,2021-02-19_15h10.23.280,exp11,2020.2.6,MacIntel,60,,,,,,,,,,,
,,,,,,,,,,,,,,a,1,1.13,space,0.153,0,51,51,180,1,0_targ_16_dist_green/trial6.png,,,0,16,greenverival,a,60,23,M,2021-02-19_15h10.23.280,exp11,2020.2.6,MacIntel,60,,,,,,,,,,,
,,,,,,,,,,,,,,p,1,0.593,space,0.172,0,52,52,13,1,0_dist_green/trial14.png,,,1,0,greenverival,p,60,23,M,2021-02-19_15h10.23.280,exp11,2020.2.6,MacIntel,60,,,,,,,,,,,
,,,,,,,,,,,,,,a,1,1.044,space,0.285,0,53,53,140,1,0_targ_4_dist_green/trial6.png,,,0,4,greenverival,a,60,23,M,2021-02-19_15h10.23.280,exp11,2020.2.6,MacIntel,60,,,,,,,,,,,
,,,,,,,,,,,,,,p,1,0.893,space,0.165,0,54,54,76,1,15_dist_green/trial2.png,,,1,15,greenverival,p,60,23,M,2021-02-19_15h10.23.280,exp11,2020.2.6,MacIntel,60,,,,,,,,,,,
,,,,,,,,,,,,,,a,1,1.491,space,0.071,0,55,55,178,1,0_targ_16_dist_green/trial4.png,,,0,16,greenverival,a,60,23,M,2021-02-19_15h10.23.280,exp11,2020.2.6,MacIntel,60,,,,,,,,,,,
,,,,,,,,,,,,,,p,1,0.598,space,0.207,0,56,56,36,1,3_dist_green/trial12.png,,,1,3,greenverival,p,60,23,M,2021-02-19_15h10.23.280,exp11,2020.2.6,MacIntel,60,,,,,,,,,,,
,,,,,,,,,,,,,,a,0,0.595,space,0.789,0,57,57,28,1,3_dist_green/trial4.png,,,1,3,greenverival,p,60,23,M,2021-02-19_15h10.23.280,exp11,2020.2.6,MacIntel,60,,,,,,,,,,,
,,,,,,,,,,,,,,p,1,1.168,space,0.208,0,58,58,66,1,9_dist_green/trial17.png,,,1,9,greenverival,p,60,23,M,2021-02-19_15h10.23.280,exp11,2020.2.6,MacIntel,60,,,,,,,,,,,
,,,,,,,,,,,,,,p,1,0.944,space,0.187,0,59,59,79,1,15_dist_green/trial5.png,,,1,15,greenverival,p,60,23,M,2021-02-19_15h10.23.280,exp11,2020.2.6,MacIntel,60,,,,,,,,,,,
,,,,,,,,,,,,,,p,1,0.609,space,0.121,0,60,60,6,1,0_dist_green/trial7.png,,,1,0,greenverival,p,60,23,M,2021-02-19_15h10.23.280,exp11,2020.2.6,MacIntel,60,,,,,,,,,,,
,,,,,,,,,,,,,,p,1,0.502,space,0.105,0,61,61,19,1,0_dist_green/trial20.png,,,1,0,greenverival,p,60,23,M,2021-02-19_15h10.23.280,exp11,2020.2.6,MacIntel,60,,,,,,,,,,,
,,,,,,,,,,,,,,a,1,1.424,space,1.12,0,62,62,150,1,0_targ_10_dist_green/trial1.png,,,0,10,greenverival,a,60,23,M,2021-02-19_15h10.23.280,exp11,2020.2.6,MacIntel,60,,,,,,,,,,,
,,,,,,,,,,,,,,p,1,0.787,space,0.137,0,63,63,94,1,15_dist_green/trial20.png,,,1,15,greenverival,p,60,23,M,2021-02-19_15h10.23.280,exp11,2020.2.6,MacIntel,60,,,,,,,,,,,
,,,,,,,,,,,,,,p,1,0.778,space,0.139,0,64,64,99,1,15_dist_green/trial25.png,,,1,15,greenverival,p,60,23,M,2021-02-19_15h10.23.280,exp11,2020.2.6,MacIntel,60,,,,,,,,,,,
,,,,,,,,,,,,,,a,1,1.263,space,0.14,0,65,65,136,1,0_targ_4_dist_green/trial12.png,,,0,4,greenverival,a,60,23,M,2021-02-19_15h10.23.280,exp11,2020.2.6,MacIntel,60,,,,,,,,,,,
,,,,,,,,,,,,,,p,1,0.632,space,0.089,0,66,66,33,1,3_dist_green/trial9.png,,,1,3,greenverival,p,60,23,M,2021-02-19_15h10.23.280,exp11,2020.2.6,MacIntel,60,,,,,,,,,,,
,,,,,,,,,,,,,,p,1,1.034,space,0.181,0,67,67,71,1,9_dist_green/trial22.png,,,1,9,greenverival,p,60,23,M,2021-02-19_15h10.23.280,exp11,2020.2.6,MacIntel,60,,,,,,,,,,,
,,,,,,,,,,,,,,p,1,0.694,space,0.091,0,68,68,50,1,9_dist_green/trial1.png,,,1,9,greenverival,p,60,23,M,2021-02-19_15h10.23.280,exp11,2020.2.6,MacIntel,60,,,,,,,,,,,
,,,,,,,,,,,,,,a,1,0.974,space,0.059,0,69,69,100,1,0_targ_1_dist_green/trial1.png,,,0,1,greenverival,a,60,23,M,2021-02-19_15h10.23.280,exp11,2020.2.6,MacIntel,60,,,,,,,,,,,
,,,,,,,,,,,,,,p,1,0.544,space,0.428,0,70,70,23,1,0_dist_green/trial24.png,,,1,0,greenverival,p,60,23,M,2021-02-19_15h10.23.280,exp11,2020.2.6,MacIntel,60,,,,,,,,,,,
,,,,,,,,,,,,,,p,1,1.508,space,0.075,0,71,71,92,1,15_dist_green/trial18.png,,,1,15,greenverival,p,60,23,M,2021-02-19_15h10.23.280,exp11,2020.2.6,MacIntel,60,,,,,,,,,,,
,,,,,,,,,,,,,,p,1,0.546,space,0.087,0,72,72,44,1,3_dist_green/trial20.png,,,1,3,greenverival,p,60,23,M,2021-02-19_15h10.23.280,exp11,2020.2.6,MacIntel,60,,,,,,,,,,,
,,,,,,,,,,,,,,p,1,0.512,space,0.089,0,73,73,17,1,0_dist_green/trial18.png,,,1,0,greenverival,p,60,23,M,2021-02-19_15h10.23.280,exp11,2020.2.6,MacIntel,60,,,,,,,,,,,
,,,,,,,,,,,,,,p,1,0.7,space,0.864,0,74,74,37,1,3_dist_green/trial13.png,,,1,3,greenverival,p,60,23,M,2021-02-19_15h10.23.280,exp11,2020.2.6,MacIntel,60,,,,,,,,,,,
,,,,,,,,,,,,,,a,1,1.09,space,0.688,0,75,75,159,1,0_targ_10_dist_green/trial10.png,,,0,10,greenverival,a,60,23,M,2021-02-19_15h10.23.280,exp11,2020.2.6,MacIntel,60,,,,,,,,,,,
,,,,,,,,,,,,,,a,1,1.065,space,0.01,0,76,76,115,1,0_targ_1_dist_green/trial6.png,,,0,1,greenverival,a,60,23,M,2021-02-19_15h10.23.280,exp11,2020.2.6,MacIntel,60,,,,,,,,,,,
,,,,,,,,,,,,,,p,0,1.258,space,0.611,0,77,77,198,1,0_targ_16_dist_green/trial24.png,,,0,16,greenverival,a,60,23,M,2021-02-19_15h10.23.280,exp11,2020.2.6,MacIntel,60,,,,,,,,,,,
,,,,,,,,,,,,,,p,1,0.963,space,0.056,0,78,78,62,1,9_dist_green/trial13.png,,,1,9,greenverival,p,60,23,M,2021-02-19_15h10.23.280,exp11,2020.2.6,MacIntel,60,,,,,,,,,,,
,,,,,,,,,,,,,,p,1,0.794,space,0.078,0,79,79,88,1,15_dist_green/trial14.png,,,1,15,greenverival,p,60,23,M,2021-02-19_15h10.23.280,exp11,2020.2.6,MacIntel,60,,,,,,,,,,,
,,,,,,,,,,,,,,p,1,0.561,space,0.107,0,80,80,15,1,0_dist_green/trial16.png,,,1,0,greenverival,p,60,23,M,2021-02-19_15h10.23.280,exp11,2020.2.6,MacIntel,60,,,,,,,,,,,
,,,,,,,,,,,,,,a,1,0.681,space,0.54,0,81,81,108,1,0_targ_1_dist_green/trial9.png,,,0,1,greenverival,a,60,23,M,2021-02-19_15h10.23.280,exp11,2020.2.6,MacIntel,60,,,,,,,,,,,
,,,,,,,,,,,,,,p,1,0.898,space,0.157,0,82,82,70,1,9_dist_green/trial21.png,,,1,9,greenverival,p,60,23,M,2021-02-19_15h10.23.280,exp11,2020.2.6,MacIntel,60,,,,,,,,,,,
,,,,,,,,,,,,,,p,1,0.663,space,0.105,0,83,83,1,1,0_dist_green/trial2.png,,,1,0,greenverival,p,60,23,M,2021-02-19_15h10.23.280,exp11,2020.2.6,MacIntel,60,,,,,,,,,,,
,,,,,,,,,,,,,,p,0,0.46,space,1.207,0,84,84,102,1,0_targ_1_dist_green/trial3.png,,,0,1,greenverival,a,60,23,M,2021-02-19_15h10.23.280,exp11,2020.2.6,MacIntel,60,,,,,,,,,,,
,,,,,,,,,,,,,,p,1,0.836,space,0.451,0,85,85,47,1,3_dist_green/trial23.png,,,1,3,greenverival,p,60,23,M,2021-02-19_15h10.23.280,exp11,2020.2.6,MacIntel,60,,,,,,,,,,,
,,,,,,,,,,,,,,a,1,0.87,space,0.179,0,86,86,174,1,0_targ_10_dist_green/trial25.png,,,0,10,greenverival,a,60,23,M,2021-02-19_15h10.23.280,exp11,2020.2.6,MacIntel,60,,,,,,,,,,,
,,,,,,,,,,,,,,a,1,0.889,space,0.184,0,87,87,163,1,0_targ_10_dist_green/trial14.png,,,0,10,greenverival,a,60,23,M,2021-02-19_15h10.23.280,exp11,2020.2.6,MacIntel,60,,,,,,,,,,,
,,,,,,,,,,,,,,p,1,0.859,space,0.242,0,88,88,95,1,15_dist_green/trial21.png,,,1,15,greenverival,p,60,23,M,2021-02-19_15h10.23.280,exp11,2020.2.6,MacIntel,60,,,,,,,,,,,
,,,,,,,,,,,,,,a,1,0.796,space,0.186,0,89,89,107,1,0_targ_1_dist_green/trial8.png,,,0,1,greenverival,a,60,23,M,2021-02-19_15h10.23.280,exp11,2020.2.6,MacIntel,60,,,,,,,,,,,
,,,,,,,,,,,,,,p,1,1.076,space,0.225,0,90,90,58,1,9_dist_green/trial9.png,,,1,9,greenverival,p,60,23,M,2021-02-19_15h10.23.280,exp11,2020.2.6,MacIntel,60,,,,,,,,,,,
,,,,,,,,,,,,,,a,1,1.034,space,0.18,0,91,91,168,1,0_targ_10_dist_green/trial19.png,,,0,10,greenverival,a,60,23,M,2021-02-19_15h10.23.280,exp11,2020.2.6,MacIntel,60,,,,,,,,,,,
,,,,,,,,,,,,,,a,1,1.794,space,0.104,0,92,92,199,1,0_targ_16_dist_green/trial25.png,,,0,16,greenverival,a,60,23,M,2021-02-19_15h10.23.280,exp11,2020.2.6,MacIntel,60,,,,,,,,,,,
,,,,,,,,,,,,,,p,1,0.826,space,0.146,0,93,93,52,1,9_dist_green/trial3.png,,,1,9,greenverival,p,60,23,M,2021-02-19_15h10.23.280,exp11,2020.2.6,MacIntel,60,,,,,,,,,,,
,,,,,,,,,,,,,,p,1,0.831,space,0.14,0,94,94,51,1,9_dist_green/trial2.png,,,1,9,greenverival,p,60,23,M,2021-02-19_15h10.23.280,exp11,2020.2.6,MacIntel,60,,,,,,,,,,,
,,,,,,,,,,,,,,p,1,0.625,space,0.114,0,95,95,67,1,9_dist_green/trial18.png,,,1,9,greenverival,p,60,23,M,2021-02-19_15h10.23.280,exp11,2020.2.6,MacIntel,60,,,,,,,,,,,
,,,,,,,,,,,,,,a,1,0.783,space,0.003,0,96,96,131,1,0_targ_4_dist_green/trial7.png,,,0,4,greenverival,a,60,23,M,2021-02-19_15h10.23.280,exp11,2020.2.6,MacIntel,60,,,,,,,,,,,
,,,,,,,,,,,,,,p,1,1.585,space,0.287,0,97,97,61,1,9_dist_green/trial12.png,,,1,9,greenverival,p,60,23,M,2021-02-19_15h10.23.280,exp11,2020.2.6,MacIntel,60,,,,,,,,,,,
,,,,,,,,,,,,,,p,1,0.48,space,0.404,0,98,98,0,1,0_dist_green/trial1.png,,,1,0,greenverival,p,60,23,M,2021-02-19_15h10.23.280,exp11,2020.2.6,MacIntel,60,,,,,,,,,,,
,,,,,,,,,,,,,,p,1,0.71,space,0.272,0,99,99,80,1,15_dist_green/trial6.png,,,1,15,greenverival,p,60,23,M,2021-02-19_15h10.23.280,exp11,2020.2.6,MacIntel,60,,,,,,,,,,,
,,,,,,,,,,,,,,p,1,0.627,space,0.327,0,100,100,65,1,9_dist_green/trial16.png,,,1,9,greenverival,p,60,23,M,2021-02-19_15h10.23.280,exp11,2020.2.6,MacIntel,60,,,,,,,,,,,
,,,,,,,,,,,,,,a,1,0.702,space,0.206,0,101,101,124,1,0_targ_1_dist_green/trial25.png,,,0,1,greenverival,a,60,23,M,2021-02-19_15h10.23.280,exp11,2020.2.6,MacIntel,60,,,,,,,,,,,
,,,,,,,,,,,,,,a,1,1.882,space,0.257,0,102,102,177,1,0_targ_16_dist_green/trial3.png,,,0,16,greenverival,a,60,23,M,2021-02-19_15h10.23.280,exp11,2020.2.6,MacIntel,60,,,,,,,,,,,
,,,,,,,,,,,,,,p,1,0.594,space,0.273,0,103,103,21,1,0_dist_green/trial22.png,,,1,0,greenverival,p,60,23,M,2021-02-19_15h10.23.280,exp11,2020.2.6,MacIntel,60,,,,,,,,,,,
,,,,,,,,,,,,,,p,1,0.614,space,0.295,0,104,104,43,1,3_dist_green/trial19.png,,,1,3,greenverival,p,60,23,M,2021-02-19_15h10.23.280,exp11,2020.2.6,MacIntel,60,,,,,,,,,,,
,,,,,,,,,,,,,,p,1,0.511,space,0.272,0,105,105,59,1,9_dist_green/trial10.png,,,1,9,greenverival,p,60,23,M,2021-02-19_15h10.23.280,exp11,2020.2.6,MacIntel,60,,,,,,,,,,,
,,,,,,,,,,,,,,a,1,0.627,space,0.211,0,106,106,123,1,0_targ_1_dist_green/trial24.png,,,0,1,greenverival,a,60,23,M,2021-02-19_15h10.23.280,exp11,2020.2.6,MacIntel,60,,,,,,,,,,,
,,,,,,,,,,,,,,p,1,0.678,space,0.309,0,107,107,25,1,3_dist_green/trial1.png,,,1,3,greenverival,p,60,23,M,2021-02-19_15h10.23.280,exp11,2020.2.6,MacIntel,60,,,,,,,,,,,
,,,,,,,,,,,,,,p,1,0.63,space,0.226,0,108,108,27,1,3_dist_green/trial3.png,,,1,3,greenverival,p,60,23,M,2021-02-19_15h10.23.280,exp11,2020.2.6,MacIntel,60,,,,,,,,,,,
,,,,,,,,,,,,,,a,1,0.966,space,0.169,0,109,109,170,1,0_targ_10_dist_green/trial21.png,,,0,10,greenverival,a,60,23,M,2021-02-19_15h10.23.280,exp11,2020.2.6,MacIntel,60,,,,,,,,,,,
,,,,,,,,,,,,,,a,1,0.832,space,0.193,0,110,110,144,1,0_targ_4_dist_green/trial20.png,,,0,4,greenverival,a,60,23,M,2021-02-19_15h10.23.280,exp11,2020.2.6,MacIntel,60,,,,,,,,,,,
,,,,,,,,,,,,,,p,1,0.745,space,0.153,0,111,111,41,1,3_dist_green/trial17.png,,,1,3,greenverival,p,60,23,M,2021-02-19_15h10.23.280,exp11,2020.2.6,MacIntel,60,,,,,,,,,,,
,,,,,,,,,,,,,,a,1,0.849,space,0.16,0,112,112,101,1,0_targ_1_dist_green/trial2.png,,,0,1,greenverival,a,60,23,M,2021-02-19_15h10.23.280,exp11,2020.2.6,MacIntel,60,,,,,,,,,,,
,,,,,,,,,,,,,,a,1,1.279,space,0.17,0,113,113,122,1,0_targ_1_dist_green/trial23.png,,,0,1,greenverival,a,60,23,M,2021-02-19_15h10.23.280,exp11,2020.2.6,MacIntel,60,,,,,,,,,,,
,,,,,,,,,,,,,,p,1,0.658,space,0.138,0,114,114,30,1,3_dist_green/trial6.png,,,1,3,greenverival,p,60,23,M,2021-02-19_15h10.23.280,exp11,2020.2.6,MacIntel,60,,,,,,,,,,,
,,,,,,,,,,,,,,p,1,0.804,space,0.241,0,115,115,34,1,3_dist_green/trial10.png,,,1,3,greenverival,p,60,23,M,2021-02-19_15h10.23.280,exp11,2020.2.6,MacIntel,60,,,,,,,,,,,
,,,,,,,,,,,,,,p,1,0.63,space,0.141,0,116,116,84,1,15_dist_green/trial10.png,,,1,15,greenverival,p,60,23,M,2021-02-19_15h10.23.280,exp11,2020.2.6,MacIntel,60,,,,,,,,,,,
,,,,,,,,,,,,,,p,1,0.948,space,0.122,0,117,117,72,1,9_dist_green/trial23.png,,,1,9,greenverival,p,60,23,M,2021-02-19_15h10.23.280,exp11,2020.2.6,MacIntel,60,,,,,,,,,,,
,,,,,,,,,,,,,,a,1,0.824,space,0.138,0,118,118,149,1,0_targ_4_dist_green/trial25.png,,,0,4,greenverival,a,60,23,M,2021-02-19_15h10.23.280,exp11,2020.2.6,MacIntel,60,,,,,,,,,,,
,,,,,,,,,,,,,,a,1,1.415,space,0.087,0,119,119,197,1,0_targ_16_dist_green/trial23.png,,,0,16,greenverival,a,60,23,M,2021-02-19_15h10.23.280,exp11,2020.2.6,MacIntel,60,,,,,,,,,,,
,,,,,,,,,,,,,,a,1,1.174,space,0.088,0,120,120,146,1,0_targ_4_dist_green/trial22.png,,,0,4,greenverival,a,60,23,M,2021-02-19_15h10.23.280,exp11,2020.2.6,MacIntel,60,,,,,,,,,,,
,,,,,,,,,,,,,,p,1,0.654,space,0.134,0,121,121,42,1,3_dist_green/trial18.png,,,1,3,greenverival,p,60,23,M,2021-02-19_15h10.23.280,exp11,2020.2.6,MacIntel,60,,,,,,,,,,,
,,,,,,,,,,,,,,a,1,0.798,space,0.064,0,122,122,125,1,0_targ_4_dist_green/trial1.png,,,0,4,greenverival,a,60,23,M,2021-02-19_15h10.23.280,exp11,2020.2.6,MacIntel,60,,,,,,,,,,,
,,,,,,,,,,,,,,p,1,0.708,space,0.096,0,123,123,39,1,3_dist_green/trial15.png,,,1,3,greenverival,p,60,23,M,2021-02-19_15h10.23.280,exp11,2020.2.6,MacIntel,60,,,,,,,,,,,
,,,,,,,,,,,,,,a,1,0.677,space,1.557,0,124,124,161,1,0_targ_10_dist_green/trial12.png,,,0,10,greenverival,a,60,23,M,2021-02-19_15h10.23.280,exp11,2020.2.6,MacIntel,60,,,,,,,,,,,
,,,,,,,,,,,,,,p,1,1.476,space,0.423,0,125,125,78,1,15_dist_green/trial4.png,,,1,15,greenverival,p,60,23,M,2021-02-19_15h10.23.280,exp11,2020.2.6,MacIntel,60,,,,,,,,,,,
,,,,,,,,,,,,,,a,1,0.984,space,0.203,0,126,126,165,1,0_targ_10_dist_green/trial16.png,,,0,10,greenverival,a,60,23,M,2021-02-19_15h10.23.280,exp11,2020.2.6,MacIntel,60,,,,,,,,,,,
,,,,,,,,,,,,,,a,1,1.176,space,0.123,0,127,127,172,1,0_targ_10_dist_green/trial23.png,,,0,10,greenverival,a,60,23,M,2021-02-19_15h10.23.280,exp11,2020.2.6,MacIntel,60,,,,,,,,,,,
,,,,,,,,,,,,,,a,1,0.962,space,0.189,0,128,128,151,1,0_targ_10_dist_green/trial2.png,,,0,10,greenverival,a,60,23,M,2021-02-19_15h10.23.280,exp11,2020.2.6,MacIntel,60,,,,,,,,,,,
,,,,,,,,,,,,,,p,1,0.625,space,0.339,0,129,129,16,1,0_dist_green/trial17.png,,,1,0,greenverival,p,60,23,M,2021-02-19_15h10.23.280,exp11,2020.2.6,MacIntel,60,,,,,,,,,,,
,,,,,,,,,,,,,,p,1,0.541,space,0.194,0,130,130,10,1,0_dist_green/trial11.png,,,1,0,greenverival,p,60,23,M,2021-02-19_15h10.23.280,exp11,2020.2.6,MacIntel,60,,,,,,,,,,,
,,,,,,,,,,,,,,p,1,0.593,space,0.205,0,131,131,86,1,15_dist_green/trial12.png,,,1,15,greenverival,p,60,23,M,2021-02-19_15h10.23.280,exp11,2020.2.6,MacIntel,60,,,,,,,,,,,
,,,,,,,,,,,,,,a,1,1.179,space,0.275,0,132,132,196,1,0_targ_16_dist_green/trial22.png,,,0,16,greenverival,a,60,23,M,2021-02-19_15h10.23.280,exp11,2020.2.6,MacIntel,60,,,,,,,,,,,
,,,,,,,,,,,,,,a,1,3.097,space,0.288,0,133,133,194,1,0_targ_16_dist_green/trial20.png,,,0,16,greenverival,a,60,23,M,2021-02-19_15h10.23.280,exp11,2020.2.6,MacIntel,60,,,,,,,,,,,
,,,,,,,,,,,,,,a,1,3.462,space,0.32,0,134,134,191,1,0_targ_16_dist_green/trial17.png,,,0,16,greenverival,a,60,23,M,2021-02-19_15h10.23.280,exp11,2020.2.6,MacIntel,60,,,,,,,,,,,
,,,,,,,,,,,,,,p,1,0.582,space,0.24,0,135,135,11,1,0_dist_green/trial12.png,,,1,0,greenverival,p,60,23,M,2021-02-19_15h10.23.280,exp11,2020.2.6,MacIntel,60,,,,,,,,,,,
,,,,,,,,,,,,,,p,1,0.694,space,0.195,0,136,136,89,1,15_dist_green/trial15.png,,,1,15,greenverival,p,60,23,M,2021-02-19_15h10.23.280,exp11,2020.2.6,MacIntel,60,,,,,,,,,,,
,,,,,,,,,,,,,,a,1,0.659,space,0.168,0,137,137,141,1,0_targ_4_dist_green/trial17.png,,,0,4,greenverival,a,60,23,M,2021-02-19_15h10.23.280,exp11,2020.2.6,MacIntel,60,,,,,,,,,,,
,,,,,,,,,,,,,,p,1,0.508,space,0.138,0,138,138,98,1,15_dist_green/trial24.png,,,1,15,greenverival,p,60,23,M,2021-02-19_15h10.23.280,exp11,2020.2.6,MacIntel,60,,,,,,,,,,,
,,,,,,,,,,,,,,a,1,1.679,space,0.093,0,139,139,193,1,0_targ_16_dist_green/trial19.png,,,0,16,greenverival,a,60,23,M,2021-02-19_15h10.23.280,exp11,2020.2.6,MacIntel,60,,,,,,,,,,,
,,,,,,,,,,,,,,p,1,0.479,space,0.105,0,140,140,31,1,3_dist_green/trial7.png,,,1,3,greenverival,p,60,23,M,2021-02-19_15h10.23.280,exp11,2020.2.6,MacIntel,60,,,,,,,,,,,
,,,,,,,,,,,,,,p,1,0.746,space,0.107,0,141,141,29,1,3_dist_green/trial5.png,,,1,3,greenverival,p,60,23,M,2021-02-19_15h10.23.280,exp11,2020.2.6,MacIntel,60,,,,,,,,,,,
,,,,,,,,,,,,,,a,1,0.658,space,0.11,0,142,142,130,1,0_targ_4_dist_green/trial6.png,,,0,4,greenverival,a,60,23,M,2021-02-19_15h10.23.280,exp11,2020.2.6,MacIntel,60,,,,,,,,,,,
,,,,,,,,,,,,,,p,1,0.451,space,0.143,0,143,143,24,1,0_dist_green/trial25.png,,,1,0,greenverival,p,60,23,M,2021-02-19_15h10.23.280,exp11,2020.2.6,MacIntel,60,,,,,,,,,,,
,,,,,,,,,,,,,,a,1,0.92,space,0.044,0,144,144,142,1,0_targ_4_dist_green/trial18.png,,,0,4,greenverival,a,60,23,M,2021-02-19_15h10.23.280,exp11,2020.2.6,MacIntel,60,,,,,,,,,,,
,,,,,,,,,,,,,,p,0,0.759,space,1.707,0,145,145,164,1,0_targ_10_dist_green/trial15.png,,,0,10,greenverival,a,60,23,M,2021-02-19_15h10.23.280,exp11,2020.2.6,MacIntel,60,,,,,,,,,,,
,,,,,,,,,,,,,,a,1,0.909,space,0.096,0,146,146,116,1,0_targ_1_dist_green/trial17.png,,,0,1,greenverival,a,60,23,M,2021-02-19_15h10.23.280,exp11,2020.2.6,MacIntel,60,,,,,,,,,,,
,,,,,,,,,,,,,,a,1,1.08,space,0.089,0,147,147,106,1,0_targ_1_dist_green/trial7.png,,,0,1,greenverival,a,60,23,M,2021-02-19_15h10.23.280,exp11,2020.2.6,MacIntel,60,,,,,,,,,,,
,,,,,,,,,,,,,,p,1,0.628,space,0.087,0,148,148,81,1,15_dist_green/trial7.png,,,1,15,greenverival,p,60,23,M,2021-02-19_15h10.23.280,exp11,2020.2.6,MacIntel,60,,,,,,,,,,,
,,,,,,,,,,,,,,p,1,0.559,space,0.083,0,149,149,5,1,0_dist_green/trial6.png,,,1,0,greenverival,p,60,23,M,2021-02-19_15h10.23.280,exp11,2020.2.6,MacIntel,60,,,,,,,,,,,
,,,,,,,,,,,,,,a,1,0.64,space,0.037,0,150,150,127,1,0_targ_4_dist_green/trial3.png,,,0,4,greenverival,a,60,23,M,2021-02-19_15h10.23.280,exp11,2020.2.6,MacIntel,60,,,,,,,,,,,
,,,,,,,,,,,,,,p,1,0.5,space,0.106,0,151,151,22,1,0_dist_green/trial23.png,,,1,0,greenverival,p,60,23,M,2021-02-19_15h10.23.280,exp11,2020.2.6,MacIntel,60,,,,,,,,,,,
,,,,,,,,,,,,,,p,1,0.876,space,0.04,0,152,152,35,1,3_dist_green/trial11.png,,,1,3,greenverival,p,60,23,M,2021-02-19_15h10.23.280,exp11,2020.2.6,MacIntel,60,,,,,,,,,,,
,,,,,,,,,,,,,,a,1,1.196,space,0.104,0,153,153,156,1,0_targ_10_dist_green/trial7.png,,,0,10,greenverival,a,60,23,M,2021-02-19_15h10.23.280,exp11,2020.2.6,MacIntel,60,,,,,,,,,,,
,,,,,,,,,,,,,,a,1,0.907,space,0.028,0,154,154,139,1,0_targ_4_dist_green/trial15.png,,,0,4,greenverival,a,60,23,M,2021-02-19_15h10.23.280,exp11,2020.2.6,MacIntel,60,,,,,,,,,,,
,,,,,,,,,,,,,,p,1,0.55,space,0.125,0,155,155,96,1,15_dist_green/trial22.png,,,1,15,greenverival,p,60,23,M,2021-02-19_15h10.23.280,exp11,2020.2.6,MacIntel,60,,,,,,,,,,,
,,,,,,,,,,,,,,p,1,0.752,space,0.088,0,156,156,38,1,3_dist_green/trial14.png,,,1,3,greenverival,p,60,23,M,2021-02-19_15h10.23.280,exp11,2020.2.6,MacIntel,60,,,,,,,,,,,
,,,,,,,,,,,,,,p,1,1.016,space,0.08,0,157,157,68,1,9_dist_green/trial19.png,,,1,9,greenverival,p,60,23,M,2021-02-19_15h10.23.280,exp11,2020.2.6,MacIntel,60,,,,,,,,,,,
,,,,,,,,,,,,,,p,1,0.523,space,0.056,0,158,158,2,1,0_dist_green/trial3.png,,,1,0,greenverival,p,60,23,M,2021-02-19_15h10.23.280,exp11,2020.2.6,MacIntel,60,,,,,,,,,,,
,,,,,,,,,,,,,,a,0,0.727,space,1.958,0,159,159,69,1,9_dist_green/trial20.png,,,1,9,greenverival,p,60,23,M,2021-02-19_15h10.23.280,exp11,2020.2.6,MacIntel,60,,,,,,,,,,,
,,,,,,,,,,,,,,a,1,0.844,space,0.125,0,160,160,143,1,0_targ_4_dist_green/trial19.png,,,0,4,greenverival,a,60,23,M,2021-02-19_15h10.23.280,exp11,2020.2.6,MacIntel,60,,,,,,,,,,,
,,,,,,,,,,,,,,a,1,0.695,space,0.107,0,161,161,121,1,0_targ_1_dist_green/trial22.png,,,0,1,greenverival,a,60,23,M,2021-02-19_15h10.23.280,exp11,2020.2.6,MacIntel,60,,,,,,,,,,,
,,,,,,,,,,,,,,a,1,1.066,space,0.108,0,162,162,179,1,0_targ_16_dist_green/trial5.png,,,0,16,greenverival,a,60,23,M,2021-02-19_15h10.23.280,exp11,2020.2.6,MacIntel,60,,,,,,,,,,,
,,,,,,,,,,,,,,a,1,0.609,space,0.137,0,163,163,138,1,0_targ_4_dist_green/trial14.png,,,0,4,greenverival,a,60,23,M,2021-02-19_15h10.23.280,exp11,2020.2.6,MacIntel,60,,,,,,,,,,,
,,,,,,,,,,,,,,p,1,0.602,space,0.129,0,164,164,18,1,0_dist_green/trial19.png,,,1,0,greenverival,p,60,23,M,2021-02-19_15h10.23.280,exp11,2020.2.6,MacIntel,60,,,,,,,,,,,
,,,,,,,,,,,,,,p,0,0.699,space,2.953,0,165,165,153,1,0_targ_10_dist_green/trial4.png,,,0,10,greenverival,a,60,23,M,2021-02-19_15h10.23.280,exp11,2020.2.6,MacIntel,60,,,,,,,,,,,
,,,,,,,,,,,,,,a,1,1.356,space,0.231,0,166,166,182,1,0_targ_16_dist_green/trial8.png,,,0,16,greenverival,a,60,23,M,2021-02-19_15h10.23.280,exp11,2020.2.6,MacIntel,60,,,,,,,,,,,
,,,,,,,,,,,,,,a,1,0.911,space,0.302,0,167,167,171,1,0_targ_10_dist_green/trial22.png,,,0,10,greenverival,a,60,23,M,2021-02-19_15h10.23.280,exp11,2020.2.6,MacIntel,60,,,,,,,,,,,
,,,,,,,,,,,,,,p,1,0.81,space,0.288,0,168,168,9,1,0_dist_green/trial10.png,,,1,0,greenverival,p,60,23,M,2021-02-19_15h10.23.280,exp11,2020.2.6,MacIntel,60,,,,,,,,,,,
,,,,,,,,,,,,,,a,1,0.991,space,0.24,0,169,169,155,1,0_targ_10_dist_green/trial6.png,,,0,10,greenverival,a,60,23,M,2021-02-19_15h10.23.280,exp11,2020.2.6,MacIntel,60,,,,,,,,,,,
,,,,,,,,,,,,,,p,1,0.994,space,0.127,0,170,170,85,1,15_dist_green/trial11.png,,,1,15,greenverival,p,60,23,M,2021-02-19_15h10.23.280,exp11,2020.2.6,MacIntel,60,,,,,,,,,,,
,,,,,,,,,,,,,,a,1,1.429,space,0.681,0,171,171,189,1,0_targ_16_dist_green/trial15.png,,,0,16,greenverival,a,60,23,M,2021-02-19_15h10.23.280,exp11,2020.2.6,MacIntel,60,,,,,,,,,,,
,,,,,,,,,,,,,,p,1,0.625,space,0.17,0,172,172,3,1,0_dist_green/trial4.png,,,1,0,greenverival,p,60,23,M,2021-02-19_15h10.23.280,exp11,2020.2.6,MacIntel,60,,,,,,,,,,,
,,,,,,,,,,,,,,a,1,0.713,space,0.158,0,173,173,132,1,0_targ_4_dist_green/trial8.png,,,0,4,greenverival,a,60,23,M,2021-02-19_15h10.23.280,exp11,2020.2.6,MacIntel,60,,,,,,,,,,,
,,,,,,,,,,,,,,p,1,0.527,space,0.209,0,174,174,4,1,0_dist_green/trial5.png,,,1,0,greenverival,p,60,23,M,2021-02-19_15h10.23.280,exp11,2020.2.6,MacIntel,60,,,,,,,,,,,
,,,,,,,,,,,,,,p,1,0.524,space,0.121,0,175,175,7,1,0_dist_green/trial8.png,,,1,0,greenverival,p,60,23,M,2021-02-19_15h10.23.280,exp11,2020.2.6,MacIntel,60,,,,,,,,,,,
,,,,,,,,,,,,,,a,1,0.714,space,0.177,0,176,176,117,1,0_targ_1_dist_green/trial18.png,,,0,1,greenverival,a,60,23,M,2021-02-19_15h10.23.280,exp11,2020.2.6,MacIntel,60,,,,,,,,,,,
,,,,,,,,,,,,,,p,1,0.608,space,0.121,0,177,177,64,1,9_dist_green/trial15.png,,,1,9,greenverival,p,60,23,M,2021-02-19_15h10.23.280,exp11,2020.2.6,MacIntel,60,,,,,,,,,,,
,,,,,,,,,,,,,,p,1,0.609,space,0.189,0,178,178,8,1,0_dist_green/trial9.png,,,1,0,greenverival,p,60,23,M,2021-02-19_15h10.23.280,exp11,2020.2.6,MacIntel,60,,,,,,,,,,,
,,,,,,,,,,,,,,p,1,0.636,space,0.195,0,179,179,87,1,15_dist_green/trial13.png,,,1,15,greenverival,p,60,23,M,2021-02-19_15h10.23.280,exp11,2020.2.6,MacIntel,60,,,,,,,,,,,
,,,,,,,,,,,,,,a,1,0.661,space,0.222,0,180,180,113,1,0_targ_1_dist_green/trial14.png,,,0,1,greenverival,a,60,23,M,2021-02-19_15h10.23.280,exp11,2020.2.6,MacIntel,60,,,,,,,,,,,
,,,,,,,,,,,,,,p,1,0.627,space,0.158,0,181,181,46,1,3_dist_green/trial22.png,,,1,3,greenverival,p,60,23,M,2021-02-19_15h10.23.280,exp11,2020.2.6,MacIntel,60,,,,,,,,,,,
,,,,,,,,,,,,,,a,1,0.762,space,0.255,0,182,182,112,1,0_targ_1_dist_green/trial13.png,,,0,1,greenverival,a,60,23,M,2021-02-19_15h10.23.280,exp11,2020.2.6,MacIntel,60,,,,,,,,,,,
,,,,,,,,,,,,,,a,1,0.877,space,0.255,0,183,183,148,1,0_targ_4_dist_green/trial24.png,,,0,4,greenverival,a,60,23,M,2021-02-19_15h10.23.280,exp11,2020.2.6,MacIntel,60,,,,,,,,,,,
,,,,,,,,,,,,,,a,1,1.045,space,0.206,0,184,184,169,1,0_targ_10_dist_green/trial20.png,,,0,10,greenverival,a,60,23,M,2021-02-19_15h10.23.280,exp11,2020.2.6,MacIntel,60,,,,,,,,,,,
,,,,,,,,,,,,,,a,1,0.766,space,0.236,0,185,185,162,1,0_targ_10_dist_green/trial13.png,,,0,10,greenverival,a,60,23,M,2021-02-19_15h10.23.280,exp11,2020.2.6,MacIntel,60,,,,,,,,,,,
,,,,,,,,,,,,,,a,1,0.775,space,0.137,0,186,186,120,1,0_targ_1_dist_green/trial21.png,,,0,1,greenverival,a,60,23,M,2021-02-19_15h10.23.280,exp11,2020.2.6,MacIntel,60,,,,,,,,,,,
,,,,,,,,,,,,,,a,1,0.698,space,0.123,0,187,187,134,1,0_targ_4_dist_green/trial10.png,,,0,4,greenverival,a,60,23,M,2021-02-19_15h10.23.280,exp11,2020.2.6,MacIntel,60,,,,,,,,,,,
,,,,,,,,,,,,,,p,1,1.051,space,0.141,0,188,188,91,1,15_dist_green/trial17.png,,,1,15,greenverival,p,60,23,M,2021-02-19_15h10.23.280,exp11,2020.2.6,MacIntel,60,,,,,,,,,,,
,,,,,,,,,,,,,,p,1,0.98,space,0.123,0,189,189,45,1,3_dist_green/trial21.png,,,1,3,greenverival,p,60,23,M,2021-02-19_15h10.23.280,exp11,2020.2.6,MacIntel,60,,,,,,,,,,,
,,,,,,,,,,,,,,a,1,1.775,space,0.173,0,190,190,181,1,0_targ_16_dist_green/trial7.png,,,0,16,greenverival,a,60,23,M,2021-02-19_15h10.23.280,exp11,2020.2.6,MacIntel,60,,,,,,,,,,,
,,,,,,,,,,,,,,p,1,0.993,space,0.119,0,191,191,55,1,9_dist_green/trial6.png,,,1,9,greenverival,p,60,23,M,2021-02-19_15h10.23.280,exp11,2020.2.6,MacIntel,60,,,,,,,,,,,
,,,,,,,,,,,,,,a,1,1.418,space,0.172,0,192,192,154,1,0_targ_10_dist_green/trial5.png,,,0,10,greenverival,a,60,23,M,2021-02-19_15h10.23.280,exp11,2020.2.6,MacIntel,60,,,,,,,,,,,
,,,,,,,,,,,,,,a,1,1.002,space,0.207,0,193,193,192,1,0_targ_16_dist_green/trial18.png,,,0,16,greenverival,a,60,23,M,2021-02-19_15h10.23.280,exp11,2020.2.6,MacIntel,60,,,,,,,,,,,
,,,,,,,,,,,,,,p,1,1.151,space,0.126,0,194,194,77,1,15_dist_green/trial3.png,,,1,15,greenverival,p,60,23,M,2021-02-19_15h10.23.280,exp11,2020.2.6,MacIntel,60,,,,,,,,,,,
,,,,,,,,,,,,,,a,1,1.559,space,0.437,0,195,195,183,1,0_targ_16_dist_green/trial9.png,,,0,16,greenverival,a,60,23,M,2021-02-19_15h10.23.280,exp11,2020.2.6,MacIntel,60,,,,,,,,,,,
,,,,,,,,,,,,,,a,1,1.232,space,0.171,0,196,196,184,1,0_targ_16_dist_green/trial10.png,,,0,16,greenverival,a,60,23,M,2021-02-19_15h10.23.280,exp11,2020.2.6,MacIntel,60,,,,,,,,,,,
,,,,,,,,,,,,,,a,1,1.092,space,0.104,0,197,197,133,1,0_targ_4_dist_green/trial9.png,,,0,4,greenverival,a,60,23,M,2021-02-19_15h10.23.280,exp11,2020.2.6,MacIntel,60,,,,,,,,,,,
,,,,,,,,,,,,,,p,1,0.863,space,0.189,0,198,198,32,1,3_dist_green/trial8.png,,,1,3,greenverival,p,60,23,M,2021-02-19_15h10.23.280,exp11,2020.2.6,MacIntel,60,,,,,,,,,,,
,,,,,,,,,,,,,,a,1,0.9,space,0.206,0,199,199,126,1,0_targ_4_dist_green/trial2.png,,,0,4,greenverival,a,60,23,M,2021-02-19_15h10.23.280,exp11,2020.2.6,MacIntel,60,,,,,,,,,,,
,,,,,,,,,,,,,,,,,,,,,,,,,,,,,,,60,23,M,2021-02-19_15h10.23.280,exp11,2020.2.6,MacIntel,60,0,1,1,0,1,conGreen.xlsx,green vertical,Look for green vertical bar (target) and indicate if it is present or absent in the array. If green vertical target is present press 'p' and if absent press 'a'. Press SPACE to start.,,,
