key_resp_6.keys,key_resp_6.rt,key_resp_7.keys,key_resp_7.rt,key_resp_8.keys,key_resp_8.rt,key_resp_10.keys,key_resp_10.rt,key_resp_9.keys,key_resp_9.rt,key_resp_3.keys,key_resp_3.rt,key_resp_5.keys,key_resp_5.rt,key_resp.keys,key_resp.corr,key_resp.rt,key_resp_4.keys,key_resp_4.rt,trials.thisRepN,trials.thisTrialN,trials.thisN,trials.thisIndex,trials.ran,ImageFile,tarPos,tarSize,targPres,numDist,targetName,correctAns,participant,age,sex,date,expName,psychopyVersion,OS,frameRate,trials_2.thisRepN,trials_2.thisTrialN,trials_2.thisN,trials_2.thisIndex,trials_2.ran,condsFile,targName,instructionText,colTarget,sizeTarg,posit
space,1.733,space,0.954,space,0.369,space,0.507,space,0.454,space,0.466,space,17.382,p,1,12.709,space,1.581,0,0,0,35,1,3_dist_red/trial11.png,,,1,3,redHorizontal,p,61,19,M,2021-02-19_15h23.45.077,exp11,2020.2.6,MacIntel,60,,,,,,,,,,,
,,,,,,,,,,,,,,p,1,4.025,space,1.224,0,1,1,12,1,0_dist_red/trial13.png,,,1,0,redHorizontal,p,61,19,M,2021-02-19_15h23.45.077,exp11,2020.2.6,MacIntel,60,,,,,,,,,,,
,,,,,,,,,,,,,,p,1,4.283,space,2.142,0,2,2,37,1,3_dist_red/trial13.png,,,1,3,redHorizontal,p,61,19,M,2021-02-19_15h23.45.077,exp11,2020.2.6,MacIntel,60,,,,,,,,,,,
,,,,,,,,,,,,,,a,1,2.878,space,0.907,0,3,3,148,1,0_targ_4_dist_red/trial24.png,,,0,4,redHorizontal,a,61,19,M,2021-02-19_15h23.45.077,exp11,2020.2.6,MacIntel,60,,,,,,,,,,,
,,,,,,,,,,,,,,a,1,2.225,space,1.746,0,4,4,196,1,0_targ_16_dist_red/trial22.png,,,0,16,redHorizontal,a,61,19,M,2021-02-19_15h23.45.077,exp11,2020.2.6,MacIntel,60,,,,,,,,,,,
,,,,,,,,,,,,,,a,1,2.043,space,0.889,0,5,5,198,1,0_targ_16_dist_red/trial24.png,,,0,16,redHorizontal,a,61,19,M,2021-02-19_15h23.45.077,exp11,2020.2.6,MacIntel,60,,,,,,,,,,,
,,,,,,,,,,,,,,a,1,1.143,space,0.82,0,6,6,127,1,0_targ_4_dist_red/trial3.png,,,0,4,redHorizontal,a,61,19,M,2021-02-19_15h23.45.077,exp11,2020.2.6,MacIntel,60,,,,,,,,,,,
,,,,,,,,,,,,,,p,1,4.465,space,1.673,0,7,7,80,1,15_dist_red/trial6.png,,,1,15,redHorizontal,p,61,19,M,2021-02-19_15h23.45.077,exp11,2020.2.6,MacIntel,60,,,,,,,,,,,
,,,,,,,,,,,,,,a,0,10.636,space,1.711,0,8,8,66,1,9_dist_red/trial17.png,,,1,9,redHorizontal,p,61,19,M,2021-02-19_15h23.45.077,exp11,2020.2.6,MacIntel,60,,,,,,,,,,,
,,,,,,,,,,,,,,a,1,1.395,space,0.585,0,9,9,106,1,0_targ_1_dist_red/trial7.png,,,0,1,redHorizontal,a,61,19,M,2021-02-19_15h23.45.077,exp11,2020.2.6,MacIntel,60,,,,,,,,,,,
,,,,,,,,,,,,,,a,1,4.33,space,0.638,0,10,10,159,1,0_targ_10_dist_red/trial10.png,,,0,10,redHorizontal,a,61,19,M,2021-02-19_15h23.45.077,exp11,2020.2.6,MacIntel,60,,,,,,,,,,,
,,,,,,,,,,,,,,a,1,1.979,space,0.829,0,11,11,181,1,0_targ_16_dist_red/trial7.png,,,0,16,redHorizontal,a,61,19,M,2021-02-19_15h23.45.077,exp11,2020.2.6,MacIntel,60,,,,,,,,,,,
,,,,,,,,,,,,,,p,1,2.177,space,0.639,0,12,12,51,1,9_dist_red/trial2.png,,,1,9,redHorizontal,p,61,19,M,2021-02-19_15h23.45.077,exp11,2020.2.6,MacIntel,60,,,,,,,,,,,
,,,,,,,,,,,,,,a,1,1.023,space,0.508,0,13,13,132,1,0_targ_4_dist_red/trial8.png,,,0,4,redHorizontal,a,61,19,M,2021-02-19_15h23.45.077,exp11,2020.2.6,MacIntel,60,,,,,,,,,,,
,,,,,,,,,,,,,,p,1,1.352,space,0.572,0,14,14,2,1,0_dist_red/trial3.png,,,1,0,redHorizontal,p,61,19,M,2021-02-19_15h23.45.077,exp11,2020.2.6,MacIntel,60,,,,,,,,,,,
,,,,,,,,,,,,,,p,1,2.08,space,0.37,0,15,15,73,1,9_dist_red/trial24.png,,,1,9,redHorizontal,p,61,19,M,2021-02-19_15h23.45.077,exp11,2020.2.6,MacIntel,60,,,,,,,,,,,
,,,,,,,,,,,,,,p,1,1.732,space,0.471,0,16,16,79,1,15_dist_red/trial5.png,,,1,15,redHorizontal,p,61,19,M,2021-02-19_15h23.45.077,exp11,2020.2.6,MacIntel,60,,,,,,,,,,,
,,,,,,,,,,,,,,a,1,0.895,space,0.353,0,17,17,111,1,0_targ_1_dist_red/trial12.png,,,0,1,redHorizontal,a,61,19,M,2021-02-19_15h23.45.077,exp11,2020.2.6,MacIntel,60,,,,,,,,,,,
,,,,,,,,,,,,,,a,1,0.928,space,0.516,0,18,18,131,1,0_targ_4_dist_red/trial7.png,,,0,4,redHorizontal,a,61,19,M,2021-02-19_15h23.45.077,exp11,2020.2.6,MacIntel,60,,,,,,,,,,,
,,,,,,,,,,,,,,a,1,1.56,space,0.405,0,19,19,157,1,0_targ_10_dist_red/trial8.png,,,0,10,redHorizontal,a,61,19,M,2021-02-19_15h23.45.077,exp11,2020.2.6,MacIntel,60,,,,,,,,,,,
,,,,,,,,,,,,,,p,1,0.994,space,0.393,0,20,20,15,1,0_dist_red/trial16.png,,,1,0,redHorizontal,p,61,19,M,2021-02-19_15h23.45.077,exp11,2020.2.6,MacIntel,60,,,,,,,,,,,
,,,,,,,,,,,,,,a,1,2.425,space,0.32,0,21,21,154,1,0_targ_10_dist_red/trial5.png,,,0,10,redHorizontal,a,61,19,M,2021-02-19_15h23.45.077,exp11,2020.2.6,MacIntel,60,,,,,,,,,,,
,,,,,,,,,,,,,,a,1,0.924,space,0.338,0,22,22,103,1,0_targ_1_dist_red/trial4.png,,,0,1,redHorizontal,a,61,19,M,2021-02-19_15h23.45.077,exp11,2020.2.6,MacIntel,60,,,,,,,,,,,
,,,,,,,,,,,,,,a,1,2.23,space,0.39,0,23,23,167,1,0_targ_10_dist_red/trial18.png,,,0,10,redHorizontal,a,61,19,M,2021-02-19_15h23.45.077,exp11,2020.2.6,MacIntel,60,,,,,,,,,,,
,,,,,,,,,,,,,,a,1,1.215,space,0.425,0,24,24,122,1,0_targ_1_dist_red/trial23.png,,,0,1,redHorizontal,a,61,19,M,2021-02-19_15h23.45.077,exp11,2020.2.6,MacIntel,60,,,,,,,,,,,
,,,,,,,,,,,,,,a,1,0.664,space,0.308,0,25,25,105,1,0_targ_1_dist_red/trial6.png,,,0,1,redHorizontal,a,61,19,M,2021-02-19_15h23.45.077,exp11,2020.2.6,MacIntel,60,,,,,,,,,,,
,,,,,,,,,,,,,,a,1,1.012,space,0.389,0,26,26,160,1,0_targ_10_dist_red/trial11.png,,,0,10,redHorizontal,a,61,19,M,2021-02-19_15h23.45.077,exp11,2020.2.6,MacIntel,60,,,,,,,,,,,
,,,,,,,,,,,,,,a,1,0.813,space,0.389,0,27,27,163,1,0_targ_10_dist_red/trial14.png,,,0,10,redHorizontal,a,61,19,M,2021-02-19_15h23.45.077,exp11,2020.2.6,MacIntel,60,,,,,,,,,,,
,,,,,,,,,,,,,,p,1,0.959,space,0.414,0,28,28,61,1,9_dist_red/trial12.png,,,1,9,redHorizontal,p,61,19,M,2021-02-19_15h23.45.077,exp11,2020.2.6,MacIntel,60,,,,,,,,,,,
,,,,,,,,,,,,,,a,1,0.524,space,0.373,0,29,29,128,1,0_targ_4_dist_red/trial4.png,,,0,4,redHorizontal,a,61,19,M,2021-02-19_15h23.45.077,exp11,2020.2.6,MacIntel,60,,,,,,,,,,,
,,,,,,,,,,,,,,a,1,1.095,space,0.44,0,30,30,143,1,0_targ_4_dist_red/trial19.png,,,0,4,redHorizontal,a,61,19,M,2021-02-19_15h23.45.077,exp11,2020.2.6,MacIntel,60,,,,,,,,,,,
,,,,,,,,,,,,,,a,1,2.16,space,0.53,0,31,31,175,1,0_targ_16_dist_red/trial1.png,,,0,16,redHorizontal,a,61,19,M,2021-02-19_15h23.45.077,exp11,2020.2.6,MacIntel,60,,,,,,,,,,,
,,,,,,,,,,,,,,a,1,0.616,space,0.382,0,32,32,136,1,0_targ_4_dist_red/trial12.png,,,0,4,redHorizontal,a,61,19,M,2021-02-19_15h23.45.077,exp11,2020.2.6,MacIntel,60,,,,,,,,,,,
,,,,,,,,,,,,,,a,1,0.54,space,0.365,0,33,33,107,1,0_targ_1_dist_red/trial8.png,,,0,1,redHorizontal,a,61,19,M,2021-02-19_15h23.45.077,exp11,2020.2.6,MacIntel,60,,,,,,,,,,,
,,,,,,,,,,,,,,p,1,1.055,space,0.375,0,34,34,27,1,3_dist_red/trial3.png,,,1,3,redHorizontal,p,61,19,M,2021-02-19_15h23.45.077,exp11,2020.2.6,MacIntel,60,,,,,,,,,,,
,,,,,,,,,,,,,,a,1,1.615,space,0.574,0,35,35,195,1,0_targ_16_dist_red/trial21.png,,,0,16,redHorizontal,a,61,19,M,2021-02-19_15h23.45.077,exp11,2020.2.6,MacIntel,60,,,,,,,,,,,
,,,,,,,,,,,,,,a,1,0.944,space,0.373,0,36,36,151,1,0_targ_10_dist_red/trial2.png,,,0,10,redHorizontal,a,61,19,M,2021-02-19_15h23.45.077,exp11,2020.2.6,MacIntel,60,,,,,,,,,,,
,,,,,,,,,,,,,,p,1,1.064,space,0.325,0,37,37,77,1,15_dist_red/trial3.png,,,1,15,redHorizontal,p,61,19,M,2021-02-19_15h23.45.077,exp11,2020.2.6,MacIntel,60,,,,,,,,,,,
,,,,,,,,,,,,,,p,1,2.733,space,0.588,0,38,38,64,1,9_dist_red/trial15.png,,,1,9,redHorizontal,p,61,19,M,2021-02-19_15h23.45.077,exp11,2020.2.6,MacIntel,60,,,,,,,,,,,
,,,,,,,,,,,,,,a,1,1.582,space,0.386,0,39,39,152,1,0_targ_10_dist_red/trial3.png,,,0,10,redHorizontal,a,61,19,M,2021-02-19_15h23.45.077,exp11,2020.2.6,MacIntel,60,,,,,,,,,,,
,,,,,,,,,,,,,,p,1,0.673,space,0.255,0,40,40,18,1,0_dist_red/trial19.png,,,1,0,redHorizontal,p,61,19,M,2021-02-19_15h23.45.077,exp11,2020.2.6,MacIntel,60,,,,,,,,,,,
,,,,,,,,,,,,,,a,1,1.494,space,0.495,0,41,41,134,1,0_targ_4_dist_red/trial10.png,,,0,4,redHorizontal,a,61,19,M,2021-02-19_15h23.45.077,exp11,2020.2.6,MacIntel,60,,,,,,,,,,,
,,,,,,,,,,,,,,p,1,1.229,space,0.37,0,42,42,62,1,9_dist_red/trial13.png,,,1,9,redHorizontal,p,61,19,M,2021-02-19_15h23.45.077,exp11,2020.2.6,MacIntel,60,,,,,,,,,,,
,,,,,,,,,,,,,,a,1,0.691,space,0.357,0,43,43,115,1,0_targ_1_dist_red/trial6.png,,,0,1,redHorizontal,a,61,19,M,2021-02-19_15h23.45.077,exp11,2020.2.6,MacIntel,60,,,,,,,,,,,
,,,,,,,,,,,,,,a,1,0.994,space,0.414,0,44,44,178,1,0_targ_16_dist_red/trial4.png,,,0,16,redHorizontal,a,61,19,M,2021-02-19_15h23.45.077,exp11,2020.2.6,MacIntel,60,,,,,,,,,,,
,,,,,,,,,,,,,,a,1,0.661,space,0.352,0,45,45,179,1,0_targ_16_dist_red/trial5.png,,,0,16,redHorizontal,a,61,19,M,2021-02-19_15h23.45.077,exp11,2020.2.6,MacIntel,60,,,,,,,,,,,
,,,,,,,,,,,,,,a,1,0.996,space,0.369,0,46,46,192,1,0_targ_16_dist_red/trial18.png,,,0,16,redHorizontal,a,61,19,M,2021-02-19_15h23.45.077,exp11,2020.2.6,MacIntel,60,,,,,,,,,,,
,,,,,,,,,,,,,,p,1,0.889,space,0.331,0,47,47,88,1,15_dist_red/trial14.png,,,1,15,redHorizontal,p,61,19,M,2021-02-19_15h23.45.077,exp11,2020.2.6,MacIntel,60,,,,,,,,,,,
,,,,,,,,,,,,,,p,1,0.925,space,0.409,0,48,48,40,1,3_dist_red/trial16.png,,,1,3,redHorizontal,p,61,19,M,2021-02-19_15h23.45.077,exp11,2020.2.6,MacIntel,60,,,,,,,,,,,
,,,,,,,,,,,,,,p,1,0.527,space,0.355,0,49,49,26,1,3_dist_red/trial2.png,,,1,3,redHorizontal,p,61,19,M,2021-02-19_15h23.45.077,exp11,2020.2.6,MacIntel,60,,,,,,,,,,,
,,,,,,,,,,,,,,a,1,0.636,space,0.356,0,50,50,130,1,0_targ_4_dist_red/trial6.png,,,0,4,redHorizontal,a,61,19,M,2021-02-19_15h23.45.077,exp11,2020.2.6,MacIntel,60,,,,,,,,,,,
,,,,,,,,,,,,,,p,1,0.852,space,0.339,0,51,51,8,1,0_dist_red/trial9.png,,,1,0,redHorizontal,p,61,19,M,2021-02-19_15h23.45.077,exp11,2020.2.6,MacIntel,60,,,,,,,,,,,
,,,,,,,,,,,,,,a,1,1,space,0.32,0,52,52,100,1,0_targ_1_dist_red/trial1.png,,,0,1,redHorizontal,a,61,19,M,2021-02-19_15h23.45.077,exp11,2020.2.6,MacIntel,60,,,,,,,,,,,
,,,,,,,,,,,,,,p,1,1,space,0.439,0,53,53,90,1,15_dist_red/trial16.png,,,1,15,redHorizontal,p,61,19,M,2021-02-19_15h23.45.077,exp11,2020.2.6,MacIntel,60,,,,,,,,,,,
,,,,,,,,,,,,,,p,1,0.894,space,0.189,0,54,54,86,1,15_dist_red/trial12.png,,,1,15,redHorizontal,p,61,19,M,2021-02-19_15h23.45.077,exp11,2020.2.6,MacIntel,60,,,,,,,,,,,
,,,,,,,,,,,,,,a,1,1.428,space,0.353,0,55,55,176,1,0_targ_16_dist_red/trial2.png,,,0,16,redHorizontal,a,61,19,M,2021-02-19_15h23.45.077,exp11,2020.2.6,MacIntel,60,,,,,,,,,,,
,,,,,,,,,,,,,,p,1,0.719,space,0.336,0,56,56,97,1,15_dist_red/trial23.png,,,1,15,redHorizontal,p,61,19,M,2021-02-19_15h23.45.077,exp11,2020.2.6,MacIntel,60,,,,,,,,,,,
,,,,,,,,,,,,,,p,1,0.577,space,0.455,0,57,57,6,1,0_dist_red/trial7.png,,,1,0,redHorizontal,p,61,19,M,2021-02-19_15h23.45.077,exp11,2020.2.6,MacIntel,60,,,,,,,,,,,
,,,,,,,,,,,,,,p,1,0.469,space,0.739,0,58,58,4,1,0_dist_red/trial5.png,,,1,0,redHorizontal,p,61,19,M,2021-02-19_15h23.45.077,exp11,2020.2.6,MacIntel,60,,,,,,,,,,,
,,,,,,,,,,,,,,a,1,1.507,space,0.455,0,59,59,102,1,0_targ_1_dist_red/trial3.png,,,0,1,redHorizontal,a,61,19,M,2021-02-19_15h23.45.077,exp11,2020.2.6,MacIntel,60,,,,,,,,,,,
,,,,,,,,,,,,,,p,1,4.866,space,1.505,0,60,60,13,1,0_dist_red/trial14.png,,,1,0,redHorizontal,p,61,19,M,2021-02-19_15h23.45.077,exp11,2020.2.6,MacIntel,60,,,,,,,,,,,
,,,,,,,,,,,,,,a,1,1.277,space,0.34,0,61,61,162,1,0_targ_10_dist_red/trial13.png,,,0,10,redHorizontal,a,61,19,M,2021-02-19_15h23.45.077,exp11,2020.2.6,MacIntel,60,,,,,,,,,,,
,,,,,,,,,,,,,,a,1,1.212,space,0.29,0,62,62,199,1,0_targ_16_dist_red/trial25.png,,,0,16,redHorizontal,a,61,19,M,2021-02-19_15h23.45.077,exp11,2020.2.6,MacIntel,60,,,,,,,,,,,
,,,,,,,,,,,,,,a,1,0.812,space,0.72,0,63,63,146,1,0_targ_4_dist_red/trial22.png,,,0,4,redHorizontal,a,61,19,M,2021-02-19_15h23.45.077,exp11,2020.2.6,MacIntel,60,,,,,,,,,,,
,,,,,,,,,,,,,,a,1,0.681,space,0.382,0,64,64,140,1,0_targ_4_dist_red/trial6.png,,,0,4,redHorizontal,a,61,19,M,2021-02-19_15h23.45.077,exp11,2020.2.6,MacIntel,60,,,,,,,,,,,
,,,,,,,,,,,,,,a,1,1.11,space,0.302,0,65,65,145,1,0_targ_4_dist_red/trial21.png,,,0,4,redHorizontal,a,61,19,M,2021-02-19_15h23.45.077,exp11,2020.2.6,MacIntel,60,,,,,,,,,,,
,,,,,,,,,,,,,,p,1,0.516,space,0.219,0,66,66,32,1,3_dist_red/trial8.png,,,1,3,redHorizontal,p,61,19,M,2021-02-19_15h23.45.077,exp11,2020.2.6,MacIntel,60,,,,,,,,,,,
,,,,,,,,,,,,,,p,1,0.846,space,0.164,0,67,67,59,1,9_dist_red/trial10.png,,,1,9,redHorizontal,p,61,19,M,2021-02-19_15h23.45.077,exp11,2020.2.6,MacIntel,60,,,,,,,,,,,
,,,,,,,,,,,,,,a,1,0.793,space,0.419,0,68,68,169,1,0_targ_10_dist_red/trial20.png,,,0,10,redHorizontal,a,61,19,M,2021-02-19_15h23.45.077,exp11,2020.2.6,MacIntel,60,,,,,,,,,,,
,,,,,,,,,,,,,,p,1,0.842,space,0.372,0,69,69,84,1,15_dist_red/trial10.png,,,1,15,redHorizontal,p,61,19,M,2021-02-19_15h23.45.077,exp11,2020.2.6,MacIntel,60,,,,,,,,,,,
,,,,,,,,,,,,,,p,1,0.662,space,0.175,0,70,70,25,1,3_dist_red/trial1.png,,,1,3,redHorizontal,p,61,19,M,2021-02-19_15h23.45.077,exp11,2020.2.6,MacIntel,60,,,,,,,,,,,
,,,,,,,,,,,,,,a,1,0.727,space,0.236,0,71,71,108,1,0_targ_1_dist_red/trial9.png,,,0,1,redHorizontal,a,61,19,M,2021-02-19_15h23.45.077,exp11,2020.2.6,MacIntel,60,,,,,,,,,,,
,,,,,,,,,,,,,,p,1,0.508,space,0.222,0,72,72,58,1,9_dist_red/trial9.png,,,1,9,redHorizontal,p,61,19,M,2021-02-19_15h23.45.077,exp11,2020.2.6,MacIntel,60,,,,,,,,,,,
,,,,,,,,,,,,,,a,1,1.112,space,0.142,0,73,73,180,1,0_targ_16_dist_red/trial6.png,,,0,16,redHorizontal,a,61,19,M,2021-02-19_15h23.45.077,exp11,2020.2.6,MacIntel,60,,,,,,,,,,,
,,,,,,,,,,,,,,p,1,0.678,space,0.203,0,74,74,36,1,3_dist_red/trial12.png,,,1,3,redHorizontal,p,61,19,M,2021-02-19_15h23.45.077,exp11,2020.2.6,MacIntel,60,,,,,,,,,,,
,,,,,,,,,,,,,,p,1,1.01,space,0.158,0,75,75,46,1,3_dist_red/trial22.png,,,1,3,redHorizontal,p,61,19,M,2021-02-19_15h23.45.077,exp11,2020.2.6,MacIntel,60,,,,,,,,,,,
,,,,,,,,,,,,,,a,1,1.112,space,0.308,0,76,76,141,1,0_targ_4_dist_red/trial17.png,,,0,4,redHorizontal,a,61,19,M,2021-02-19_15h23.45.077,exp11,2020.2.6,MacIntel,60,,,,,,,,,,,
,,,,,,,,,,,,,,p,1,0.513,space,0.225,0,77,77,14,1,0_dist_red/trial15.png,,,1,0,redHorizontal,p,61,19,M,2021-02-19_15h23.45.077,exp11,2020.2.6,MacIntel,60,,,,,,,,,,,
,,,,,,,,,,,,,,p,1,0.627,space,0.152,0,78,78,33,1,3_dist_red/trial9.png,,,1,3,redHorizontal,p,61,19,M,2021-02-19_15h23.45.077,exp11,2020.2.6,MacIntel,60,,,,,,,,,,,
,,,,,,,,,,,,,,a,1,1.809,space,0.226,0,79,79,183,1,0_targ_16_dist_red/trial9.png,,,0,16,redHorizontal,a,61,19,M,2021-02-19_15h23.45.077,exp11,2020.2.6,MacIntel,60,,,,,,,,,,,
,,,,,,,,,,,,,,p,1,0.782,space,0.136,0,80,80,87,1,15_dist_red/trial13.png,,,1,15,redHorizontal,p,61,19,M,2021-02-19_15h23.45.077,exp11,2020.2.6,MacIntel,60,,,,,,,,,,,
,,,,,,,,,,,,,,a,1,1.592,space,0.387,0,81,81,170,1,0_targ_10_dist_red/trial21.png,,,0,10,redHorizontal,a,61,19,M,2021-02-19_15h23.45.077,exp11,2020.2.6,MacIntel,60,,,,,,,,,,,
,,,,,,,,,,,,,,a,1,1.176,space,0.205,0,82,82,158,1,0_targ_10_dist_red/trial9.png,,,0,10,redHorizontal,a,61,19,M,2021-02-19_15h23.45.077,exp11,2020.2.6,MacIntel,60,,,,,,,,,,,
,,,,,,,,,,,,,,p,1,0.577,space,0.176,0,83,83,94,1,15_dist_red/trial20.png,,,1,15,redHorizontal,p,61,19,M,2021-02-19_15h23.45.077,exp11,2020.2.6,MacIntel,60,,,,,,,,,,,
,,,,,,,,,,,,,,p,1,0.507,space,0.186,0,84,84,39,1,3_dist_red/trial15.png,,,1,3,redHorizontal,p,61,19,M,2021-02-19_15h23.45.077,exp11,2020.2.6,MacIntel,60,,,,,,,,,,,
,,,,,,,,,,,,,,a,1,0.839,space,0.145,0,85,85,166,1,0_targ_10_dist_red/trial17.png,,,0,10,redHorizontal,a,61,19,M,2021-02-19_15h23.45.077,exp11,2020.2.6,MacIntel,60,,,,,,,,,,,
,,,,,,,,,,,,,,a,1,0.791,space,0.158,0,86,86,101,1,0_targ_1_dist_red/trial2.png,,,0,1,redHorizontal,a,61,19,M,2021-02-19_15h23.45.077,exp11,2020.2.6,MacIntel,60,,,,,,,,,,,
,,,,,,,,,,,,,,p,1,0.542,space,0.153,0,87,87,11,1,0_dist_red/trial12.png,,,1,0,redHorizontal,p,61,19,M,2021-02-19_15h23.45.077,exp11,2020.2.6,MacIntel,60,,,,,,,,,,,
,,,,,,,,,,,,,,a,1,0.759,space,0.228,0,88,88,125,1,0_targ_4_dist_red/trial1.png,,,0,4,redHorizontal,a,61,19,M,2021-02-19_15h23.45.077,exp11,2020.2.6,MacIntel,60,,,,,,,,,,,
,,,,,,,,,,,,,,p,1,0.511,space,0.189,0,89,89,30,1,3_dist_red/trial6.png,,,1,3,redHorizontal,p,61,19,M,2021-02-19_15h23.45.077,exp11,2020.2.6,MacIntel,60,,,,,,,,,,,
,,,,,,,,,,,,,,p,1,0.645,space,0.173,0,90,90,34,1,3_dist_red/trial10.png,,,1,3,redHorizontal,p,61,19,M,2021-02-19_15h23.45.077,exp11,2020.2.6,MacIntel,60,,,,,,,,,,,
,,,,,,,,,,,,,,p,1,0.566,space,0.227,0,91,91,7,1,0_dist_red/trial8.png,,,1,0,redHorizontal,p,61,19,M,2021-02-19_15h23.45.077,exp11,2020.2.6,MacIntel,60,,,,,,,,,,,
,,,,,,,,,,,,,,p,1,0.459,space,0.158,0,92,92,3,1,0_dist_red/trial4.png,,,1,0,redHorizontal,p,61,19,M,2021-02-19_15h23.45.077,exp11,2020.2.6,MacIntel,60,,,,,,,,,,,
,,,,,,,,,,,,,,a,1,2.026,space,0.232,0,93,93,174,1,0_targ_10_dist_red/trial25.png,,,0,10,redHorizontal,a,61,19,M,2021-02-19_15h23.45.077,exp11,2020.2.6,MacIntel,60,,,,,,,,,,,
,,,,,,,,,,,,,,p,1,1.308,space,0.347,0,94,94,82,1,15_dist_red/trial8.png,,,1,15,redHorizontal,p,61,19,M,2021-02-19_15h23.45.077,exp11,2020.2.6,MacIntel,60,,,,,,,,,,,
,,,,,,,,,,,,,,p,1,0.661,space,0.191,0,95,95,72,1,9_dist_red/trial23.png,,,1,9,redHorizontal,p,61,19,M,2021-02-19_15h23.45.077,exp11,2020.2.6,MacIntel,60,,,,,,,,,,,
,,,,,,,,,,,,,,a,1,0.874,space,0.263,0,96,96,120,1,0_targ_1_dist_red/trial21.png,,,0,1,redHorizontal,a,61,19,M,2021-02-19_15h23.45.077,exp11,2020.2.6,MacIntel,60,,,,,,,,,,,
,,,,,,,,,,,,,,p,1,1.045,space,0.206,0,97,97,43,1,3_dist_red/trial19.png,,,1,3,redHorizontal,p,61,19,M,2021-02-19_15h23.45.077,exp11,2020.2.6,MacIntel,60,,,,,,,,,,,
,,,,,,,,,,,,,,a,1,0.797,space,0.16,0,98,98,144,1,0_targ_4_dist_red/trial20.png,,,0,4,redHorizontal,a,61,19,M,2021-02-19_15h23.45.077,exp11,2020.2.6,MacIntel,60,,,,,,,,,,,
,,,,,,,,,,,,,,a,1,1.126,space,0.089,0,99,99,186,1,0_targ_16_dist_red/trial12.png,,,0,16,redHorizontal,a,61,19,M,2021-02-19_15h23.45.077,exp11,2020.2.6,MacIntel,60,,,,,,,,,,,
,,,,,,,,,,,,,,a,1,0.86,space,0.243,0,100,100,190,1,0_targ_16_dist_red/trial16.png,,,0,16,redHorizontal,a,61,19,M,2021-02-19_15h23.45.077,exp11,2020.2.6,MacIntel,60,,,,,,,,,,,
,,,,,,,,,,,,,,p,1,1.3,space,0.159,0,101,101,67,1,9_dist_red/trial18.png,,,1,9,redHorizontal,p,61,19,M,2021-02-19_15h23.45.077,exp11,2020.2.6,MacIntel,60,,,,,,,,,,,
,,,,,,,,,,,,,,a,1,0.816,space,0.126,0,102,102,185,1,0_targ_16_dist_red/trial11.png,,,0,16,redHorizontal,a,61,19,M,2021-02-19_15h23.45.077,exp11,2020.2.6,MacIntel,60,,,,,,,,,,,
,,,,,,,,,,,,,,p,1,0.913,space,0.137,0,103,103,52,1,9_dist_red/trial3.png,,,1,9,redHorizontal,p,61,19,M,2021-02-19_15h23.45.077,exp11,2020.2.6,MacIntel,60,,,,,,,,,,,
,,,,,,,,,,,,,,a,1,0.908,space,0.139,0,104,104,188,1,0_targ_16_dist_red/trial14.png,,,0,16,redHorizontal,a,61,19,M,2021-02-19_15h23.45.077,exp11,2020.2.6,MacIntel,60,,,,,,,,,,,
,,,,,,,,,,,,,,a,1,2.211,space,0.098,0,105,105,123,1,0_targ_1_dist_red/trial24.png,,,0,1,redHorizontal,a,61,19,M,2021-02-19_15h23.45.077,exp11,2020.2.6,MacIntel,60,,,,,,,,,,,
,,,,,,,,,,,,,,a,1,4.962,space,0.147,0,106,106,182,1,0_targ_16_dist_red/trial8.png,,,0,16,redHorizontal,a,61,19,M,2021-02-19_15h23.45.077,exp11,2020.2.6,MacIntel,60,,,,,,,,,,,
,,,,,,,,,,,,,,p,1,0.941,space,0.106,0,107,107,78,1,15_dist_red/trial4.png,,,1,15,redHorizontal,p,61,19,M,2021-02-19_15h23.45.077,exp11,2020.2.6,MacIntel,60,,,,,,,,,,,
,,,,,,,,,,,,,,a,1,0.81,space,0.14,0,108,108,165,1,0_targ_10_dist_red/trial16.png,,,0,10,redHorizontal,a,61,19,M,2021-02-19_15h23.45.077,exp11,2020.2.6,MacIntel,60,,,,,,,,,,,
,,,,,,,,,,,,,,p,1,0.811,space,0.155,0,109,109,81,1,15_dist_red/trial7.png,,,1,15,redHorizontal,p,61,19,M,2021-02-19_15h23.45.077,exp11,2020.2.6,MacIntel,60,,,,,,,,,,,
,,,,,,,,,,,,,,p,1,1.062,space,0.122,0,110,110,55,1,9_dist_red/trial6.png,,,1,9,redHorizontal,p,61,19,M,2021-02-19_15h23.45.077,exp11,2020.2.6,MacIntel,60,,,,,,,,,,,
,,,,,,,,,,,,,,a,1,0.846,space,0.298,0,111,111,133,1,0_targ_4_dist_red/trial9.png,,,0,4,redHorizontal,a,61,19,M,2021-02-19_15h23.45.077,exp11,2020.2.6,MacIntel,60,,,,,,,,,,,
,,,,,,,,,,,,,,a,0,0.757,space,0.478,0,112,112,57,1,9_dist_red/trial8.png,,,1,9,redHorizontal,p,61,19,M,2021-02-19_15h23.45.077,exp11,2020.2.6,MacIntel,60,,,,,,,,,,,
,,,,,,,,,,,,,,p,1,0.994,space,0.491,0,113,113,44,1,3_dist_red/trial20.png,,,1,3,redHorizontal,p,61,19,M,2021-02-19_15h23.45.077,exp11,2020.2.6,MacIntel,60,,,,,,,,,,,
,,,,,,,,,,,,,,a,1,0.646,space,0.152,0,114,114,137,1,0_targ_4_dist_red/trial13.png,,,0,4,redHorizontal,a,61,19,M,2021-02-19_15h23.45.077,exp11,2020.2.6,MacIntel,60,,,,,,,,,,,
,,,,,,,,,,,,,,p,1,1.239,space,0.411,0,115,115,70,1,9_dist_red/trial21.png,,,1,9,redHorizontal,p,61,19,M,2021-02-19_15h23.45.077,exp11,2020.2.6,MacIntel,60,,,,,,,,,,,
,,,,,,,,,,,,,,p,1,0.614,space,0.239,0,116,116,75,1,15_dist_red/trial1.png,,,1,15,redHorizontal,p,61,19,M,2021-02-19_15h23.45.077,exp11,2020.2.6,MacIntel,60,,,,,,,,,,,
,,,,,,,,,,,,,,p,1,0.5,space,0.205,0,117,117,56,1,9_dist_red/trial7.png,,,1,9,redHorizontal,p,61,19,M,2021-02-19_15h23.45.077,exp11,2020.2.6,MacIntel,60,,,,,,,,,,,
,,,,,,,,,,,,,,p,1,0.683,space,0.174,0,118,118,68,1,9_dist_red/trial19.png,,,1,9,redHorizontal,p,61,19,M,2021-02-19_15h23.45.077,exp11,2020.2.6,MacIntel,60,,,,,,,,,,,
,,,,,,,,,,,,,,a,1,0.559,space,0.226,0,119,119,149,1,0_targ_4_dist_red/trial25.png,,,0,4,redHorizontal,a,61,19,M,2021-02-19_15h23.45.077,exp11,2020.2.6,MacIntel,60,,,,,,,,,,,
,,,,,,,,,,,,,,a,1,1.075,space,0.192,0,120,120,109,1,0_targ_1_dist_red/trial10.png,,,0,1,redHorizontal,a,61,19,M,2021-02-19_15h23.45.077,exp11,2020.2.6,MacIntel,60,,,,,,,,,,,
,,,,,,,,,,,,,,a,1,0.511,space,0.239,0,121,121,172,1,0_targ_10_dist_red/trial23.png,,,0,10,redHorizontal,a,61,19,M,2021-02-19_15h23.45.077,exp11,2020.2.6,MacIntel,60,,,,,,,,,,,
,,,,,,,,,,,,,,p,1,0.758,space,0.127,0,122,122,29,1,3_dist_red/trial5.png,,,1,3,redHorizontal,p,61,19,M,2021-02-19_15h23.45.077,exp11,2020.2.6,MacIntel,60,,,,,,,,,,,
,,,,,,,,,,,,,,a,1,3.034,space,0.275,0,123,123,155,1,0_targ_10_dist_red/trial6.png,,,0,10,redHorizontal,a,61,19,M,2021-02-19_15h23.45.077,exp11,2020.2.6,MacIntel,60,,,,,,,,,,,
,,,,,,,,,,,,,,p,1,0.56,space,0.169,0,124,124,47,1,3_dist_red/trial23.png,,,1,3,redHorizontal,p,61,19,M,2021-02-19_15h23.45.077,exp11,2020.2.6,MacIntel,60,,,,,,,,,,,
,,,,,,,,,,,,,,a,1,1.244,space,0.4,0,125,125,189,1,0_targ_16_dist_red/trial15.png,,,0,16,redHorizontal,a,61,19,M,2021-02-19_15h23.45.077,exp11,2020.2.6,MacIntel,60,,,,,,,,,,,
,,,,,,,,,,,,,,p,1,0.942,space,0.254,0,126,126,45,1,3_dist_red/trial21.png,,,1,3,redHorizontal,p,61,19,M,2021-02-19_15h23.45.077,exp11,2020.2.6,MacIntel,60,,,,,,,,,,,
,,,,,,,,,,,,,,p,1,1.029,space,0.139,0,127,127,17,1,0_dist_red/trial18.png,,,1,0,redHorizontal,p,61,19,M,2021-02-19_15h23.45.077,exp11,2020.2.6,MacIntel,60,,,,,,,,,,,
,,,,,,,,,,,,,,p,1,0.399,space,0.189,0,128,128,20,1,0_dist_red/trial21.png,,,1,0,redHorizontal,p,61,19,M,2021-02-19_15h23.45.077,exp11,2020.2.6,MacIntel,60,,,,,,,,,,,
,,,,,,,,,,,,,,a,1,0.628,space,0.206,0,129,129,173,1,0_targ_10_dist_red/trial24.png,,,0,10,redHorizontal,a,61,19,M,2021-02-19_15h23.45.077,exp11,2020.2.6,MacIntel,60,,,,,,,,,,,
,,,,,,,,,,,,,,a,1,0.645,space,0.188,0,130,130,129,1,0_targ_4_dist_red/trial5.png,,,0,4,redHorizontal,a,61,19,M,2021-02-19_15h23.45.077,exp11,2020.2.6,MacIntel,60,,,,,,,,,,,
,,,,,,,,,,,,,,a,0,0.595,space,0.386,0,131,131,23,1,0_dist_red/trial24.png,,,1,0,redHorizontal,p,61,19,M,2021-02-19_15h23.45.077,exp11,2020.2.6,MacIntel,60,,,,,,,,,,,
,,,,,,,,,,,,,,p,1,1.409,space,0.312,0,132,132,85,1,15_dist_red/trial11.png,,,1,15,redHorizontal,p,61,19,M,2021-02-19_15h23.45.077,exp11,2020.2.6,MacIntel,60,,,,,,,,,,,
,,,,,,,,,,,,,,a,1,1.64,space,0.33,0,133,133,142,1,0_targ_4_dist_red/trial18.png,,,0,4,redHorizontal,a,61,19,M,2021-02-19_15h23.45.077,exp11,2020.2.6,MacIntel,60,,,,,,,,,,,
,,,,,,,,,,,,,,a,1,0.901,space,0.315,0,134,134,187,1,0_targ_16_dist_red/trial13.png,,,0,16,redHorizontal,a,61,19,M,2021-02-19_15h23.45.077,exp11,2020.2.6,MacIntel,60,,,,,,,,,,,
,,,,,,,,,,,,,,p,1,0.695,space,0.299,0,135,135,65,1,9_dist_red/trial16.png,,,1,9,redHorizontal,p,61,19,M,2021-02-19_15h23.45.077,exp11,2020.2.6,MacIntel,60,,,,,,,,,,,
,,,,,,,,,,,,,,p,1,0.571,space,0.242,0,136,136,0,1,0_dist_red/trial1.png,,,1,0,redHorizontal,p,61,19,M,2021-02-19_15h23.45.077,exp11,2020.2.6,MacIntel,60,,,,,,,,,,,
,,,,,,,,,,,,,,a,1,1.375,space,0.206,0,137,137,116,1,0_targ_1_dist_red/trial17.png,,,0,1,redHorizontal,a,61,19,M,2021-02-19_15h23.45.077,exp11,2020.2.6,MacIntel,60,,,,,,,,,,,
,,,,,,,,,,,,,,p,1,0.512,space,0.194,0,138,138,24,1,0_dist_red/trial25.png,,,1,0,redHorizontal,p,61,19,M,2021-02-19_15h23.45.077,exp11,2020.2.6,MacIntel,60,,,,,,,,,,,
,,,,,,,,,,,,,,a,1,0.7,space,0.257,0,139,139,119,1,0_targ_1_dist_red/trial20.png,,,0,1,redHorizontal,a,61,19,M,2021-02-19_15h23.45.077,exp11,2020.2.6,MacIntel,60,,,,,,,,,,,
,,,,,,,,,,,,,,p,1,0.491,space,0.188,0,140,140,16,1,0_dist_red/trial17.png,,,1,0,redHorizontal,p,61,19,M,2021-02-19_15h23.45.077,exp11,2020.2.6,MacIntel,60,,,,,,,,,,,
,,,,,,,,,,,,,,a,1,0.611,space,0.176,0,141,141,124,1,0_targ_1_dist_red/trial25.png,,,0,1,redHorizontal,a,61,19,M,2021-02-19_15h23.45.077,exp11,2020.2.6,MacIntel,60,,,,,,,,,,,
,,,,,,,,,,,,,,p,1,0.845,space,0.305,0,142,142,93,1,15_dist_red/trial19.png,,,1,15,redHorizontal,p,61,19,M,2021-02-19_15h23.45.077,exp11,2020.2.6,MacIntel,60,,,,,,,,,,,
,,,,,,,,,,,,,,p,1,0.978,space,0.205,0,143,143,91,1,15_dist_red/trial17.png,,,1,15,redHorizontal,p,61,19,M,2021-02-19_15h23.45.077,exp11,2020.2.6,MacIntel,60,,,,,,,,,,,
,,,,,,,,,,,,,,p,1,0.504,space,0.224,0,144,144,19,1,0_dist_red/trial20.png,,,1,0,redHorizontal,p,61,19,M,2021-02-19_15h23.45.077,exp11,2020.2.6,MacIntel,60,,,,,,,,,,,
,,,,,,,,,,,,,,p,1,0.76,space,0.189,0,145,145,31,1,3_dist_red/trial7.png,,,1,3,redHorizontal,p,61,19,M,2021-02-19_15h23.45.077,exp11,2020.2.6,MacIntel,60,,,,,,,,,,,
,,,,,,,,,,,,,,a,1,0.559,space,0.195,0,146,146,171,1,0_targ_10_dist_red/trial22.png,,,0,10,redHorizontal,a,61,19,M,2021-02-19_15h23.45.077,exp11,2020.2.6,MacIntel,60,,,,,,,,,,,
,,,,,,,,,,,,,,p,1,0.484,space,0.307,0,147,147,10,1,0_dist_red/trial11.png,,,1,0,redHorizontal,p,61,19,M,2021-02-19_15h23.45.077,exp11,2020.2.6,MacIntel,60,,,,,,,,,,,
,,,,,,,,,,,,,,a,1,0.827,space,0.194,0,148,148,168,1,0_targ_10_dist_red/trial19.png,,,0,10,redHorizontal,a,61,19,M,2021-02-19_15h23.45.077,exp11,2020.2.6,MacIntel,60,,,,,,,,,,,
,,,,,,,,,,,,,,p,1,1.977,space,0.139,0,149,149,41,1,3_dist_red/trial17.png,,,1,3,redHorizontal,p,61,19,M,2021-02-19_15h23.45.077,exp11,2020.2.6,MacIntel,60,,,,,,,,,,,
,,,,,,,,,,,,,,a,1,0.783,space,0.17,0,150,150,153,1,0_targ_10_dist_red/trial4.png,,,0,10,redHorizontal,a,61,19,M,2021-02-19_15h23.45.077,exp11,2020.2.6,MacIntel,60,,,,,,,,,,,
,,,,,,,,,,,,,,a,1,0.727,space,1.574,0,151,151,110,1,0_targ_1_dist_red/trial11.png,,,0,1,redHorizontal,a,61,19,M,2021-02-19_15h23.45.077,exp11,2020.2.6,MacIntel,60,,,,,,,,,,,
,,,,,,,,,,,,,,p,1,0.992,space,0.097,0,152,152,28,1,3_dist_red/trial4.png,,,1,3,redHorizontal,p,61,19,M,2021-02-19_15h23.45.077,exp11,2020.2.6,MacIntel,60,,,,,,,,,,,
,,,,,,,,,,,,,,a,1,0.821,space,0.155,0,153,153,193,1,0_targ_16_dist_red/trial19.png,,,0,16,redHorizontal,a,61,19,M,2021-02-19_15h23.45.077,exp11,2020.2.6,MacIntel,60,,,,,,,,,,,
,,,,,,,,,,,,,,p,1,0.751,space,0.47,0,154,154,92,1,15_dist_red/trial18.png,,,1,15,redHorizontal,p,61,19,M,2021-02-19_15h23.45.077,exp11,2020.2.6,MacIntel,60,,,,,,,,,,,
,,,,,,,,,,,,,,p,1,1.917,space,0.43,0,155,155,60,1,9_dist_red/trial11.png,,,1,9,redHorizontal,p,61,19,M,2021-02-19_15h23.45.077,exp11,2020.2.6,MacIntel,60,,,,,,,,,,,
,,,,,,,,,,,,,,a,1,1.009,space,0.339,0,156,156,150,1,0_targ_10_dist_red/trial1.png,,,0,10,redHorizontal,a,61,19,M,2021-02-19_15h23.45.077,exp11,2020.2.6,MacIntel,60,,,,,,,,,,,
,,,,,,,,,,,,,,a,1,1.185,space,0.172,0,157,157,113,1,0_targ_1_dist_red/trial14.png,,,0,1,redHorizontal,a,61,19,M,2021-02-19_15h23.45.077,exp11,2020.2.6,MacIntel,60,,,,,,,,,,,
,,,,,,,,,,,,,,a,1,0.467,space,0.182,0,158,158,121,1,0_targ_1_dist_red/trial22.png,,,0,1,redHorizontal,a,61,19,M,2021-02-19_15h23.45.077,exp11,2020.2.6,MacIntel,60,,,,,,,,,,,
,,,,,,,,,,,,,,p,1,0.789,space,0.24,0,159,159,99,1,15_dist_red/trial25.png,,,1,15,redHorizontal,p,61,19,M,2021-02-19_15h23.45.077,exp11,2020.2.6,MacIntel,60,,,,,,,,,,,
,,,,,,,,,,,,,,p,1,0.563,space,0.128,0,160,160,48,1,3_dist_red/trial24.png,,,1,3,redHorizontal,p,61,19,M,2021-02-19_15h23.45.077,exp11,2020.2.6,MacIntel,60,,,,,,,,,,,
,,,,,,,,,,,,,,p,1,0.642,space,0.389,0,161,161,1,1,0_dist_red/trial2.png,,,1,0,redHorizontal,p,61,19,M,2021-02-19_15h23.45.077,exp11,2020.2.6,MacIntel,60,,,,,,,,,,,
,,,,,,,,,,,,,,p,1,0.797,space,0.474,0,162,162,74,1,9_dist_red/trial25.png,,,1,9,redHorizontal,p,61,19,M,2021-02-19_15h23.45.077,exp11,2020.2.6,MacIntel,60,,,,,,,,,,,
,,,,,,,,,,,,,,a,1,0.634,space,0.204,0,163,163,112,1,0_targ_1_dist_red/trial13.png,,,0,1,redHorizontal,a,61,19,M,2021-02-19_15h23.45.077,exp11,2020.2.6,MacIntel,60,,,,,,,,,,,
,,,,,,,,,,,,,,a,1,1.357,space,0.14,0,164,164,138,1,0_targ_4_dist_red/trial14.png,,,0,4,redHorizontal,a,61,19,M,2021-02-19_15h23.45.077,exp11,2020.2.6,MacIntel,60,,,,,,,,,,,
,,,,,,,,,,,,,,p,1,0.642,space,0.121,0,165,165,98,1,15_dist_red/trial24.png,,,1,15,redHorizontal,p,61,19,M,2021-02-19_15h23.45.077,exp11,2020.2.6,MacIntel,60,,,,,,,,,,,
,,,,,,,,,,,,,,a,1,1.402,space,0.287,0,166,166,161,1,0_targ_10_dist_red/trial12.png,,,0,10,redHorizontal,a,61,19,M,2021-02-19_15h23.45.077,exp11,2020.2.6,MacIntel,60,,,,,,,,,,,
,,,,,,,,,,,,,,p,1,0.68,space,0.126,0,167,167,89,1,15_dist_red/trial15.png,,,1,15,redHorizontal,p,61,19,M,2021-02-19_15h23.45.077,exp11,2020.2.6,MacIntel,60,,,,,,,,,,,
,,,,,,,,,,,,,,a,1,0.942,space,0.118,0,168,168,104,1,0_targ_1_dist_red/trial5.png,,,0,1,redHorizontal,a,61,19,M,2021-02-19_15h23.45.077,exp11,2020.2.6,MacIntel,60,,,,,,,,,,,
,,,,,,,,,,,,,,a,1,1.123,space,0.121,0,169,169,177,1,0_targ_16_dist_red/trial3.png,,,0,16,redHorizontal,a,61,19,M,2021-02-19_15h23.45.077,exp11,2020.2.6,MacIntel,60,,,,,,,,,,,
,,,,,,,,,,,,,,a,1,0.696,space,0.154,0,170,170,194,1,0_targ_16_dist_red/trial20.png,,,0,16,redHorizontal,a,61,19,M,2021-02-19_15h23.45.077,exp11,2020.2.6,MacIntel,60,,,,,,,,,,,
,,,,,,,,,,,,,,p,1,0.575,space,0.112,0,171,171,83,1,15_dist_red/trial9.png,,,1,15,redHorizontal,p,61,19,M,2021-02-19_15h23.45.077,exp11,2020.2.6,MacIntel,60,,,,,,,,,,,
,,,,,,,,,,,,,,p,1,1.127,space,0.075,0,172,172,95,1,15_dist_red/trial21.png,,,1,15,redHorizontal,p,61,19,M,2021-02-19_15h23.45.077,exp11,2020.2.6,MacIntel,60,,,,,,,,,,,
,,,,,,,,,,,,,,p,1,3.543,space,0.243,0,173,173,54,1,9_dist_red/trial5.png,,,1,9,redHorizontal,p,61,19,M,2021-02-19_15h23.45.077,exp11,2020.2.6,MacIntel,60,,,,,,,,,,,
,,,,,,,,,,,,,,a,1,4.213,space,0.422,0,174,174,156,1,0_targ_10_dist_red/trial7.png,,,0,10,redHorizontal,a,61,19,M,2021-02-19_15h23.45.077,exp11,2020.2.6,MacIntel,60,,,,,,,,,,,
,,,,,,,,,,,,,,p,1,0.618,space,0.19,0,175,175,96,1,15_dist_red/trial22.png,,,1,15,redHorizontal,p,61,19,M,2021-02-19_15h23.45.077,exp11,2020.2.6,MacIntel,60,,,,,,,,,,,
,,,,,,,,,,,,,,p,1,0.594,space,0.372,0,176,176,69,1,9_dist_red/trial20.png,,,1,9,redHorizontal,p,61,19,M,2021-02-19_15h23.45.077,exp11,2020.2.6,MacIntel,60,,,,,,,,,,,
,,,,,,,,,,,,,,p,1,0.606,space,0.31,0,177,177,49,1,3_dist_red/trial25.png,,,1,3,redHorizontal,p,61,19,M,2021-02-19_15h23.45.077,exp11,2020.2.6,MacIntel,60,,,,,,,,,,,
,,,,,,,,,,,,,,a,1,1.834,space,0.26,0,178,178,164,1,0_targ_10_dist_red/trial15.png,,,0,10,redHorizontal,a,61,19,M,2021-02-19_15h23.45.077,exp11,2020.2.6,MacIntel,60,,,,,,,,,,,
,,,,,,,,,,,,,,p,1,0.915,space,0.223,0,179,179,9,1,0_dist_red/trial10.png,,,1,0,redHorizontal,p,61,19,M,2021-02-19_15h23.45.077,exp11,2020.2.6,MacIntel,60,,,,,,,,,,,
,,,,,,,,,,,,,,a,1,1.111,space,0.208,0,180,180,118,1,0_targ_1_dist_red/trial19.png,,,0,1,redHorizontal,a,61,19,M,2021-02-19_15h23.45.077,exp11,2020.2.6,MacIntel,60,,,,,,,,,,,
,,,,,,,,,,,,,,a,1,0.76,space,0.154,0,181,181,184,1,0_targ_16_dist_red/trial10.png,,,0,16,redHorizontal,a,61,19,M,2021-02-19_15h23.45.077,exp11,2020.2.6,MacIntel,60,,,,,,,,,,,
,,,,,,,,,,,,,,a,1,0.994,space,0.494,0,182,182,197,1,0_targ_16_dist_red/trial23.png,,,0,16,redHorizontal,a,61,19,M,2021-02-19_15h23.45.077,exp11,2020.2.6,MacIntel,60,,,,,,,,,,,
,,,,,,,,,,,,,,p,0,0.661,space,2.791,0,183,183,135,1,0_targ_4_dist_red/trial11.png,,,0,4,redHorizontal,a,61,19,M,2021-02-19_15h23.45.077,exp11,2020.2.6,MacIntel,60,,,,,,,,,,,
,,,,,,,,,,,,,,p,1,2.753,space,0.153,0,184,184,76,1,15_dist_red/trial2.png,,,1,15,redHorizontal,p,61,19,M,2021-02-19_15h23.45.077,exp11,2020.2.6,MacIntel,60,,,,,,,,,,,
,,,,,,,,,,,,,,p,1,0.726,space,0.27,0,185,185,71,1,9_dist_red/trial22.png,,,1,9,redHorizontal,p,61,19,M,2021-02-19_15h23.45.077,exp11,2020.2.6,MacIntel,60,,,,,,,,,,,
,,,,,,,,,,,,,,a,1,0.58,space,0.178,0,186,186,117,1,0_targ_1_dist_red/trial18.png,,,0,1,redHorizontal,a,61,19,M,2021-02-19_15h23.45.077,exp11,2020.2.6,MacIntel,60,,,,,,,,,,,
,,,,,,,,,,,,,,a,1,0.969,space,0.14,0,187,187,147,1,0_targ_4_dist_red/trial23.png,,,0,4,redHorizontal,a,61,19,M,2021-02-19_15h23.45.077,exp11,2020.2.6,MacIntel,60,,,,,,,,,,,
,,,,,,,,,,,,,,a,1,1.146,space,0.142,0,188,188,114,1,0_targ_1_dist_red/trial15.png,,,0,1,redHorizontal,a,61,19,M,2021-02-19_15h23.45.077,exp11,2020.2.6,MacIntel,60,,,,,,,,,,,
,,,,,,,,,,,,,,a,1,0.608,space,0.124,0,189,189,126,1,0_targ_4_dist_red/trial2.png,,,0,4,redHorizontal,a,61,19,M,2021-02-19_15h23.45.077,exp11,2020.2.6,MacIntel,60,,,,,,,,,,,
,,,,,,,,,,,,,,p,1,0.478,space,0.191,0,190,190,21,1,0_dist_red/trial22.png,,,1,0,redHorizontal,p,61,19,M,2021-02-19_15h23.45.077,exp11,2020.2.6,MacIntel,60,,,,,,,,,,,
,,,,,,,,,,,,,,p,1,1.077,space,0.097,0,191,191,42,1,3_dist_red/trial18.png,,,1,3,redHorizontal,p,61,19,M,2021-02-19_15h23.45.077,exp11,2020.2.6,MacIntel,60,,,,,,,,,,,
,,,,,,,,,,,,,,a,1,2.917,space,5.891,0,192,192,191,1,0_targ_16_dist_red/trial17.png,,,0,16,redHorizontal,a,61,19,M,2021-02-19_15h23.45.077,exp11,2020.2.6,MacIntel,60,,,,,,,,,,,
,,,,,,,,,,,,,,p,1,2.534,space,0.435,0,193,193,53,1,9_dist_red/trial4.png,,,1,9,redHorizontal,p,61,19,M,2021-02-19_15h23.45.077,exp11,2020.2.6,MacIntel,60,,,,,,,,,,,
,,,,,,,,,,,,,,p,1,0.442,space,0.105,0,194,194,38,1,3_dist_red/trial14.png,,,1,3,redHorizontal,p,61,19,M,2021-02-19_15h23.45.077,exp11,2020.2.6,MacIntel,60,,,,,,,,,,,
,,,,,,,,,,,,,,p,1,0.448,space,0.157,0,195,195,63,1,9_dist_red/trial14.png,,,1,9,redHorizontal,p,61,19,M,2021-02-19_15h23.45.077,exp11,2020.2.6,MacIntel,60,,,,,,,,,,,
,,,,,,,,,,,,,,a,1,0.533,space,0.156,0,196,196,139,1,0_targ_4_dist_red/trial15.png,,,0,4,redHorizontal,a,61,19,M,2021-02-19_15h23.45.077,exp11,2020.2.6,MacIntel,60,,,,,,,,,,,
,,,,,,,,,,,,,,p,1,0.765,space,0.088,0,197,197,50,1,9_dist_red/trial1.png,,,1,9,redHorizontal,p,61,19,M,2021-02-19_15h23.45.077,exp11,2020.2.6,MacIntel,60,,,,,,,,,,,
,,,,,,,,,,,,,,p,1,0.545,space,0.138,0,198,198,5,1,0_dist_red/trial6.png,,,1,0,redHorizontal,p,61,19,M,2021-02-19_15h23.45.077,exp11,2020.2.6,MacIntel,60,,,,,,,,,,,
,,,,,,,,,,,,,,p,1,0.529,space,0.146,0,199,199,22,1,0_dist_red/trial23.png,,,1,0,redHorizontal,p,61,19,M,2021-02-19_15h23.45.077,exp11,2020.2.6,MacIntel,60,,,,,,,,,,,
,,,,,,,,,,,,,,,,,,,,,,,,,,,,,,,61,19,M,2021-02-19_15h23.45.077,exp11,2020.2.6,MacIntel,60,0,0,0,1,1,conRed.xlsx,red horizontal,Look for red horizontal bar (target) and indicate if it is present or absent in the array. If red horizontal target is present press 'p' and if absent press 'a'. Press SPACE to start.,,,
,,,,,,,,,,space,28.765,space,1.464,a,1,1.869,space,0.86,0,0,0,144,1,0_targ_4_dist_green/trial20.png,,,0,4,greenverival,a,61,19,M,2021-02-19_15h23.45.077,exp11,2020.2.6,MacIntel,60,,,,,,,,,,,
,,,,,,,,,,,,,,a,1,1.11,space,0.113,0,1,1,179,1,0_targ_16_dist_green/trial5.png,,,0,16,greenverival,a,61,19,M,2021-02-19_15h23.45.077,exp11,2020.2.6,MacIntel,60,,,,,,,,,,,
,,,,,,,,,,,,,,a,1,0.528,space,0.715,0,2,2,147,1,0_targ_4_dist_green/trial23.png,,,0,4,greenverival,a,61,19,M,2021-02-19_15h23.45.077,exp11,2020.2.6,MacIntel,60,,,,,,,,,,,
,,,,,,,,,,,,,,a,1,0.558,space,0.355,0,3,3,169,1,0_targ_10_dist_green/trial20.png,,,0,10,greenverival,a,61,19,M,2021-02-19_15h23.45.077,exp11,2020.2.6,MacIntel,60,,,,,,,,,,,
,,,,,,,,,,,,,,a,1,0.425,space,0.302,0,4,4,115,1,0_targ_1_dist_green/trial6.png,,,0,1,greenverival,a,61,19,M,2021-02-19_15h23.45.077,exp11,2020.2.6,MacIntel,60,,,,,,,,,,,
,,,,,,,,,,,,,,p,1,0.571,space,0.172,0,5,5,61,1,9_dist_green/trial12.png,,,1,9,greenverival,p,61,19,M,2021-02-19_15h23.45.077,exp11,2020.2.6,MacIntel,60,,,,,,,,,,,
,,,,,,,,,,,,,,a,1,0.711,space,0.308,0,6,6,166,1,0_targ_10_dist_green/trial17.png,,,0,10,greenverival,a,61,19,M,2021-02-19_15h23.45.077,exp11,2020.2.6,MacIntel,60,,,,,,,,,,,
,,,,,,,,,,,,,,p,1,0.547,space,0.355,0,7,7,74,1,9_dist_green/trial25.png,,,1,9,greenverival,p,61,19,M,2021-02-19_15h23.45.077,exp11,2020.2.6,MacIntel,60,,,,,,,,,,,
,,,,,,,,,,,,,,p,1,1.16,space,0.263,0,8,8,86,1,15_dist_green/trial12.png,,,1,15,greenverival,p,61,19,M,2021-02-19_15h23.45.077,exp11,2020.2.6,MacIntel,60,,,,,,,,,,,
,,,,,,,,,,,,,,a,1,0.926,space,0.258,0,9,9,127,1,0_targ_4_dist_green/trial3.png,,,0,4,greenverival,a,61,19,M,2021-02-19_15h23.45.077,exp11,2020.2.6,MacIntel,60,,,,,,,,,,,
,,,,,,,,,,,,,,a,1,0.831,space,0.242,0,10,10,194,1,0_targ_16_dist_green/trial20.png,,,0,16,greenverival,a,61,19,M,2021-02-19_15h23.45.077,exp11,2020.2.6,MacIntel,60,,,,,,,,,,,
,,,,,,,,,,,,,,p,1,0.575,space,0.227,0,11,11,3,1,0_dist_green/trial4.png,,,1,0,greenverival,p,61,19,M,2021-02-19_15h23.45.077,exp11,2020.2.6,MacIntel,60,,,,,,,,,,,
,,,,,,,,,,,,,,p,1,0.778,space,0.296,0,12,12,84,1,15_dist_green/trial10.png,,,1,15,greenverival,p,61,19,M,2021-02-19_15h23.45.077,exp11,2020.2.6,MacIntel,60,,,,,,,,,,,
,,,,,,,,,,,,,,a,1,0.691,space,0.253,0,13,13,187,1,0_targ_16_dist_green/trial13.png,,,0,16,greenverival,a,61,19,M,2021-02-19_15h23.45.077,exp11,2020.2.6,MacIntel,60,,,,,,,,,,,
,,,,,,,,,,,,,,a,1,0.675,space,0.243,0,14,14,154,1,0_targ_10_dist_green/trial5.png,,,0,10,greenverival,a,61,19,M,2021-02-19_15h23.45.077,exp11,2020.2.6,MacIntel,60,,,,,,,,,,,
,,,,,,,,,,,,,,p,1,0.508,space,0.188,0,15,15,49,1,3_dist_green/trial25.png,,,1,3,greenverival,p,61,19,M,2021-02-19_15h23.45.077,exp11,2020.2.6,MacIntel,60,,,,,,,,,,,
,,,,,,,,,,,,,,a,1,0.905,space,0.215,0,16,16,173,1,0_targ_10_dist_green/trial24.png,,,0,10,greenverival,a,61,19,M,2021-02-19_15h23.45.077,exp11,2020.2.6,MacIntel,60,,,,,,,,,,,
,,,,,,,,,,,,,,a,1,0.453,space,0.261,0,17,17,151,1,0_targ_10_dist_green/trial2.png,,,0,10,greenverival,a,61,19,M,2021-02-19_15h23.45.077,exp11,2020.2.6,MacIntel,60,,,,,,,,,,,
,,,,,,,,,,,,,,a,1,0.831,space,0.172,0,18,18,121,1,0_targ_1_dist_green/trial22.png,,,0,1,greenverival,a,61,19,M,2021-02-19_15h23.45.077,exp11,2020.2.6,MacIntel,60,,,,,,,,,,,
,,,,,,,,,,,,,,a,1,0.559,space,0.156,0,19,19,108,1,0_targ_1_dist_green/trial9.png,,,0,1,greenverival,a,61,19,M,2021-02-19_15h23.45.077,exp11,2020.2.6,MacIntel,60,,,,,,,,,,,
,,,,,,,,,,,,,,p,1,0.801,space,0.123,0,20,20,78,1,15_dist_green/trial4.png,,,1,15,greenverival,p,61,19,M,2021-02-19_15h23.45.077,exp11,2020.2.6,MacIntel,60,,,,,,,,,,,
,,,,,,,,,,,,,,p,1,0.727,space,0.139,0,21,21,44,1,3_dist_green/trial20.png,,,1,3,greenverival,p,61,19,M,2021-02-19_15h23.45.077,exp11,2020.2.6,MacIntel,60,,,,,,,,,,,
,,,,,,,,,,,,,,p,1,1.037,space,0.16,0,22,22,88,1,15_dist_green/trial14.png,,,1,15,greenverival,p,61,19,M,2021-02-19_15h23.45.077,exp11,2020.2.6,MacIntel,60,,,,,,,,,,,
,,,,,,,,,,,,,,a,1,3.816,space,0.088,0,23,23,184,1,0_targ_16_dist_green/trial10.png,,,0,16,greenverival,a,61,19,M,2021-02-19_15h23.45.077,exp11,2020.2.6,MacIntel,60,,,,,,,,,,,
,,,,,,,,,,,,,,p,1,0.829,space,0.125,0,24,24,95,1,15_dist_green/trial21.png,,,1,15,greenverival,p,61,19,M,2021-02-19_15h23.45.077,exp11,2020.2.6,MacIntel,60,,,,,,,,,,,
,,,,,,,,,,,,,,p,1,0.568,space,0.203,0,25,25,45,1,3_dist_green/trial21.png,,,1,3,greenverival,p,61,19,M,2021-02-19_15h23.45.077,exp11,2020.2.6,MacIntel,60,,,,,,,,,,,
,,,,,,,,,,,,,,p,1,0.511,space,0.196,0,26,26,63,1,9_dist_green/trial14.png,,,1,9,greenverival,p,61,19,M,2021-02-19_15h23.45.077,exp11,2020.2.6,MacIntel,60,,,,,,,,,,,
,,,,,,,,,,,,,,p,1,0.492,space,0.205,0,27,27,31,1,3_dist_green/trial7.png,,,1,3,greenverival,p,61,19,M,2021-02-19_15h23.45.077,exp11,2020.2.6,MacIntel,60,,,,,,,,,,,
,,,,,,,,,,,,,,a,1,0.728,space,0.237,0,28,28,126,1,0_targ_4_dist_green/trial2.png,,,0,4,greenverival,a,61,19,M,2021-02-19_15h23.45.077,exp11,2020.2.6,MacIntel,60,,,,,,,,,,,
,,,,,,,,,,,,,,p,1,0.726,space,0.175,0,29,29,77,1,15_dist_green/trial3.png,,,1,15,greenverival,p,61,19,M,2021-02-19_15h23.45.077,exp11,2020.2.6,MacIntel,60,,,,,,,,,,,
,,,,,,,,,,,,,,a,1,1.348,space,0.321,0,30,30,190,1,0_targ_16_dist_green/trial16.png,,,0,16,greenverival,a,61,19,M,2021-02-19_15h23.45.077,exp11,2020.2.6,MacIntel,60,,,,,,,,,,,
,,,,,,,,,,,,,,p,1,0.646,space,0.157,0,31,31,8,1,0_dist_green/trial9.png,,,1,0,greenverival,p,61,19,M,2021-02-19_15h23.45.077,exp11,2020.2.6,MacIntel,60,,,,,,,,,,,
,,,,,,,,,,,,,,p,1,0.424,space,0.19,0,32,32,43,1,3_dist_green/trial19.png,,,1,3,greenverival,p,61,19,M,2021-02-19_15h23.45.077,exp11,2020.2.6,MacIntel,60,,,,,,,,,,,
,,,,,,,,,,,,,,a,1,0.492,space,0.206,0,33,33,107,1,0_targ_1_dist_green/trial8.png,,,0,1,greenverival,a,61,19,M,2021-02-19_15h23.45.077,exp11,2020.2.6,MacIntel,60,,,,,,,,,,,
,,,,,,,,,,,,,,p,1,0.377,space,0.27,0,34,34,7,1,0_dist_green/trial8.png,,,1,0,greenverival,p,61,19,M,2021-02-19_15h23.45.077,exp11,2020.2.6,MacIntel,60,,,,,,,,,,,
,,,,,,,,,,,,,,p,1,0.48,space,0.14,0,35,35,17,1,0_dist_green/trial18.png,,,1,0,greenverival,p,61,19,M,2021-02-19_15h23.45.077,exp11,2020.2.6,MacIntel,60,,,,,,,,,,,
,,,,,,,,,,,,,,p,1,0.453,space,0.14,0,36,36,0,1,0_dist_green/trial1.png,,,1,0,greenverival,p,61,19,M,2021-02-19_15h23.45.077,exp11,2020.2.6,MacIntel,60,,,,,,,,,,,
,,,,,,,,,,,,,,p,1,0.533,space,0.155,0,37,37,29,1,3_dist_green/trial5.png,,,1,3,greenverival,p,61,19,M,2021-02-19_15h23.45.077,exp11,2020.2.6,MacIntel,60,,,,,,,,,,,
,,,,,,,,,,,,,,a,1,0.601,space,0.21,0,38,38,118,1,0_targ_1_dist_green/trial19.png,,,0,1,greenverival,a,61,19,M,2021-02-19_15h23.45.077,exp11,2020.2.6,MacIntel,60,,,,,,,,,,,
,,,,,,,,,,,,,,a,1,0.728,space,0.192,0,39,39,102,1,0_targ_1_dist_green/trial3.png,,,0,1,greenverival,a,61,19,M,2021-02-19_15h23.45.077,exp11,2020.2.6,MacIntel,60,,,,,,,,,,,
,,,,,,,,,,,,,,p,1,0.508,space,0.223,0,40,40,37,1,3_dist_green/trial13.png,,,1,3,greenverival,p,61,19,M,2021-02-19_15h23.45.077,exp11,2020.2.6,MacIntel,60,,,,,,,,,,,
,,,,,,,,,,,,,,a,1,1.465,space,0.157,0,41,41,104,1,0_targ_1_dist_green/trial5.png,,,0,1,greenverival,a,61,19,M,2021-02-19_15h23.45.077,exp11,2020.2.6,MacIntel,60,,,,,,,,,,,
,,,,,,,,,,,,,,a,1,0.918,space,0.129,0,42,42,119,1,0_targ_1_dist_green/trial20.png,,,0,1,greenverival,a,61,19,M,2021-02-19_15h23.45.077,exp11,2020.2.6,MacIntel,60,,,,,,,,,,,
,,,,,,,,,,,,,,a,1,1.019,space,0.138,0,43,43,188,1,0_targ_16_dist_green/trial14.png,,,0,16,greenverival,a,61,19,M,2021-02-19_15h23.45.077,exp11,2020.2.6,MacIntel,60,,,,,,,,,,,
,,,,,,,,,,,,,,p,1,0.728,space,0.155,0,44,44,10,1,0_dist_green/trial11.png,,,1,0,greenverival,p,61,19,M,2021-02-19_15h23.45.077,exp11,2020.2.6,MacIntel,60,,,,,,,,,,,
,,,,,,,,,,,,,,a,1,2.265,space,0.171,0,45,45,176,1,0_targ_16_dist_green/trial2.png,,,0,16,greenverival,a,61,19,M,2021-02-19_15h23.45.077,exp11,2020.2.6,MacIntel,60,,,,,,,,,,,
,,,,,,,,,,,,,,a,1,1.013,space,0.372,0,46,46,198,1,0_targ_16_dist_green/trial24.png,,,0,16,greenverival,a,61,19,M,2021-02-19_15h23.45.077,exp11,2020.2.6,MacIntel,60,,,,,,,,,,,
,,,,,,,,,,,,,,p,1,0.45,space,0.173,0,47,47,47,1,3_dist_green/trial23.png,,,1,3,greenverival,p,61,19,M,2021-02-19_15h23.45.077,exp11,2020.2.6,MacIntel,60,,,,,,,,,,,
,,,,,,,,,,,,,,a,1,0.935,space,0.155,0,48,48,100,1,0_targ_1_dist_green/trial1.png,,,0,1,greenverival,a,61,19,M,2021-02-19_15h23.45.077,exp11,2020.2.6,MacIntel,60,,,,,,,,,,,
,,,,,,,,,,,,,,p,1,1.061,space,0.144,0,49,49,97,1,15_dist_green/trial23.png,,,1,15,greenverival,p,61,19,M,2021-02-19_15h23.45.077,exp11,2020.2.6,MacIntel,60,,,,,,,,,,,
,,,,,,,,,,,,,,p,1,1.045,space,0.175,0,50,50,98,1,15_dist_green/trial24.png,,,1,15,greenverival,p,61,19,M,2021-02-19_15h23.45.077,exp11,2020.2.6,MacIntel,60,,,,,,,,,,,
,,,,,,,,,,,,,,a,1,0.584,space,0.207,0,51,51,165,1,0_targ_10_dist_green/trial16.png,,,0,10,greenverival,a,61,19,M,2021-02-19_15h23.45.077,exp11,2020.2.6,MacIntel,60,,,,,,,,,,,
,,,,,,,,,,,,,,a,1,0.853,space,0.244,0,52,52,162,1,0_targ_10_dist_green/trial13.png,,,0,10,greenverival,a,61,19,M,2021-02-19_15h23.45.077,exp11,2020.2.6,MacIntel,60,,,,,,,,,,,
,,,,,,,,,,,,,,p,1,1.183,space,0.256,0,53,53,81,1,15_dist_green/trial7.png,,,1,15,greenverival,p,61,19,M,2021-02-19_15h23.45.077,exp11,2020.2.6,MacIntel,60,,,,,,,,,,,
,,,,,,,,,,,,,,p,1,0.642,space,0.222,0,54,54,46,1,3_dist_green/trial22.png,,,1,3,greenverival,p,61,19,M,2021-02-19_15h23.45.077,exp11,2020.2.6,MacIntel,60,,,,,,,,,,,
,,,,,,,,,,,,,,p,1,0.51,space,0.155,0,55,55,36,1,3_dist_green/trial12.png,,,1,3,greenverival,p,61,19,M,2021-02-19_15h23.45.077,exp11,2020.2.6,MacIntel,60,,,,,,,,,,,
,,,,,,,,,,,,,,p,1,0.533,space,0.178,0,56,56,72,1,9_dist_green/trial23.png,,,1,9,greenverival,p,61,19,M,2021-02-19_15h23.45.077,exp11,2020.2.6,MacIntel,60,,,,,,,,,,,
,,,,,,,,,,,,,,a,1,0.584,space,0.197,0,57,57,101,1,0_targ_1_dist_green/trial2.png,,,0,1,greenverival,a,61,19,M,2021-02-19_15h23.45.077,exp11,2020.2.6,MacIntel,60,,,,,,,,,,,
,,,,,,,,,,,,,,a,1,0.774,space,0.454,0,58,58,146,1,0_targ_4_dist_green/trial22.png,,,0,4,greenverival,a,61,19,M,2021-02-19_15h23.45.077,exp11,2020.2.6,MacIntel,60,,,,,,,,,,,
,,,,,,,,,,,,,,p,1,0.595,space,0.213,0,59,59,54,1,9_dist_green/trial5.png,,,1,9,greenverival,p,61,19,M,2021-02-19_15h23.45.077,exp11,2020.2.6,MacIntel,60,,,,,,,,,,,
,,,,,,,,,,,,,,a,1,0.785,space,0.176,0,60,60,164,1,0_targ_10_dist_green/trial15.png,,,0,10,greenverival,a,61,19,M,2021-02-19_15h23.45.077,exp11,2020.2.6,MacIntel,60,,,,,,,,,,,
,,,,,,,,,,,,,,p,1,0.559,space,0.158,0,61,61,5,1,0_dist_green/trial6.png,,,1,0,greenverival,p,61,19,M,2021-02-19_15h23.45.077,exp11,2020.2.6,MacIntel,60,,,,,,,,,,,
,,,,,,,,,,,,,,p,0,0.391,space,0.111,0,62,62,105,1,0_targ_1_dist_green/trial6.png,,,0,1,greenverival,a,61,19,M,2021-02-19_15h23.45.077,exp11,2020.2.6,MacIntel,60,,,,,,,,,,,
,,,,,,,,,,,,,,a,1,2.495,space,0.27,0,63,63,153,1,0_targ_10_dist_green/trial4.png,,,0,10,greenverival,a,61,19,M,2021-02-19_15h23.45.077,exp11,2020.2.6,MacIntel,60,,,,,,,,,,,
,,,,,,,,,,,,,,p,1,0.564,space,0.146,0,64,64,92,1,15_dist_green/trial18.png,,,1,15,greenverival,p,61,19,M,2021-02-19_15h23.45.077,exp11,2020.2.6,MacIntel,60,,,,,,,,,,,
,,,,,,,,,,,,,,p,1,0.477,space,0.139,0,65,65,89,1,15_dist_green/trial15.png,,,1,15,greenverival,p,61,19,M,2021-02-19_15h23.45.077,exp11,2020.2.6,MacIntel,60,,,,,,,,,,,
,,,,,,,,,,,,,,a,1,0.613,space,0.197,0,66,66,183,1,0_targ_16_dist_green/trial9.png,,,0,16,greenverival,a,61,19,M,2021-02-19_15h23.45.077,exp11,2020.2.6,MacIntel,60,,,,,,,,,,,
,,,,,,,,,,,,,,p,1,0.475,space,0.147,0,67,67,1,1,0_dist_green/trial2.png,,,1,0,greenverival,p,61,19,M,2021-02-19_15h23.45.077,exp11,2020.2.6,MacIntel,60,,,,,,,,,,,
,,,,,,,,,,,,,,a,1,0.608,space,0.173,0,68,68,137,1,0_targ_4_dist_green/trial13.png,,,0,4,greenverival,a,61,19,M,2021-02-19_15h23.45.077,exp11,2020.2.6,MacIntel,60,,,,,,,,,,,
,,,,,,,,,,,,,,p,1,0.594,space,0.202,0,69,69,20,1,0_dist_green/trial21.png,,,1,0,greenverival,p,61,19,M,2021-02-19_15h23.45.077,exp11,2020.2.6,MacIntel,60,,,,,,,,,,,
,,,,,,,,,,,,,,a,1,0.644,space,0.155,0,70,70,110,1,0_targ_1_dist_green/trial11.png,,,0,1,greenverival,a,61,19,M,2021-02-19_15h23.45.077,exp11,2020.2.6,MacIntel,60,,,,,,,,,,,
,,,,,,,,,,,,,,a,1,0.794,space,0.182,0,71,71,113,1,0_targ_1_dist_green/trial14.png,,,0,1,greenverival,a,61,19,M,2021-02-19_15h23.45.077,exp11,2020.2.6,MacIntel,60,,,,,,,,,,,
,,,,,,,,,,,,,,a,1,0.773,space,0.119,0,72,72,111,1,0_targ_1_dist_green/trial12.png,,,0,1,greenverival,a,61,19,M,2021-02-19_15h23.45.077,exp11,2020.2.6,MacIntel,60,,,,,,,,,,,
,,,,,,,,,,,,,,p,1,0.696,space,0.193,0,73,73,76,1,15_dist_green/trial2.png,,,1,15,greenverival,p,61,19,M,2021-02-19_15h23.45.077,exp11,2020.2.6,MacIntel,60,,,,,,,,,,,
,,,,,,,,,,,,,,a,1,0.64,space,0.168,0,74,74,178,1,0_targ_16_dist_green/trial4.png,,,0,16,greenverival,a,61,19,M,2021-02-19_15h23.45.077,exp11,2020.2.6,MacIntel,60,,,,,,,,,,,
,,,,,,,,,,,,,,p,1,0.578,space,0.139,0,75,75,68,1,9_dist_green/trial19.png,,,1,9,greenverival,p,61,19,M,2021-02-19_15h23.45.077,exp11,2020.2.6,MacIntel,60,,,,,,,,,,,
,,,,,,,,,,,,,,p,1,0.775,space,0.138,0,76,76,19,1,0_dist_green/trial20.png,,,1,0,greenverival,p,61,19,M,2021-02-19_15h23.45.077,exp11,2020.2.6,MacIntel,60,,,,,,,,,,,
,,,,,,,,,,,,,,a,1,0.714,space,0.12,0,77,77,120,1,0_targ_1_dist_green/trial21.png,,,0,1,greenverival,a,61,19,M,2021-02-19_15h23.45.077,exp11,2020.2.6,MacIntel,60,,,,,,,,,,,
,,,,,,,,,,,,,,a,1,0.927,space,0.138,0,78,78,157,1,0_targ_10_dist_green/trial8.png,,,0,10,greenverival,a,61,19,M,2021-02-19_15h23.45.077,exp11,2020.2.6,MacIntel,60,,,,,,,,,,,
,,,,,,,,,,,,,,a,0,1.076,space,2.391,0,79,79,79,1,15_dist_green/trial5.png,,,1,15,greenverival,p,61,19,M,2021-02-19_15h23.45.077,exp11,2020.2.6,MacIntel,60,,,,,,,,,,,
,,,,,,,,,,,,,,a,1,1.675,space,0.349,0,80,80,171,1,0_targ_10_dist_green/trial22.png,,,0,10,greenverival,a,61,19,M,2021-02-19_15h23.45.077,exp11,2020.2.6,MacIntel,60,,,,,,,,,,,
,,,,,,,,,,,,,,p,1,0.527,space,0.194,0,81,81,14,1,0_dist_green/trial15.png,,,1,0,greenverival,p,61,19,M,2021-02-19_15h23.45.077,exp11,2020.2.6,MacIntel,60,,,,,,,,,,,
,,,,,,,,,,,,,,a,1,1.062,space,0.278,0,82,82,182,1,0_targ_16_dist_green/trial8.png,,,0,16,greenverival,a,61,19,M,2021-02-19_15h23.45.077,exp11,2020.2.6,MacIntel,60,,,,,,,,,,,
,,,,,,,,,,,,,,p,1,0.485,space,0.219,0,83,83,23,1,0_dist_green/trial24.png,,,1,0,greenverival,p,61,19,M,2021-02-19_15h23.45.077,exp11,2020.2.6,MacIntel,60,,,,,,,,,,,
,,,,,,,,,,,,,,a,1,0.639,space,0.221,0,84,84,152,1,0_targ_10_dist_green/trial3.png,,,0,10,greenverival,a,61,19,M,2021-02-19_15h23.45.077,exp11,2020.2.6,MacIntel,60,,,,,,,,,,,
,,,,,,,,,,,,,,p,1,2.396,space,0.352,0,85,85,6,1,0_dist_green/trial7.png,,,1,0,greenverival,p,61,19,M,2021-02-19_15h23.45.077,exp11,2020.2.6,MacIntel,60,,,,,,,,,,,
,,,,,,,,,,,,,,p,1,0.547,space,0.249,0,86,86,87,1,15_dist_green/trial13.png,,,1,15,greenverival,p,61,19,M,2021-02-19_15h23.45.077,exp11,2020.2.6,MacIntel,60,,,,,,,,,,,
,,,,,,,,,,,,,,a,1,0.644,space,0.236,0,87,87,148,1,0_targ_4_dist_green/trial24.png,,,0,4,greenverival,a,61,19,M,2021-02-19_15h23.45.077,exp11,2020.2.6,MacIntel,60,,,,,,,,,,,
,,,,,,,,,,,,,,a,1,0.593,space,0.379,0,88,88,116,1,0_targ_1_dist_green/trial17.png,,,0,1,greenverival,a,61,19,M,2021-02-19_15h23.45.077,exp11,2020.2.6,MacIntel,60,,,,,,,,,,,
,,,,,,,,,,,,,,a,1,0.711,space,0.296,0,89,89,155,1,0_targ_10_dist_green/trial6.png,,,0,10,greenverival,a,61,19,M,2021-02-19_15h23.45.077,exp11,2020.2.6,MacIntel,60,,,,,,,,,,,
,,,,,,,,,,,,,,a,1,0.513,space,0.241,0,90,90,103,1,0_targ_1_dist_green/trial4.png,,,0,1,greenverival,a,61,19,M,2021-02-19_15h23.45.077,exp11,2020.2.6,MacIntel,60,,,,,,,,,,,
,,,,,,,,,,,,,,a,1,0.381,space,0.272,0,91,91,131,1,0_targ_4_dist_green/trial7.png,,,0,4,greenverival,a,61,19,M,2021-02-19_15h23.45.077,exp11,2020.2.6,MacIntel,60,,,,,,,,,,,
,,,,,,,,,,,,,,a,1,1.143,space,0.186,0,92,92,122,1,0_targ_1_dist_green/trial23.png,,,0,1,greenverival,a,61,19,M,2021-02-19_15h23.45.077,exp11,2020.2.6,MacIntel,60,,,,,,,,,,,
,,,,,,,,,,,,,,p,1,0.397,space,0.255,0,93,93,9,1,0_dist_green/trial10.png,,,1,0,greenverival,p,61,19,M,2021-02-19_15h23.45.077,exp11,2020.2.6,MacIntel,60,,,,,,,,,,,
,,,,,,,,,,,,,,p,1,0.378,space,0.203,0,94,94,21,1,0_dist_green/trial22.png,,,1,0,greenverival,p,61,19,M,2021-02-19_15h23.45.077,exp11,2020.2.6,MacIntel,60,,,,,,,,,,,
,,,,,,,,,,,,,,a,1,1.191,space,0.212,0,95,95,186,1,0_targ_16_dist_green/trial12.png,,,0,16,greenverival,a,61,19,M,2021-02-19_15h23.45.077,exp11,2020.2.6,MacIntel,60,,,,,,,,,,,
,,,,,,,,,,,,,,p,1,2.795,space,0.226,0,96,96,83,1,15_dist_green/trial9.png,,,1,15,greenverival,p,61,19,M,2021-02-19_15h23.45.077,exp11,2020.2.6,MacIntel,60,,,,,,,,,,,
,,,,,,,,,,,,,,a,1,0.713,space,0.178,0,97,97,117,1,0_targ_1_dist_green/trial18.png,,,0,1,greenverival,a,61,19,M,2021-02-19_15h23.45.077,exp11,2020.2.6,MacIntel,60,,,,,,,,,,,
,,,,,,,,,,,,,,a,1,0.359,space,0.197,0,98,98,114,1,0_targ_1_dist_green/trial15.png,,,0,1,greenverival,a,61,19,M,2021-02-19_15h23.45.077,exp11,2020.2.6,MacIntel,60,,,,,,,,,,,
,,,,,,,,,,,,,,p,1,0.477,space,0.154,0,99,99,62,1,9_dist_green/trial13.png,,,1,9,greenverival,p,61,19,M,2021-02-19_15h23.45.077,exp11,2020.2.6,MacIntel,60,,,,,,,,,,,
,,,,,,,,,,,,,,a,1,1.545,space,0.556,0,100,100,133,1,0_targ_4_dist_green/trial9.png,,,0,4,greenverival,a,61,19,M,2021-02-19_15h23.45.077,exp11,2020.2.6,MacIntel,60,,,,,,,,,,,
,,,,,,,,,,,,,,p,1,0.56,space,0.239,0,101,101,96,1,15_dist_green/trial22.png,,,1,15,greenverival,p,61,19,M,2021-02-19_15h23.45.077,exp11,2020.2.6,MacIntel,60,,,,,,,,,,,
,,,,,,,,,,,,,,p,1,1.027,space,0.473,0,102,102,13,1,0_dist_green/trial14.png,,,1,0,greenverival,p,61,19,M,2021-02-19_15h23.45.077,exp11,2020.2.6,MacIntel,60,,,,,,,,,,,
,,,,,,,,,,,,,,p,1,0.461,space,0.231,0,103,103,18,1,0_dist_green/trial19.png,,,1,0,greenverival,p,61,19,M,2021-02-19_15h23.45.077,exp11,2020.2.6,MacIntel,60,,,,,,,,,,,
,,,,,,,,,,,,,,a,1,0.572,space,0.225,0,104,104,132,1,0_targ_4_dist_green/trial8.png,,,0,4,greenverival,a,61,19,M,2021-02-19_15h23.45.077,exp11,2020.2.6,MacIntel,60,,,,,,,,,,,
,,,,,,,,,,,,,,a,1,1.278,space,0.272,0,105,105,136,1,0_targ_4_dist_green/trial12.png,,,0,4,greenverival,a,61,19,M,2021-02-19_15h23.45.077,exp11,2020.2.6,MacIntel,60,,,,,,,,,,,
,,,,,,,,,,,,,,p,1,0.543,space,0.376,0,106,106,34,1,3_dist_green/trial10.png,,,1,3,greenverival,p,61,19,M,2021-02-19_15h23.45.077,exp11,2020.2.6,MacIntel,60,,,,,,,,,,,
,,,,,,,,,,,,,,a,1,0.728,space,1.362,0,107,107,123,1,0_targ_1_dist_green/trial24.png,,,0,1,greenverival,a,61,19,M,2021-02-19_15h23.45.077,exp11,2020.2.6,MacIntel,60,,,,,,,,,,,
,,,,,,,,,,,,,,p,1,0.686,space,0.32,0,108,108,66,1,9_dist_green/trial17.png,,,1,9,greenverival,p,61,19,M,2021-02-19_15h23.45.077,exp11,2020.2.6,MacIntel,60,,,,,,,,,,,
,,,,,,,,,,,,,,p,1,1.309,space,0.304,0,109,109,48,1,3_dist_green/trial24.png,,,1,3,greenverival,p,61,19,M,2021-02-19_15h23.45.077,exp11,2020.2.6,MacIntel,60,,,,,,,,,,,
,,,,,,,,,,,,,,a,1,0.605,space,0.236,0,110,110,158,1,0_targ_10_dist_green/trial9.png,,,0,10,greenverival,a,61,19,M,2021-02-19_15h23.45.077,exp11,2020.2.6,MacIntel,60,,,,,,,,,,,
,,,,,,,,,,,,,,a,1,0.738,space,0.206,0,111,111,149,1,0_targ_4_dist_green/trial25.png,,,0,4,greenverival,a,61,19,M,2021-02-19_15h23.45.077,exp11,2020.2.6,MacIntel,60,,,,,,,,,,,
,,,,,,,,,,,,,,p,1,0.858,space,0.252,0,112,112,51,1,9_dist_green/trial2.png,,,1,9,greenverival,p,61,19,M,2021-02-19_15h23.45.077,exp11,2020.2.6,MacIntel,60,,,,,,,,,,,
,,,,,,,,,,,,,,p,1,1.095,space,0.575,0,113,113,59,1,9_dist_green/trial10.png,,,1,9,greenverival,p,61,19,M,2021-02-19_15h23.45.077,exp11,2020.2.6,MacIntel,60,,,,,,,,,,,
,,,,,,,,,,,,,,p,1,0.859,space,0.162,0,114,114,30,1,3_dist_green/trial6.png,,,1,3,greenverival,p,61,19,M,2021-02-19_15h23.45.077,exp11,2020.2.6,MacIntel,60,,,,,,,,,,,
,,,,,,,,,,,,,,a,1,0.748,space,0.289,0,115,115,161,1,0_targ_10_dist_green/trial12.png,,,0,10,greenverival,a,61,19,M,2021-02-19_15h23.45.077,exp11,2020.2.6,MacIntel,60,,,,,,,,,,,
,,,,,,,,,,,,,,p,1,0.492,space,0.195,0,116,116,57,1,9_dist_green/trial8.png,,,1,9,greenverival,p,61,19,M,2021-02-19_15h23.45.077,exp11,2020.2.6,MacIntel,60,,,,,,,,,,,
,,,,,,,,,,,,,,a,1,0.973,space,0.272,0,117,117,197,1,0_targ_16_dist_green/trial23.png,,,0,16,greenverival,a,61,19,M,2021-02-19_15h23.45.077,exp11,2020.2.6,MacIntel,60,,,,,,,,,,,
,,,,,,,,,,,,,,p,1,0.765,space,0.205,0,118,118,2,1,0_dist_green/trial3.png,,,1,0,greenverival,p,61,19,M,2021-02-19_15h23.45.077,exp11,2020.2.6,MacIntel,60,,,,,,,,,,,
,,,,,,,,,,,,,,a,1,1.895,space,0.29,0,119,119,193,1,0_targ_16_dist_green/trial19.png,,,0,16,greenverival,a,61,19,M,2021-02-19_15h23.45.077,exp11,2020.2.6,MacIntel,60,,,,,,,,,,,
,,,,,,,,,,,,,,a,1,1.292,space,0.218,0,120,120,199,1,0_targ_16_dist_green/trial25.png,,,0,16,greenverival,a,61,19,M,2021-02-19_15h23.45.077,exp11,2020.2.6,MacIntel,60,,,,,,,,,,,
,,,,,,,,,,,,,,p,1,1.459,space,0.344,0,121,121,99,1,15_dist_green/trial25.png,,,1,15,greenverival,p,61,19,M,2021-02-19_15h23.45.077,exp11,2020.2.6,MacIntel,60,,,,,,,,,,,
,,,,,,,,,,,,,,a,1,1.979,space,0.511,0,122,122,135,1,0_targ_4_dist_green/trial11.png,,,0,4,greenverival,a,61,19,M,2021-02-19_15h23.45.077,exp11,2020.2.6,MacIntel,60,,,,,,,,,,,
,,,,,,,,,,,,,,a,1,3.386,space,0.374,0,123,123,143,1,0_targ_4_dist_green/trial19.png,,,0,4,greenverival,a,61,19,M,2021-02-19_15h23.45.077,exp11,2020.2.6,MacIntel,60,,,,,,,,,,,
,,,,,,,,,,,,,,p,1,1.042,space,0.156,0,124,124,52,1,9_dist_green/trial3.png,,,1,9,greenverival,p,61,19,M,2021-02-19_15h23.45.077,exp11,2020.2.6,MacIntel,60,,,,,,,,,,,
,,,,,,,,,,,,,,a,1,0.561,space,0.275,0,125,125,109,1,0_targ_1_dist_green/trial10.png,,,0,1,greenverival,a,61,19,M,2021-02-19_15h23.45.077,exp11,2020.2.6,MacIntel,60,,,,,,,,,,,
,,,,,,,,,,,,,,p,1,0.462,space,0.212,0,126,126,67,1,9_dist_green/trial18.png,,,1,9,greenverival,p,61,19,M,2021-02-19_15h23.45.077,exp11,2020.2.6,MacIntel,60,,,,,,,,,,,
,,,,,,,,,,,,,,p,1,0.626,space,0.168,0,127,127,53,1,9_dist_green/trial4.png,,,1,9,greenverival,p,61,19,M,2021-02-19_15h23.45.077,exp11,2020.2.6,MacIntel,60,,,,,,,,,,,
,,,,,,,,,,,,,,a,1,2.307,space,0.132,0,128,128,181,1,0_targ_16_dist_green/trial7.png,,,0,16,greenverival,a,61,19,M,2021-02-19_15h23.45.077,exp11,2020.2.6,MacIntel,60,,,,,,,,,,,
,,,,,,,,,,,,,,a,1,2.273,space,0.195,0,129,129,138,1,0_targ_4_dist_green/trial14.png,,,0,4,greenverival,a,61,19,M,2021-02-19_15h23.45.077,exp11,2020.2.6,MacIntel,60,,,,,,,,,,,
,,,,,,,,,,,,,,p,1,0.662,space,0.274,0,130,130,60,1,9_dist_green/trial11.png,,,1,9,greenverival,p,61,19,M,2021-02-19_15h23.45.077,exp11,2020.2.6,MacIntel,60,,,,,,,,,,,
,,,,,,,,,,,,,,a,1,0.661,space,0.256,0,131,131,156,1,0_targ_10_dist_green/trial7.png,,,0,10,greenverival,a,61,19,M,2021-02-19_15h23.45.077,exp11,2020.2.6,MacIntel,60,,,,,,,,,,,
,,,,,,,,,,,,,,a,1,1.007,space,0.371,0,132,132,150,1,0_targ_10_dist_green/trial1.png,,,0,10,greenverival,a,61,19,M,2021-02-19_15h23.45.077,exp11,2020.2.6,MacIntel,60,,,,,,,,,,,
,,,,,,,,,,,,,,p,1,0.563,space,0.177,0,133,133,27,1,3_dist_green/trial3.png,,,1,3,greenverival,p,61,19,M,2021-02-19_15h23.45.077,exp11,2020.2.6,MacIntel,60,,,,,,,,,,,
,,,,,,,,,,,,,,a,1,0.949,space,0.274,0,134,134,185,1,0_targ_16_dist_green/trial11.png,,,0,16,greenverival,a,61,19,M,2021-02-19_15h23.45.077,exp11,2020.2.6,MacIntel,60,,,,,,,,,,,
,,,,,,,,,,,,,,p,1,0.541,space,0.209,0,135,135,58,1,9_dist_green/trial9.png,,,1,9,greenverival,p,61,19,M,2021-02-19_15h23.45.077,exp11,2020.2.6,MacIntel,60,,,,,,,,,,,
,,,,,,,,,,,,,,p,1,0.519,space,0.193,0,136,136,24,1,0_dist_green/trial25.png,,,1,0,greenverival,p,61,19,M,2021-02-19_15h23.45.077,exp11,2020.2.6,MacIntel,60,,,,,,,,,,,
,,,,,,,,,,,,,,p,1,0.644,space,0.339,0,137,137,56,1,9_dist_green/trial7.png,,,1,9,greenverival,p,61,19,M,2021-02-19_15h23.45.077,exp11,2020.2.6,MacIntel,60,,,,,,,,,,,
,,,,,,,,,,,,,,a,1,0.578,space,0.19,0,138,138,125,1,0_targ_4_dist_green/trial1.png,,,0,4,greenverival,a,61,19,M,2021-02-19_15h23.45.077,exp11,2020.2.6,MacIntel,60,,,,,,,,,,,
,,,,,,,,,,,,,,p,1,0.459,space,0.196,0,139,139,91,1,15_dist_green/trial17.png,,,1,15,greenverival,p,61,19,M,2021-02-19_15h23.45.077,exp11,2020.2.6,MacIntel,60,,,,,,,,,,,
,,,,,,,,,,,,,,p,1,0.699,space,0.153,0,140,140,90,1,15_dist_green/trial16.png,,,1,15,greenverival,p,61,19,M,2021-02-19_15h23.45.077,exp11,2020.2.6,MacIntel,60,,,,,,,,,,,
,,,,,,,,,,,,,,p,1,0.66,space,0.154,0,141,141,69,1,9_dist_green/trial20.png,,,1,9,greenverival,p,61,19,M,2021-02-19_15h23.45.077,exp11,2020.2.6,MacIntel,60,,,,,,,,,,,
,,,,,,,,,,,,,,p,1,0.899,space,0.118,0,142,142,55,1,9_dist_green/trial6.png,,,1,9,greenverival,p,61,19,M,2021-02-19_15h23.45.077,exp11,2020.2.6,MacIntel,60,,,,,,,,,,,
,,,,,,,,,,,,,,p,1,0.646,space,0.113,0,143,143,82,1,15_dist_green/trial8.png,,,1,15,greenverival,p,61,19,M,2021-02-19_15h23.45.077,exp11,2020.2.6,MacIntel,60,,,,,,,,,,,
,,,,,,,,,,,,,,p,1,0.965,space,0.132,0,144,144,75,1,15_dist_green/trial1.png,,,1,15,greenverival,p,61,19,M,2021-02-19_15h23.45.077,exp11,2020.2.6,MacIntel,60,,,,,,,,,,,
,,,,,,,,,,,,,,a,1,0.72,space,0.209,0,145,145,172,1,0_targ_10_dist_green/trial23.png,,,0,10,greenverival,a,61,19,M,2021-02-19_15h23.45.077,exp11,2020.2.6,MacIntel,60,,,,,,,,,,,
,,,,,,,,,,,,,,a,1,0.719,space,0.223,0,146,146,175,1,0_targ_16_dist_green/trial1.png,,,0,16,greenverival,a,61,19,M,2021-02-19_15h23.45.077,exp11,2020.2.6,MacIntel,60,,,,,,,,,,,
,,,,,,,,,,,,,,a,1,0.765,space,0.297,0,147,147,145,1,0_targ_4_dist_green/trial21.png,,,0,4,greenverival,a,61,19,M,2021-02-19_15h23.45.077,exp11,2020.2.6,MacIntel,60,,,,,,,,,,,
,,,,,,,,,,,,,,a,1,0.839,space,0.168,0,148,148,192,1,0_targ_16_dist_green/trial18.png,,,0,16,greenverival,a,61,19,M,2021-02-19_15h23.45.077,exp11,2020.2.6,MacIntel,60,,,,,,,,,,,
,,,,,,,,,,,,,,p,1,2.055,space,0.13,0,149,149,33,1,3_dist_green/trial9.png,,,1,3,greenverival,p,61,19,M,2021-02-19_15h23.45.077,exp11,2020.2.6,MacIntel,60,,,,,,,,,,,
,,,,,,,,,,,,,,a,1,0.608,space,0.188,0,150,150,163,1,0_targ_10_dist_green/trial14.png,,,0,10,greenverival,a,61,19,M,2021-02-19_15h23.45.077,exp11,2020.2.6,MacIntel,60,,,,,,,,,,,
,,,,,,,,,,,,,,p,1,2.631,space,0.172,0,151,151,50,1,9_dist_green/trial1.png,,,1,9,greenverival,p,61,19,M,2021-02-19_15h23.45.077,exp11,2020.2.6,MacIntel,60,,,,,,,,,,,
,,,,,,,,,,,,,,a,1,0.604,space,0.137,0,152,152,128,1,0_targ_4_dist_green/trial4.png,,,0,4,greenverival,a,61,19,M,2021-02-19_15h23.45.077,exp11,2020.2.6,MacIntel,60,,,,,,,,,,,
,,,,,,,,,,,,,,p,1,2.796,space,0.41,0,153,153,32,1,3_dist_green/trial8.png,,,1,3,greenverival,p,61,19,M,2021-02-19_15h23.45.077,exp11,2020.2.6,MacIntel,60,,,,,,,,,,,
,,,,,,,,,,,,,,p,1,0.457,space,0.207,0,154,154,42,1,3_dist_green/trial18.png,,,1,3,greenverival,p,61,19,M,2021-02-19_15h23.45.077,exp11,2020.2.6,MacIntel,60,,,,,,,,,,,
,,,,,,,,,,,,,,p,1,0.478,space,0.19,0,155,155,65,1,9_dist_green/trial16.png,,,1,9,greenverival,p,61,19,M,2021-02-19_15h23.45.077,exp11,2020.2.6,MacIntel,60,,,,,,,,,,,
,,,,,,,,,,,,,,p,1,0.545,space,0.204,0,156,156,85,1,15_dist_green/trial11.png,,,1,15,greenverival,p,61,19,M,2021-02-19_15h23.45.077,exp11,2020.2.6,MacIntel,60,,,,,,,,,,,
,,,,,,,,,,,,,,a,1,0.61,space,0.139,0,157,157,174,1,0_targ_10_dist_green/trial25.png,,,0,10,greenverival,a,61,19,M,2021-02-19_15h23.45.077,exp11,2020.2.6,MacIntel,60,,,,,,,,,,,
,,,,,,,,,,,,,,a,1,0.896,space,0.149,0,158,158,168,1,0_targ_10_dist_green/trial19.png,,,0,10,greenverival,a,61,19,M,2021-02-19_15h23.45.077,exp11,2020.2.6,MacIntel,60,,,,,,,,,,,
,,,,,,,,,,,,,,p,1,0.556,space,0.146,0,159,159,12,1,0_dist_green/trial13.png,,,1,0,greenverival,p,61,19,M,2021-02-19_15h23.45.077,exp11,2020.2.6,MacIntel,60,,,,,,,,,,,
,,,,,,,,,,,,,,p,1,0.487,space,0.151,0,160,160,73,1,9_dist_green/trial24.png,,,1,9,greenverival,p,61,19,M,2021-02-19_15h23.45.077,exp11,2020.2.6,MacIntel,60,,,,,,,,,,,
,,,,,,,,,,,,,,p,1,0.511,space,0.106,0,161,161,25,1,3_dist_green/trial1.png,,,1,3,greenverival,p,61,19,M,2021-02-19_15h23.45.077,exp11,2020.2.6,MacIntel,60,,,,,,,,,,,
,,,,,,,,,,,,,,p,1,0.441,space,0.122,0,162,162,4,1,0_dist_green/trial5.png,,,1,0,greenverival,p,61,19,M,2021-02-19_15h23.45.077,exp11,2020.2.6,MacIntel,60,,,,,,,,,,,
,,,,,,,,,,,,,,p,1,0.366,space,0.155,0,163,163,11,1,0_dist_green/trial12.png,,,1,0,greenverival,p,61,19,M,2021-02-19_15h23.45.077,exp11,2020.2.6,MacIntel,60,,,,,,,,,,,
,,,,,,,,,,,,,,p,1,0.333,space,0.173,0,164,164,15,1,0_dist_green/trial16.png,,,1,0,greenverival,p,61,19,M,2021-02-19_15h23.45.077,exp11,2020.2.6,MacIntel,60,,,,,,,,,,,
,,,,,,,,,,,,,,p,1,0.573,space,0.124,0,165,165,28,1,3_dist_green/trial4.png,,,1,3,greenverival,p,61,19,M,2021-02-19_15h23.45.077,exp11,2020.2.6,MacIntel,60,,,,,,,,,,,
,,,,,,,,,,,,,,p,1,0.727,space,0.141,0,166,166,93,1,15_dist_green/trial19.png,,,1,15,greenverival,p,61,19,M,2021-02-19_15h23.45.077,exp11,2020.2.6,MacIntel,60,,,,,,,,,,,
,,,,,,,,,,,,,,p,1,0.456,space,0.128,0,167,167,40,1,3_dist_green/trial16.png,,,1,3,greenverival,p,61,19,M,2021-02-19_15h23.45.077,exp11,2020.2.6,MacIntel,60,,,,,,,,,,,
,,,,,,,,,,,,,,p,1,0.425,space,0.155,0,168,168,39,1,3_dist_green/trial15.png,,,1,3,greenverival,p,61,19,M,2021-02-19_15h23.45.077,exp11,2020.2.6,MacIntel,60,,,,,,,,,,,
,,,,,,,,,,,,,,a,1,0.478,space,0.236,0,169,169,124,1,0_targ_1_dist_green/trial25.png,,,0,1,greenverival,a,61,19,M,2021-02-19_15h23.45.077,exp11,2020.2.6,MacIntel,60,,,,,,,,,,,
,,,,,,,,,,,,,,a,1,3.513,space,0.288,0,170,170,167,1,0_targ_10_dist_green/trial18.png,,,0,10,greenverival,a,61,19,M,2021-02-19_15h23.45.077,exp11,2020.2.6,MacIntel,60,,,,,,,,,,,
,,,,,,,,,,,,,,a,1,0.895,space,0.32,0,171,171,189,1,0_targ_16_dist_green/trial15.png,,,0,16,greenverival,a,61,19,M,2021-02-19_15h23.45.077,exp11,2020.2.6,MacIntel,60,,,,,,,,,,,
,,,,,,,,,,,,,,a,1,0.674,space,0.37,0,172,172,159,1,0_targ_10_dist_green/trial10.png,,,0,10,greenverival,a,61,19,M,2021-02-19_15h23.45.077,exp11,2020.2.6,MacIntel,60,,,,,,,,,,,
,,,,,,,,,,,,,,a,1,0.477,space,0.206,0,173,173,130,1,0_targ_4_dist_green/trial6.png,,,0,4,greenverival,a,61,19,M,2021-02-19_15h23.45.077,exp11,2020.2.6,MacIntel,60,,,,,,,,,,,
,,,,,,,,,,,,,,p,1,0.708,space,0.136,0,174,174,41,1,3_dist_green/trial17.png,,,1,3,greenverival,p,61,19,M,2021-02-19_15h23.45.077,exp11,2020.2.6,MacIntel,60,,,,,,,,,,,
,,,,,,,,,,,,,,a,1,1.346,space,0.194,0,175,175,142,1,0_targ_4_dist_green/trial18.png,,,0,4,greenverival,a,61,19,M,2021-02-19_15h23.45.077,exp11,2020.2.6,MacIntel,60,,,,,,,,,,,
,,,,,,,,,,,,,,a,1,1.343,space,0.24,0,176,176,180,1,0_targ_16_dist_green/trial6.png,,,0,16,greenverival,a,61,19,M,2021-02-19_15h23.45.077,exp11,2020.2.6,MacIntel,60,,,,,,,,,,,
,,,,,,,,,,,,,,a,1,0.528,space,0.192,0,177,177,141,1,0_targ_4_dist_green/trial17.png,,,0,4,greenverival,a,61,19,M,2021-02-19_15h23.45.077,exp11,2020.2.6,MacIntel,60,,,,,,,,,,,
,,,,,,,,,,,,,,p,1,0.691,space,0.151,0,178,178,70,1,9_dist_green/trial21.png,,,1,9,greenverival,p,61,19,M,2021-02-19_15h23.45.077,exp11,2020.2.6,MacIntel,60,,,,,,,,,,,
,,,,,,,,,,,,,,a,1,0.698,space,0.272,0,179,179,106,1,0_targ_1_dist_green/trial7.png,,,0,1,greenverival,a,61,19,M,2021-02-19_15h23.45.077,exp11,2020.2.6,MacIntel,60,,,,,,,,,,,
,,,,,,,,,,,,,,p,1,0.562,space,0.186,0,180,180,22,1,0_dist_green/trial23.png,,,1,0,greenverival,p,61,19,M,2021-02-19_15h23.45.077,exp11,2020.2.6,MacIntel,60,,,,,,,,,,,
,,,,,,,,,,,,,,a,1,0.645,space,0.211,0,181,181,177,1,0_targ_16_dist_green/trial3.png,,,0,16,greenverival,a,61,19,M,2021-02-19_15h23.45.077,exp11,2020.2.6,MacIntel,60,,,,,,,,,,,
,,,,,,,,,,,,,,p,1,0.495,space,0.192,0,182,182,35,1,3_dist_green/trial11.png,,,1,3,greenverival,p,61,19,M,2021-02-19_15h23.45.077,exp11,2020.2.6,MacIntel,60,,,,,,,,,,,
,,,,,,,,,,,,,,p,1,0.38,space,0.313,0,183,183,38,1,3_dist_green/trial14.png,,,1,3,greenverival,p,61,19,M,2021-02-19_15h23.45.077,exp11,2020.2.6,MacIntel,60,,,,,,,,,,,
,,,,,,,,,,,,,,a,1,0.533,space,0.203,0,184,184,170,1,0_targ_10_dist_green/trial21.png,,,0,10,greenverival,a,61,19,M,2021-02-19_15h23.45.077,exp11,2020.2.6,MacIntel,60,,,,,,,,,,,
,,,,,,,,,,,,,,p,1,0.375,space,0.155,0,185,185,71,1,9_dist_green/trial22.png,,,1,9,greenverival,p,61,19,M,2021-02-19_15h23.45.077,exp11,2020.2.6,MacIntel,60,,,,,,,,,,,
,,,,,,,,,,,,,,a,1,0.652,space,0.195,0,186,186,129,1,0_targ_4_dist_green/trial5.png,,,0,4,greenverival,a,61,19,M,2021-02-19_15h23.45.077,exp11,2020.2.6,MacIntel,60,,,,,,,,,,,
,,,,,,,,,,,,,,a,1,0.59,space,0.195,0,187,187,160,1,0_targ_10_dist_green/trial11.png,,,0,10,greenverival,a,61,19,M,2021-02-19_15h23.45.077,exp11,2020.2.6,MacIntel,60,,,,,,,,,,,
,,,,,,,,,,,,,,a,1,0.646,space,0.169,0,188,188,195,1,0_targ_16_dist_green/trial21.png,,,0,16,greenverival,a,61,19,M,2021-02-19_15h23.45.077,exp11,2020.2.6,MacIntel,60,,,,,,,,,,,
,,,,,,,,,,,,,,a,1,1.253,space,0.152,0,189,189,191,1,0_targ_16_dist_green/trial17.png,,,0,16,greenverival,a,61,19,M,2021-02-19_15h23.45.077,exp11,2020.2.6,MacIntel,60,,,,,,,,,,,
,,,,,,,,,,,,,,p,1,0.878,space,0.073,0,190,190,26,1,3_dist_green/trial2.png,,,1,3,greenverival,p,61,19,M,2021-02-19_15h23.45.077,exp11,2020.2.6,MacIntel,60,,,,,,,,,,,
,,,,,,,,,,,,,,p,1,0.91,space,0.161,0,191,191,64,1,9_dist_green/trial15.png,,,1,9,greenverival,p,61,19,M,2021-02-19_15h23.45.077,exp11,2020.2.6,MacIntel,60,,,,,,,,,,,
,,,,,,,,,,,,,,p,1,1.074,space,0.563,0,192,192,80,1,15_dist_green/trial6.png,,,1,15,greenverival,p,61,19,M,2021-02-19_15h23.45.077,exp11,2020.2.6,MacIntel,60,,,,,,,,,,,
,,,,,,,,,,,,,,a,1,0.858,space,0.178,0,193,193,112,1,0_targ_1_dist_green/trial13.png,,,0,1,greenverival,a,61,19,M,2021-02-19_15h23.45.077,exp11,2020.2.6,MacIntel,60,,,,,,,,,,,
,,,,,,,,,,,,,,a,1,0.995,space,0.078,0,194,194,134,1,0_targ_4_dist_green/trial10.png,,,0,4,greenverival,a,61,19,M,2021-02-19_15h23.45.077,exp11,2020.2.6,MacIntel,60,,,,,,,,,,,
,,,,,,,,,,,,,,a,1,1.834,space,0.169,0,195,195,140,1,0_targ_4_dist_green/trial6.png,,,0,4,greenverival,a,61,19,M,2021-02-19_15h23.45.077,exp11,2020.2.6,MacIntel,60,,,,,,,,,,,
,,,,,,,,,,,,,,a,1,1.576,space,0.138,0,196,196,139,1,0_targ_4_dist_green/trial15.png,,,0,4,greenverival,a,61,19,M,2021-02-19_15h23.45.077,exp11,2020.2.6,MacIntel,60,,,,,,,,,,,
,,,,,,,,,,,,,,p,1,0.5,space,0.386,0,197,197,16,1,0_dist_green/trial17.png,,,1,0,greenverival,p,61,19,M,2021-02-19_15h23.45.077,exp11,2020.2.6,MacIntel,60,,,,,,,,,,,
,,,,,,,,,,,,,,p,1,0.529,space,0.289,0,198,198,94,1,15_dist_green/trial20.png,,,1,15,greenverival,p,61,19,M,2021-02-19_15h23.45.077,exp11,2020.2.6,MacIntel,60,,,,,,,,,,,
,,,,,,,,,,,,,,a,1,0.76,space,0.172,0,199,199,196,1,0_targ_16_dist_green/trial22.png,,,0,16,greenverival,a,61,19,M,2021-02-19_15h23.45.077,exp11,2020.2.6,MacIntel,60,,,,,,,,,,,
,,,,,,,,,,,,,,,,,,,,,,,,,,,,,,,61,19,M,2021-02-19_15h23.45.077,exp11,2020.2.6,MacIntel,60,0,1,1,0,1,conGreen.xlsx,green vertical,Look for green vertical bar (target) and indicate if it is present or absent in the array. If green vertical target is present press 'p' and if absent press 'a'. Press SPACE to start.,,,
