key_resp_6.keys,key_resp_6.rt,key_resp_7.keys,key_resp_7.rt,key_resp_8.keys,key_resp_8.rt,key_resp_10.keys,key_resp_10.rt,key_resp_9.keys,key_resp_9.rt,key_resp_3.keys,key_resp_3.rt,key_resp_5.keys,key_resp_5.rt,key_resp.keys,key_resp.corr,key_resp.rt,key_resp_4.keys,key_resp_4.rt,trials.thisRepN,trials.thisTrialN,trials.thisN,trials.thisIndex,trials.ran,ImageFile,tarPos,tarSize,targPres,numDist,targetName,correctAns,participant,age,sex,date,expName,psychopyVersion,OS,frameRate,trials_2.thisRepN,trials_2.thisTrialN,trials_2.thisN,trials_2.thisIndex,trials_2.ran,condsFile,targName,instructionText,colTarget,sizeTarg,posit
space,1.048,space,0.488,space,0.426,space,0.397,space,0.321,space,0.423,space,18.619,p,1,1.44,space,2.472,0,0,0,72,1,9_dist_green/trial23.png,,,1,9,greenverival,p,62,19,F,2021-02-19_15h36.01.078,exp11,2020.2.6,MacIntel,60,,,,,,,,,,,
,,,,,,,,,,,,,,p,1,0.898,space,0.54,0,1,1,35,1,3_dist_green/trial11.png,,,1,3,greenverival,p,62,19,F,2021-02-19_15h36.01.078,exp11,2020.2.6,MacIntel,60,,,,,,,,,,,
,,,,,,,,,,,,,,p,1,0.644,space,0.386,0,2,2,47,1,3_dist_green/trial23.png,,,1,3,greenverival,p,62,19,F,2021-02-19_15h36.01.078,exp11,2020.2.6,MacIntel,60,,,,,,,,,,,
,,,,,,,,,,,,,,a,1,1.982,space,0.313,0,3,3,193,1,0_targ_16_dist_green/trial19.png,,,0,16,greenverival,a,62,19,F,2021-02-19_15h36.01.078,exp11,2020.2.6,MacIntel,60,,,,,,,,,,,
,,,,,,,,,,,,,,p,1,1.664,space,0.261,0,4,4,85,1,15_dist_green/trial11.png,,,1,15,greenverival,p,62,19,F,2021-02-19_15h36.01.078,exp11,2020.2.6,MacIntel,60,,,,,,,,,,,
,,,,,,,,,,,,,,a,1,1.543,space,0.39,0,5,5,185,1,0_targ_16_dist_green/trial11.png,,,0,16,greenverival,a,62,19,F,2021-02-19_15h36.01.078,exp11,2020.2.6,MacIntel,60,,,,,,,,,,,
,,,,,,,,,,,,,,a,1,1.011,space,0.357,0,6,6,155,1,0_targ_10_dist_green/trial6.png,,,0,10,greenverival,a,62,19,F,2021-02-19_15h36.01.078,exp11,2020.2.6,MacIntel,60,,,,,,,,,,,
,,,,,,,,,,,,,,p,1,0.56,space,0.38,0,7,7,34,1,3_dist_green/trial10.png,,,1,3,greenverival,p,62,19,F,2021-02-19_15h36.01.078,exp11,2020.2.6,MacIntel,60,,,,,,,,,,,
,,,,,,,,,,,,,,a,1,0.944,space,0.29,0,8,8,164,1,0_targ_10_dist_green/trial15.png,,,0,10,greenverival,a,62,19,F,2021-02-19_15h36.01.078,exp11,2020.2.6,MacIntel,60,,,,,,,,,,,
,,,,,,,,,,,,,,a,1,0.891,space,0.53,0,9,9,161,1,0_targ_10_dist_green/trial12.png,,,0,10,greenverival,a,62,19,F,2021-02-19_15h36.01.078,exp11,2020.2.6,MacIntel,60,,,,,,,,,,,
,,,,,,,,,,,,,,p,1,0.711,space,0.456,0,10,10,15,1,0_dist_green/trial16.png,,,1,0,greenverival,p,62,19,F,2021-02-19_15h36.01.078,exp11,2020.2.6,MacIntel,60,,,,,,,,,,,
,,,,,,,,,,,,,,p,1,0.675,space,0.39,0,11,11,33,1,3_dist_green/trial9.png,,,1,3,greenverival,p,62,19,F,2021-02-19_15h36.01.078,exp11,2020.2.6,MacIntel,60,,,,,,,,,,,
,,,,,,,,,,,,,,p,1,0.841,space,0.355,0,12,12,66,1,9_dist_green/trial17.png,,,1,9,greenverival,p,62,19,F,2021-02-19_15h36.01.078,exp11,2020.2.6,MacIntel,60,,,,,,,,,,,
,,,,,,,,,,,,,,a,1,1.125,space,0.262,0,13,13,116,1,0_targ_1_dist_green/trial17.png,,,0,1,greenverival,a,62,19,F,2021-02-19_15h36.01.078,exp11,2020.2.6,MacIntel,60,,,,,,,,,,,
,,,,,,,,,,,,,,p,1,1.131,space,0.226,0,14,14,75,1,15_dist_green/trial1.png,,,1,15,greenverival,p,62,19,F,2021-02-19_15h36.01.078,exp11,2020.2.6,MacIntel,60,,,,,,,,,,,
,,,,,,,,,,,,,,p,1,0.849,space,0.353,0,15,15,62,1,9_dist_green/trial13.png,,,1,9,greenverival,p,62,19,F,2021-02-19_15h36.01.078,exp11,2020.2.6,MacIntel,60,,,,,,,,,,,
,,,,,,,,,,,,,,a,1,1.208,space,0.247,0,16,16,198,1,0_targ_16_dist_green/trial24.png,,,0,16,greenverival,a,62,19,F,2021-02-19_15h36.01.078,exp11,2020.2.6,MacIntel,60,,,,,,,,,,,
,,,,,,,,,,,,,,a,1,0.761,space,0.231,0,17,17,135,1,0_targ_4_dist_green/trial11.png,,,0,4,greenverival,a,62,19,F,2021-02-19_15h36.01.078,exp11,2020.2.6,MacIntel,60,,,,,,,,,,,
,,,,,,,,,,,,,,a,1,1.409,space,0.174,0,18,18,168,1,0_targ_10_dist_green/trial19.png,,,0,10,greenverival,a,62,19,F,2021-02-19_15h36.01.078,exp11,2020.2.6,MacIntel,60,,,,,,,,,,,
,,,,,,,,,,,,,,p,1,0.509,space,0.225,0,19,19,8,1,0_dist_green/trial9.png,,,1,0,greenverival,p,62,19,F,2021-02-19_15h36.01.078,exp11,2020.2.6,MacIntel,60,,,,,,,,,,,
,,,,,,,,,,,,,,p,1,0.944,space,0.254,0,20,20,50,1,9_dist_green/trial1.png,,,1,9,greenverival,p,62,19,F,2021-02-19_15h36.01.078,exp11,2020.2.6,MacIntel,60,,,,,,,,,,,
,,,,,,,,,,,,,,a,1,0.927,space,0.229,0,21,21,169,1,0_targ_10_dist_green/trial20.png,,,0,10,greenverival,a,62,19,F,2021-02-19_15h36.01.078,exp11,2020.2.6,MacIntel,60,,,,,,,,,,,
,,,,,,,,,,,,,,a,1,1.284,space,0.21,0,22,22,199,1,0_targ_16_dist_green/trial25.png,,,0,16,greenverival,a,62,19,F,2021-02-19_15h36.01.078,exp11,2020.2.6,MacIntel,60,,,,,,,,,,,
,,,,,,,,,,,,,,p,1,0.96,space,0.207,0,23,23,63,1,9_dist_green/trial14.png,,,1,9,greenverival,p,62,19,F,2021-02-19_15h36.01.078,exp11,2020.2.6,MacIntel,60,,,,,,,,,,,
,,,,,,,,,,,,,,a,1,0.745,space,0.246,0,24,24,101,1,0_targ_1_dist_green/trial2.png,,,0,1,greenverival,a,62,19,F,2021-02-19_15h36.01.078,exp11,2020.2.6,MacIntel,60,,,,,,,,,,,
,,,,,,,,,,,,,,a,1,0.852,space,0.256,0,25,25,142,1,0_targ_4_dist_green/trial18.png,,,0,4,greenverival,a,62,19,F,2021-02-19_15h36.01.078,exp11,2020.2.6,MacIntel,60,,,,,,,,,,,
,,,,,,,,,,,,,,p,1,0.758,space,0.241,0,26,26,67,1,9_dist_green/trial18.png,,,1,9,greenverival,p,62,19,F,2021-02-19_15h36.01.078,exp11,2020.2.6,MacIntel,60,,,,,,,,,,,
,,,,,,,,,,,,,,a,1,0.813,space,0.209,0,27,27,188,1,0_targ_16_dist_green/trial14.png,,,0,16,greenverival,a,62,19,F,2021-02-19_15h36.01.078,exp11,2020.2.6,MacIntel,60,,,,,,,,,,,
,,,,,,,,,,,,,,p,1,0.68,space,0.223,0,28,28,52,1,9_dist_green/trial3.png,,,1,9,greenverival,p,62,19,F,2021-02-19_15h36.01.078,exp11,2020.2.6,MacIntel,60,,,,,,,,,,,
,,,,,,,,,,,,,,p,1,0.612,space,0.228,0,29,29,4,1,0_dist_green/trial5.png,,,1,0,greenverival,p,62,19,F,2021-02-19_15h36.01.078,exp11,2020.2.6,MacIntel,60,,,,,,,,,,,
,,,,,,,,,,,,,,p,1,0.579,space,0.243,0,30,30,29,1,3_dist_green/trial5.png,,,1,3,greenverival,p,62,19,F,2021-02-19_15h36.01.078,exp11,2020.2.6,MacIntel,60,,,,,,,,,,,
,,,,,,,,,,,,,,p,1,0.662,space,0.207,0,31,31,45,1,3_dist_green/trial21.png,,,1,3,greenverival,p,62,19,F,2021-02-19_15h36.01.078,exp11,2020.2.6,MacIntel,60,,,,,,,,,,,
,,,,,,,,,,,,,,a,1,0.628,space,0.23,0,32,32,122,1,0_targ_1_dist_green/trial23.png,,,0,1,greenverival,a,62,19,F,2021-02-19_15h36.01.078,exp11,2020.2.6,MacIntel,60,,,,,,,,,,,
,,,,,,,,,,,,,,a,1,0.945,space,0.179,0,33,33,103,1,0_targ_1_dist_green/trial4.png,,,0,1,greenverival,a,62,19,F,2021-02-19_15h36.01.078,exp11,2020.2.6,MacIntel,60,,,,,,,,,,,
,,,,,,,,,,,,,,a,1,0.562,space,0.272,0,34,34,100,1,0_targ_1_dist_green/trial1.png,,,0,1,greenverival,a,62,19,F,2021-02-19_15h36.01.078,exp11,2020.2.6,MacIntel,60,,,,,,,,,,,
,,,,,,,,,,,,,,a,1,0.827,space,0.239,0,35,35,190,1,0_targ_16_dist_green/trial16.png,,,0,16,greenverival,a,62,19,F,2021-02-19_15h36.01.078,exp11,2020.2.6,MacIntel,60,,,,,,,,,,,
,,,,,,,,,,,,,,p,1,0.66,space,0.211,0,36,36,27,1,3_dist_green/trial3.png,,,1,3,greenverival,p,62,19,F,2021-02-19_15h36.01.078,exp11,2020.2.6,MacIntel,60,,,,,,,,,,,
,,,,,,,,,,,,,,a,1,0.794,space,0.24,0,37,37,153,1,0_targ_10_dist_green/trial4.png,,,0,10,greenverival,a,62,19,F,2021-02-19_15h36.01.078,exp11,2020.2.6,MacIntel,60,,,,,,,,,,,
,,,,,,,,,,,,,,p,1,0.808,space,0.213,0,38,38,28,1,3_dist_green/trial4.png,,,1,3,greenverival,p,62,19,F,2021-02-19_15h36.01.078,exp11,2020.2.6,MacIntel,60,,,,,,,,,,,
,,,,,,,,,,,,,,p,1,0.911,space,0.222,0,39,39,49,1,3_dist_green/trial25.png,,,1,3,greenverival,p,62,19,F,2021-02-19_15h36.01.078,exp11,2020.2.6,MacIntel,60,,,,,,,,,,,
,,,,,,,,,,,,,,p,1,1.159,space,0.21,0,40,40,11,1,0_dist_green/trial12.png,,,1,0,greenverival,p,62,19,F,2021-02-19_15h36.01.078,exp11,2020.2.6,MacIntel,60,,,,,,,,,,,
,,,,,,,,,,,,,,p,1,0.545,space,0.239,0,41,41,24,1,0_dist_green/trial25.png,,,1,0,greenverival,p,62,19,F,2021-02-19_15h36.01.078,exp11,2020.2.6,MacIntel,60,,,,,,,,,,,
,,,,,,,,,,,,,,p,1,1.358,space,0.169,0,42,42,79,1,15_dist_green/trial5.png,,,1,15,greenverival,p,62,19,F,2021-02-19_15h36.01.078,exp11,2020.2.6,MacIntel,60,,,,,,,,,,,
,,,,,,,,,,,,,,p,1,0.705,space,0.24,0,43,43,38,1,3_dist_green/trial14.png,,,1,3,greenverival,p,62,19,F,2021-02-19_15h36.01.078,exp11,2020.2.6,MacIntel,60,,,,,,,,,,,
,,,,,,,,,,,,,,p,1,0.778,space,0.237,0,44,44,74,1,9_dist_green/trial25.png,,,1,9,greenverival,p,62,19,F,2021-02-19_15h36.01.078,exp11,2020.2.6,MacIntel,60,,,,,,,,,,,
,,,,,,,,,,,,,,a,1,0.575,space,0.22,0,45,45,111,1,0_targ_1_dist_green/trial12.png,,,0,1,greenverival,a,62,19,F,2021-02-19_15h36.01.078,exp11,2020.2.6,MacIntel,60,,,,,,,,,,,
,,,,,,,,,,,,,,p,1,1.161,space,0.404,0,46,46,96,1,15_dist_green/trial22.png,,,1,15,greenverival,p,62,19,F,2021-02-19_15h36.01.078,exp11,2020.2.6,MacIntel,60,,,,,,,,,,,
,,,,,,,,,,,,,,p,1,0.742,space,0.21,0,47,47,69,1,9_dist_green/trial20.png,,,1,9,greenverival,p,62,19,F,2021-02-19_15h36.01.078,exp11,2020.2.6,MacIntel,60,,,,,,,,,,,
,,,,,,,,,,,,,,a,1,0.797,space,0.182,0,48,48,186,1,0_targ_16_dist_green/trial12.png,,,0,16,greenverival,a,62,19,F,2021-02-19_15h36.01.078,exp11,2020.2.6,MacIntel,60,,,,,,,,,,,
,,,,,,,,,,,,,,a,1,0.664,space,0.504,0,49,49,140,1,0_targ_4_dist_green/trial6.png,,,0,4,greenverival,a,62,19,F,2021-02-19_15h36.01.078,exp11,2020.2.6,MacIntel,60,,,,,,,,,,,
,,,,,,,,,,,,,,p,1,0.562,space,0.203,0,50,50,44,1,3_dist_green/trial20.png,,,1,3,greenverival,p,62,19,F,2021-02-19_15h36.01.078,exp11,2020.2.6,MacIntel,60,,,,,,,,,,,
,,,,,,,,,,,,,,p,1,0.575,space,0.221,0,51,51,6,1,0_dist_green/trial7.png,,,1,0,greenverival,p,62,19,F,2021-02-19_15h36.01.078,exp11,2020.2.6,MacIntel,60,,,,,,,,,,,
,,,,,,,,,,,,,,a,1,0.655,space,0.222,0,52,52,105,1,0_targ_1_dist_green/trial6.png,,,0,1,greenverival,a,62,19,F,2021-02-19_15h36.01.078,exp11,2020.2.6,MacIntel,60,,,,,,,,,,,
,,,,,,,,,,,,,,a,1,0.597,space,0.186,0,53,53,110,1,0_targ_1_dist_green/trial11.png,,,0,1,greenverival,a,62,19,F,2021-02-19_15h36.01.078,exp11,2020.2.6,MacIntel,60,,,,,,,,,,,
,,,,,,,,,,,,,,a,1,0.942,space,0.227,0,54,54,180,1,0_targ_16_dist_green/trial6.png,,,0,16,greenverival,a,62,19,F,2021-02-19_15h36.01.078,exp11,2020.2.6,MacIntel,60,,,,,,,,,,,
,,,,,,,,,,,,,,a,1,0.653,space,0.235,0,55,55,133,1,0_targ_4_dist_green/trial9.png,,,0,4,greenverival,a,62,19,F,2021-02-19_15h36.01.078,exp11,2020.2.6,MacIntel,60,,,,,,,,,,,
,,,,,,,,,,,,,,p,1,0.617,space,0.205,0,56,56,54,1,9_dist_green/trial5.png,,,1,9,greenverival,p,62,19,F,2021-02-19_15h36.01.078,exp11,2020.2.6,MacIntel,60,,,,,,,,,,,
,,,,,,,,,,,,,,p,1,0.782,space,0.205,0,57,57,36,1,3_dist_green/trial12.png,,,1,3,greenverival,p,62,19,F,2021-02-19_15h36.01.078,exp11,2020.2.6,MacIntel,60,,,,,,,,,,,
,,,,,,,,,,,,,,p,1,0.809,space,0.227,0,58,58,25,1,3_dist_green/trial1.png,,,1,3,greenverival,p,62,19,F,2021-02-19_15h36.01.078,exp11,2020.2.6,MacIntel,60,,,,,,,,,,,
,,,,,,,,,,,,,,p,1,0.733,space,0.19,0,59,59,59,1,9_dist_green/trial10.png,,,1,9,greenverival,p,62,19,F,2021-02-19_15h36.01.078,exp11,2020.2.6,MacIntel,60,,,,,,,,,,,
,,,,,,,,,,,,,,p,1,0.85,space,0.188,0,60,60,99,1,15_dist_green/trial25.png,,,1,15,greenverival,p,62,19,F,2021-02-19_15h36.01.078,exp11,2020.2.6,MacIntel,60,,,,,,,,,,,
,,,,,,,,,,,,,,p,1,0.51,space,0.208,0,61,61,3,1,0_dist_green/trial4.png,,,1,0,greenverival,p,62,19,F,2021-02-19_15h36.01.078,exp11,2020.2.6,MacIntel,60,,,,,,,,,,,
,,,,,,,,,,,,,,a,1,0.696,space,0.185,0,62,62,137,1,0_targ_4_dist_green/trial13.png,,,0,4,greenverival,a,62,19,F,2021-02-19_15h36.01.078,exp11,2020.2.6,MacIntel,60,,,,,,,,,,,
,,,,,,,,,,,,,,a,1,0.966,space,0.141,0,63,63,184,1,0_targ_16_dist_green/trial10.png,,,0,16,greenverival,a,62,19,F,2021-02-19_15h36.01.078,exp11,2020.2.6,MacIntel,60,,,,,,,,,,,
,,,,,,,,,,,,,,a,1,0.899,space,0.174,0,64,64,156,1,0_targ_10_dist_green/trial7.png,,,0,10,greenverival,a,62,19,F,2021-02-19_15h36.01.078,exp11,2020.2.6,MacIntel,60,,,,,,,,,,,
,,,,,,,,,,,,,,a,1,0.71,space,0.155,0,65,65,178,1,0_targ_16_dist_green/trial4.png,,,0,16,greenverival,a,62,19,F,2021-02-19_15h36.01.078,exp11,2020.2.6,MacIntel,60,,,,,,,,,,,
,,,,,,,,,,,,,,a,1,0.807,space,0.154,0,66,66,191,1,0_targ_16_dist_green/trial17.png,,,0,16,greenverival,a,62,19,F,2021-02-19_15h36.01.078,exp11,2020.2.6,MacIntel,60,,,,,,,,,,,
,,,,,,,,,,,,,,a,1,0.659,space,0.204,0,67,67,120,1,0_targ_1_dist_green/trial21.png,,,0,1,greenverival,a,62,19,F,2021-02-19_15h36.01.078,exp11,2020.2.6,MacIntel,60,,,,,,,,,,,
,,,,,,,,,,,,,,a,1,0.839,space,0.242,0,68,68,197,1,0_targ_16_dist_green/trial23.png,,,0,16,greenverival,a,62,19,F,2021-02-19_15h36.01.078,exp11,2020.2.6,MacIntel,60,,,,,,,,,,,
,,,,,,,,,,,,,,p,1,0.667,space,0.173,0,69,69,58,1,9_dist_green/trial9.png,,,1,9,greenverival,p,62,19,F,2021-02-19_15h36.01.078,exp11,2020.2.6,MacIntel,60,,,,,,,,,,,
,,,,,,,,,,,,,,p,1,0.586,space,0.191,0,70,70,57,1,9_dist_green/trial8.png,,,1,9,greenverival,p,62,19,F,2021-02-19_15h36.01.078,exp11,2020.2.6,MacIntel,60,,,,,,,,,,,
,,,,,,,,,,,,,,a,1,0.677,space,0.211,0,71,71,125,1,0_targ_4_dist_green/trial1.png,,,0,4,greenverival,a,62,19,F,2021-02-19_15h36.01.078,exp11,2020.2.6,MacIntel,60,,,,,,,,,,,
,,,,,,,,,,,,,,a,1,0.812,space,0.157,0,72,72,123,1,0_targ_1_dist_green/trial24.png,,,0,1,greenverival,a,62,19,F,2021-02-19_15h36.01.078,exp11,2020.2.6,MacIntel,60,,,,,,,,,,,
,,,,,,,,,,,,,,a,1,0.619,space,0.189,0,73,73,172,1,0_targ_10_dist_green/trial23.png,,,0,10,greenverival,a,62,19,F,2021-02-19_15h36.01.078,exp11,2020.2.6,MacIntel,60,,,,,,,,,,,
,,,,,,,,,,,,,,a,1,0.612,space,0.168,0,74,74,106,1,0_targ_1_dist_green/trial7.png,,,0,1,greenverival,a,62,19,F,2021-02-19_15h36.01.078,exp11,2020.2.6,MacIntel,60,,,,,,,,,,,
,,,,,,,,,,,,,,a,1,0.512,space,0.238,0,75,75,107,1,0_targ_1_dist_green/trial8.png,,,0,1,greenverival,a,62,19,F,2021-02-19_15h36.01.078,exp11,2020.2.6,MacIntel,60,,,,,,,,,,,
,,,,,,,,,,,,,,a,1,0.792,space,0.185,0,76,76,174,1,0_targ_10_dist_green/trial25.png,,,0,10,greenverival,a,62,19,F,2021-02-19_15h36.01.078,exp11,2020.2.6,MacIntel,60,,,,,,,,,,,
,,,,,,,,,,,,,,a,1,0.674,space,0.161,0,77,77,170,1,0_targ_10_dist_green/trial21.png,,,0,10,greenverival,a,62,19,F,2021-02-19_15h36.01.078,exp11,2020.2.6,MacIntel,60,,,,,,,,,,,
,,,,,,,,,,,,,,p,1,0.727,space,0.205,0,78,78,51,1,9_dist_green/trial2.png,,,1,9,greenverival,p,62,19,F,2021-02-19_15h36.01.078,exp11,2020.2.6,MacIntel,60,,,,,,,,,,,
,,,,,,,,,,,,,,p,1,0.525,space,0.179,0,79,79,5,1,0_dist_green/trial6.png,,,1,0,greenverival,p,62,19,F,2021-02-19_15h36.01.078,exp11,2020.2.6,MacIntel,60,,,,,,,,,,,
,,,,,,,,,,,,,,a,1,0.959,space,0.172,0,80,80,112,1,0_targ_1_dist_green/trial13.png,,,0,1,greenverival,a,62,19,F,2021-02-19_15h36.01.078,exp11,2020.2.6,MacIntel,60,,,,,,,,,,,
,,,,,,,,,,,,,,p,1,0.775,space,0.18,0,81,81,1,1,0_dist_green/trial2.png,,,1,0,greenverival,p,62,19,F,2021-02-19_15h36.01.078,exp11,2020.2.6,MacIntel,60,,,,,,,,,,,
,,,,,,,,,,,,,,p,1,1.06,space,0.194,0,82,82,76,1,15_dist_green/trial2.png,,,1,15,greenverival,p,62,19,F,2021-02-19_15h36.01.078,exp11,2020.2.6,MacIntel,60,,,,,,,,,,,
,,,,,,,,,,,,,,a,1,0.931,space,0.207,0,83,83,162,1,0_targ_10_dist_green/trial13.png,,,0,10,greenverival,a,62,19,F,2021-02-19_15h36.01.078,exp11,2020.2.6,MacIntel,60,,,,,,,,,,,
,,,,,,,,,,,,,,a,1,1.124,space,0.204,0,84,84,196,1,0_targ_16_dist_green/trial22.png,,,0,16,greenverival,a,62,19,F,2021-02-19_15h36.01.078,exp11,2020.2.6,MacIntel,60,,,,,,,,,,,
,,,,,,,,,,,,,,p,1,0.892,space,0.357,0,85,85,46,1,3_dist_green/trial22.png,,,1,3,greenverival,p,62,19,F,2021-02-19_15h36.01.078,exp11,2020.2.6,MacIntel,60,,,,,,,,,,,
,,,,,,,,,,,,,,p,1,0.585,space,0.172,0,86,86,23,1,0_dist_green/trial24.png,,,1,0,greenverival,p,62,19,F,2021-02-19_15h36.01.078,exp11,2020.2.6,MacIntel,60,,,,,,,,,,,
,,,,,,,,,,,,,,p,1,1.062,space,0.207,0,87,87,80,1,15_dist_green/trial6.png,,,1,15,greenverival,p,62,19,F,2021-02-19_15h36.01.078,exp11,2020.2.6,MacIntel,60,,,,,,,,,,,
,,,,,,,,,,,,,,a,1,0.995,space,0.192,0,88,88,192,1,0_targ_16_dist_green/trial18.png,,,0,16,greenverival,a,62,19,F,2021-02-19_15h36.01.078,exp11,2020.2.6,MacIntel,60,,,,,,,,,,,
,,,,,,,,,,,,,,p,1,0.627,space,0.169,0,89,89,17,1,0_dist_green/trial18.png,,,1,0,greenverival,p,62,19,F,2021-02-19_15h36.01.078,exp11,2020.2.6,MacIntel,60,,,,,,,,,,,
,,,,,,,,,,,,,,a,1,0.61,space,0.173,0,90,90,104,1,0_targ_1_dist_green/trial5.png,,,0,1,greenverival,a,62,19,F,2021-02-19_15h36.01.078,exp11,2020.2.6,MacIntel,60,,,,,,,,,,,
,,,,,,,,,,,,,,a,1,0.696,space,0.153,0,91,91,195,1,0_targ_16_dist_green/trial21.png,,,0,16,greenverival,a,62,19,F,2021-02-19_15h36.01.078,exp11,2020.2.6,MacIntel,60,,,,,,,,,,,
,,,,,,,,,,,,,,p,1,0.876,space,0.187,0,92,92,70,1,9_dist_green/trial21.png,,,1,9,greenverival,p,62,19,F,2021-02-19_15h36.01.078,exp11,2020.2.6,MacIntel,60,,,,,,,,,,,
,,,,,,,,,,,,,,p,1,0.745,space,0.173,0,93,93,30,1,3_dist_green/trial6.png,,,1,3,greenverival,p,62,19,F,2021-02-19_15h36.01.078,exp11,2020.2.6,MacIntel,60,,,,,,,,,,,
,,,,,,,,,,,,,,p,1,0.696,space,0.205,0,94,94,48,1,3_dist_green/trial24.png,,,1,3,greenverival,p,62,19,F,2021-02-19_15h36.01.078,exp11,2020.2.6,MacIntel,60,,,,,,,,,,,
,,,,,,,,,,,,,,a,1,0.625,space,0.206,0,95,95,154,1,0_targ_10_dist_green/trial5.png,,,0,10,greenverival,a,62,19,F,2021-02-19_15h36.01.078,exp11,2020.2.6,MacIntel,60,,,,,,,,,,,
,,,,,,,,,,,,,,a,1,0.658,space,0.16,0,96,96,175,1,0_targ_16_dist_green/trial1.png,,,0,16,greenverival,a,62,19,F,2021-02-19_15h36.01.078,exp11,2020.2.6,MacIntel,60,,,,,,,,,,,
,,,,,,,,,,,,,,p,1,0.806,space,0.158,0,97,97,88,1,15_dist_green/trial14.png,,,1,15,greenverival,p,62,19,F,2021-02-19_15h36.01.078,exp11,2020.2.6,MacIntel,60,,,,,,,,,,,
,,,,,,,,,,,,,,p,1,0.491,space,0.176,0,98,98,0,1,0_dist_green/trial1.png,,,1,0,greenverival,p,62,19,F,2021-02-19_15h36.01.078,exp11,2020.2.6,MacIntel,60,,,,,,,,,,,
,,,,,,,,,,,,,,a,1,0.678,space,0.154,0,99,99,136,1,0_targ_4_dist_green/trial12.png,,,0,4,greenverival,a,62,19,F,2021-02-19_15h36.01.078,exp11,2020.2.6,MacIntel,60,,,,,,,,,,,
,,,,,,,,,,,,,,p,1,0.542,space,0.378,0,100,100,19,1,0_dist_green/trial20.png,,,1,0,greenverival,p,62,19,F,2021-02-19_15h36.01.078,exp11,2020.2.6,MacIntel,60,,,,,,,,,,,
,,,,,,,,,,,,,,a,1,0.509,space,0.355,0,101,101,130,1,0_targ_4_dist_green/trial6.png,,,0,4,greenverival,a,62,19,F,2021-02-19_15h36.01.078,exp11,2020.2.6,MacIntel,60,,,,,,,,,,,
,,,,,,,,,,,,,,p,0,0.581,space,0.806,0,102,102,139,1,0_targ_4_dist_green/trial15.png,,,0,4,greenverival,a,62,19,F,2021-02-19_15h36.01.078,exp11,2020.2.6,MacIntel,60,,,,,,,,,,,
,,,,,,,,,,,,,,p,1,1.458,space,0.547,0,103,103,86,1,15_dist_green/trial12.png,,,1,15,greenverival,p,62,19,F,2021-02-19_15h36.01.078,exp11,2020.2.6,MacIntel,60,,,,,,,,,,,
,,,,,,,,,,,,,,p,1,0.675,space,0.164,0,104,104,39,1,3_dist_green/trial15.png,,,1,3,greenverival,p,62,19,F,2021-02-19_15h36.01.078,exp11,2020.2.6,MacIntel,60,,,,,,,,,,,
,,,,,,,,,,,,,,p,1,0.727,space,0.244,0,105,105,64,1,9_dist_green/trial15.png,,,1,9,greenverival,p,62,19,F,2021-02-19_15h36.01.078,exp11,2020.2.6,MacIntel,60,,,,,,,,,,,
,,,,,,,,,,,,,,a,1,0.699,space,0.311,0,106,106,124,1,0_targ_1_dist_green/trial25.png,,,0,1,greenverival,a,62,19,F,2021-02-19_15h36.01.078,exp11,2020.2.6,MacIntel,60,,,,,,,,,,,
,,,,,,,,,,,,,,a,1,0.71,space,0.228,0,107,107,134,1,0_targ_4_dist_green/trial10.png,,,0,4,greenverival,a,62,19,F,2021-02-19_15h36.01.078,exp11,2020.2.6,MacIntel,60,,,,,,,,,,,
,,,,,,,,,,,,,,a,1,2.13,space,0.779,0,108,108,114,1,0_targ_1_dist_green/trial15.png,,,0,1,greenverival,a,62,19,F,2021-02-19_15h36.01.078,exp11,2020.2.6,MacIntel,60,,,,,,,,,,,
,,,,,,,,,,,,,,p,1,0.607,space,0.369,0,109,109,12,1,0_dist_green/trial13.png,,,1,0,greenverival,p,62,19,F,2021-02-19_15h36.01.078,exp11,2020.2.6,MacIntel,60,,,,,,,,,,,
,,,,,,,,,,,,,,p,1,0.992,space,0.15,0,110,110,95,1,15_dist_green/trial21.png,,,1,15,greenverival,p,62,19,F,2021-02-19_15h36.01.078,exp11,2020.2.6,MacIntel,60,,,,,,,,,,,
,,,,,,,,,,,,,,a,1,1.443,space,0.475,0,111,111,194,1,0_targ_16_dist_green/trial20.png,,,0,16,greenverival,a,62,19,F,2021-02-19_15h36.01.078,exp11,2020.2.6,MacIntel,60,,,,,,,,,,,
,,,,,,,,,,,,,,a,1,0.949,space,0.47,0,112,112,177,1,0_targ_16_dist_green/trial3.png,,,0,16,greenverival,a,62,19,F,2021-02-19_15h36.01.078,exp11,2020.2.6,MacIntel,60,,,,,,,,,,,
,,,,,,,,,,,,,,a,1,0.798,space,0.379,0,113,113,127,1,0_targ_4_dist_green/trial3.png,,,0,4,greenverival,a,62,19,F,2021-02-19_15h36.01.078,exp11,2020.2.6,MacIntel,60,,,,,,,,,,,
,,,,,,,,,,,,,,a,1,0.544,space,0.389,0,114,114,145,1,0_targ_4_dist_green/trial21.png,,,0,4,greenverival,a,62,19,F,2021-02-19_15h36.01.078,exp11,2020.2.6,MacIntel,60,,,,,,,,,,,
,,,,,,,,,,,,,,a,1,0.508,space,0.302,0,115,115,108,1,0_targ_1_dist_green/trial9.png,,,0,1,greenverival,a,62,19,F,2021-02-19_15h36.01.078,exp11,2020.2.6,MacIntel,60,,,,,,,,,,,
,,,,,,,,,,,,,,p,1,0.614,space,0.204,0,116,116,65,1,9_dist_green/trial16.png,,,1,9,greenverival,p,62,19,F,2021-02-19_15h36.01.078,exp11,2020.2.6,MacIntel,60,,,,,,,,,,,
,,,,,,,,,,,,,,p,1,0.569,space,0.188,0,117,117,41,1,3_dist_green/trial17.png,,,1,3,greenverival,p,62,19,F,2021-02-19_15h36.01.078,exp11,2020.2.6,MacIntel,60,,,,,,,,,,,
,,,,,,,,,,,,,,a,1,0.611,space,0.222,0,118,118,176,1,0_targ_16_dist_green/trial2.png,,,0,16,greenverival,a,62,19,F,2021-02-19_15h36.01.078,exp11,2020.2.6,MacIntel,60,,,,,,,,,,,
,,,,,,,,,,,,,,p,1,0.612,space,0.204,0,119,119,71,1,9_dist_green/trial22.png,,,1,9,greenverival,p,62,19,F,2021-02-19_15h36.01.078,exp11,2020.2.6,MacIntel,60,,,,,,,,,,,
,,,,,,,,,,,,,,a,0,0.991,space,0.156,0,120,120,82,1,15_dist_green/trial8.png,,,1,15,greenverival,p,62,19,F,2021-02-19_15h36.01.078,exp11,2020.2.6,MacIntel,60,,,,,,,,,,,
,,,,,,,,,,,,,,p,1,0.676,space,0.151,0,121,121,31,1,3_dist_green/trial7.png,,,1,3,greenverival,p,62,19,F,2021-02-19_15h36.01.078,exp11,2020.2.6,MacIntel,60,,,,,,,,,,,
,,,,,,,,,,,,,,a,1,0.758,space,0.171,0,122,122,144,1,0_targ_4_dist_green/trial20.png,,,0,4,greenverival,a,62,19,F,2021-02-19_15h36.01.078,exp11,2020.2.6,MacIntel,60,,,,,,,,,,,
,,,,,,,,,,,,,,a,1,0.745,space,0.171,0,123,123,129,1,0_targ_4_dist_green/trial5.png,,,0,4,greenverival,a,62,19,F,2021-02-19_15h36.01.078,exp11,2020.2.6,MacIntel,60,,,,,,,,,,,
,,,,,,,,,,,,,,a,1,0.763,space,0.227,0,124,124,150,1,0_targ_10_dist_green/trial1.png,,,0,10,greenverival,a,62,19,F,2021-02-19_15h36.01.078,exp11,2020.2.6,MacIntel,60,,,,,,,,,,,
,,,,,,,,,,,,,,p,1,0.89,space,0.204,0,125,125,97,1,15_dist_green/trial23.png,,,1,15,greenverival,p,62,19,F,2021-02-19_15h36.01.078,exp11,2020.2.6,MacIntel,60,,,,,,,,,,,
,,,,,,,,,,,,,,p,1,0.812,space,0.203,0,126,126,61,1,9_dist_green/trial12.png,,,1,9,greenverival,p,62,19,F,2021-02-19_15h36.01.078,exp11,2020.2.6,MacIntel,60,,,,,,,,,,,
,,,,,,,,,,,,,,p,1,0.729,space,0.195,0,127,127,60,1,9_dist_green/trial11.png,,,1,9,greenverival,p,62,19,F,2021-02-19_15h36.01.078,exp11,2020.2.6,MacIntel,60,,,,,,,,,,,
,,,,,,,,,,,,,,p,1,1.009,space,0.205,0,128,128,42,1,3_dist_green/trial18.png,,,1,3,greenverival,p,62,19,F,2021-02-19_15h36.01.078,exp11,2020.2.6,MacIntel,60,,,,,,,,,,,
,,,,,,,,,,,,,,a,1,1.725,space,0.481,0,129,129,179,1,0_targ_16_dist_green/trial5.png,,,0,16,greenverival,a,62,19,F,2021-02-19_15h36.01.078,exp11,2020.2.6,MacIntel,60,,,,,,,,,,,
,,,,,,,,,,,,,,p,1,0.567,space,0.241,0,130,130,16,1,0_dist_green/trial17.png,,,1,0,greenverival,p,62,19,F,2021-02-19_15h36.01.078,exp11,2020.2.6,MacIntel,60,,,,,,,,,,,
,,,,,,,,,,,,,,p,0,0.592,space,0.471,0,131,131,138,1,0_targ_4_dist_green/trial14.png,,,0,4,greenverival,a,62,19,F,2021-02-19_15h36.01.078,exp11,2020.2.6,MacIntel,60,,,,,,,,,,,
,,,,,,,,,,,,,,a,1,1.052,space,0.286,0,132,132,165,1,0_targ_10_dist_green/trial16.png,,,0,10,greenverival,a,62,19,F,2021-02-19_15h36.01.078,exp11,2020.2.6,MacIntel,60,,,,,,,,,,,
,,,,,,,,,,,,,,a,1,1.284,space,0.225,0,133,133,187,1,0_targ_16_dist_green/trial13.png,,,0,16,greenverival,a,62,19,F,2021-02-19_15h36.01.078,exp11,2020.2.6,MacIntel,60,,,,,,,,,,,
,,,,,,,,,,,,,,p,1,0.678,space,0.287,0,134,134,93,1,15_dist_green/trial19.png,,,1,15,greenverival,p,62,19,F,2021-02-19_15h36.01.078,exp11,2020.2.6,MacIntel,60,,,,,,,,,,,
,,,,,,,,,,,,,,a,1,0.98,space,0.328,0,135,135,158,1,0_targ_10_dist_green/trial9.png,,,0,10,greenverival,a,62,19,F,2021-02-19_15h36.01.078,exp11,2020.2.6,MacIntel,60,,,,,,,,,,,
,,,,,,,,,,,,,,a,1,1.165,space,0.345,0,136,136,149,1,0_targ_4_dist_green/trial25.png,,,0,4,greenverival,a,62,19,F,2021-02-19_15h36.01.078,exp11,2020.2.6,MacIntel,60,,,,,,,,,,,
,,,,,,,,,,,,,,a,1,1.073,space,0.321,0,137,137,182,1,0_targ_16_dist_green/trial8.png,,,0,16,greenverival,a,62,19,F,2021-02-19_15h36.01.078,exp11,2020.2.6,MacIntel,60,,,,,,,,,,,
,,,,,,,,,,,,,,a,1,0.692,space,0.36,0,138,138,132,1,0_targ_4_dist_green/trial8.png,,,0,4,greenverival,a,62,19,F,2021-02-19_15h36.01.078,exp11,2020.2.6,MacIntel,60,,,,,,,,,,,
,,,,,,,,,,,,,,a,1,0.805,space,0.287,0,139,139,173,1,0_targ_10_dist_green/trial24.png,,,0,10,greenverival,a,62,19,F,2021-02-19_15h36.01.078,exp11,2020.2.6,MacIntel,60,,,,,,,,,,,
,,,,,,,,,,,,,,a,0,0.7,space,1.878,0,140,140,73,1,9_dist_green/trial24.png,,,1,9,greenverival,p,62,19,F,2021-02-19_15h36.01.078,exp11,2020.2.6,MacIntel,60,,,,,,,,,,,
,,,,,,,,,,,,,,a,1,0.868,space,0.206,0,141,141,121,1,0_targ_1_dist_green/trial22.png,,,0,1,greenverival,a,62,19,F,2021-02-19_15h36.01.078,exp11,2020.2.6,MacIntel,60,,,,,,,,,,,
,,,,,,,,,,,,,,a,1,1.427,space,0.388,0,142,142,181,1,0_targ_16_dist_green/trial7.png,,,0,16,greenverival,a,62,19,F,2021-02-19_15h36.01.078,exp11,2020.2.6,MacIntel,60,,,,,,,,,,,
,,,,,,,,,,,,,,p,1,0.62,space,0.389,0,143,143,26,1,3_dist_green/trial2.png,,,1,3,greenverival,p,62,19,F,2021-02-19_15h36.01.078,exp11,2020.2.6,MacIntel,60,,,,,,,,,,,
,,,,,,,,,,,,,,p,1,0.616,space,0.426,0,144,144,68,1,9_dist_green/trial19.png,,,1,9,greenverival,p,62,19,F,2021-02-19_15h36.01.078,exp11,2020.2.6,MacIntel,60,,,,,,,,,,,
,,,,,,,,,,,,,,p,1,0.775,space,0.239,0,145,145,56,1,9_dist_green/trial7.png,,,1,9,greenverival,p,62,19,F,2021-02-19_15h36.01.078,exp11,2020.2.6,MacIntel,60,,,,,,,,,,,
,,,,,,,,,,,,,,p,1,0.696,space,0.344,0,146,146,84,1,15_dist_green/trial10.png,,,1,15,greenverival,p,62,19,F,2021-02-19_15h36.01.078,exp11,2020.2.6,MacIntel,60,,,,,,,,,,,
,,,,,,,,,,,,,,p,1,0.492,space,0.445,0,147,147,9,1,0_dist_green/trial10.png,,,1,0,greenverival,p,62,19,F,2021-02-19_15h36.01.078,exp11,2020.2.6,MacIntel,60,,,,,,,,,,,
,,,,,,,,,,,,,,a,1,0.711,space,0.369,0,148,148,117,1,0_targ_1_dist_green/trial18.png,,,0,1,greenverival,a,62,19,F,2021-02-19_15h36.01.078,exp11,2020.2.6,MacIntel,60,,,,,,,,,,,
,,,,,,,,,,,,,,p,0,1.01,space,2.007,0,149,149,160,1,0_targ_10_dist_green/trial11.png,,,0,10,greenverival,a,62,19,F,2021-02-19_15h36.01.078,exp11,2020.2.6,MacIntel,60,,,,,,,,,,,
,,,,,,,,,,,,,,a,1,0.797,space,0.212,0,150,150,119,1,0_targ_1_dist_green/trial20.png,,,0,1,greenverival,a,62,19,F,2021-02-19_15h36.01.078,exp11,2020.2.6,MacIntel,60,,,,,,,,,,,
,,,,,,,,,,,,,,p,1,0.745,space,0.273,0,151,151,40,1,3_dist_green/trial16.png,,,1,3,greenverival,p,62,19,F,2021-02-19_15h36.01.078,exp11,2020.2.6,MacIntel,60,,,,,,,,,,,
,,,,,,,,,,,,,,a,1,0.941,space,0.235,0,152,152,147,1,0_targ_4_dist_green/trial23.png,,,0,4,greenverival,a,62,19,F,2021-02-19_15h36.01.078,exp11,2020.2.6,MacIntel,60,,,,,,,,,,,
,,,,,,,,,,,,,,p,1,0.848,space,0.441,0,153,153,98,1,15_dist_green/trial24.png,,,1,15,greenverival,p,62,19,F,2021-02-19_15h36.01.078,exp11,2020.2.6,MacIntel,60,,,,,,,,,,,
,,,,,,,,,,,,,,a,1,0.708,space,0.607,0,154,154,118,1,0_targ_1_dist_green/trial19.png,,,0,1,greenverival,a,62,19,F,2021-02-19_15h36.01.078,exp11,2020.2.6,MacIntel,60,,,,,,,,,,,
,,,,,,,,,,,,,,a,1,0.734,space,0.274,0,155,155,141,1,0_targ_4_dist_green/trial17.png,,,0,4,greenverival,a,62,19,F,2021-02-19_15h36.01.078,exp11,2020.2.6,MacIntel,60,,,,,,,,,,,
,,,,,,,,,,,,,,a,1,0.867,space,0.189,0,156,156,152,1,0_targ_10_dist_green/trial3.png,,,0,10,greenverival,a,62,19,F,2021-02-19_15h36.01.078,exp11,2020.2.6,MacIntel,60,,,,,,,,,,,
,,,,,,,,,,,,,,p,1,0.658,space,0.561,0,157,157,22,1,0_dist_green/trial23.png,,,1,0,greenverival,p,62,19,F,2021-02-19_15h36.01.078,exp11,2020.2.6,MacIntel,60,,,,,,,,,,,
,,,,,,,,,,,,,,p,1,0.619,space,0.229,0,158,158,2,1,0_dist_green/trial3.png,,,1,0,greenverival,p,62,19,F,2021-02-19_15h36.01.078,exp11,2020.2.6,MacIntel,60,,,,,,,,,,,
,,,,,,,,,,,,,,a,1,0.925,space,0.259,0,159,159,159,1,0_targ_10_dist_green/trial10.png,,,0,10,greenverival,a,62,19,F,2021-02-19_15h36.01.078,exp11,2020.2.6,MacIntel,60,,,,,,,,,,,
,,,,,,,,,,,,,,p,1,1.013,space,0.453,0,160,160,13,1,0_dist_green/trial14.png,,,1,0,greenverival,p,62,19,F,2021-02-19_15h36.01.078,exp11,2020.2.6,MacIntel,60,,,,,,,,,,,
,,,,,,,,,,,,,,p,1,0.734,space,0.331,0,161,161,53,1,9_dist_green/trial4.png,,,1,9,greenverival,p,62,19,F,2021-02-19_15h36.01.078,exp11,2020.2.6,MacIntel,60,,,,,,,,,,,
,,,,,,,,,,,,,,a,1,0.691,space,0.272,0,162,162,157,1,0_targ_10_dist_green/trial8.png,,,0,10,greenverival,a,62,19,F,2021-02-19_15h36.01.078,exp11,2020.2.6,MacIntel,60,,,,,,,,,,,
,,,,,,,,,,,,,,p,1,0.614,space,0.339,0,163,163,83,1,15_dist_green/trial9.png,,,1,15,greenverival,p,62,19,F,2021-02-19_15h36.01.078,exp11,2020.2.6,MacIntel,60,,,,,,,,,,,
,,,,,,,,,,,,,,a,1,0.803,space,0.428,0,164,164,148,1,0_targ_4_dist_green/trial24.png,,,0,4,greenverival,a,62,19,F,2021-02-19_15h36.01.078,exp11,2020.2.6,MacIntel,60,,,,,,,,,,,
,,,,,,,,,,,,,,a,1,0.632,space,0.363,0,165,165,128,1,0_targ_4_dist_green/trial4.png,,,0,4,greenverival,a,62,19,F,2021-02-19_15h36.01.078,exp11,2020.2.6,MacIntel,60,,,,,,,,,,,
,,,,,,,,,,,,,,a,1,0.744,space,0.389,0,166,166,163,1,0_targ_10_dist_green/trial14.png,,,0,10,greenverival,a,62,19,F,2021-02-19_15h36.01.078,exp11,2020.2.6,MacIntel,60,,,,,,,,,,,
,,,,,,,,,,,,,,p,1,0.803,space,0.385,0,167,167,94,1,15_dist_green/trial20.png,,,1,15,greenverival,p,62,19,F,2021-02-19_15h36.01.078,exp11,2020.2.6,MacIntel,60,,,,,,,,,,,
,,,,,,,,,,,,,,a,1,0.693,space,0.33,0,168,168,102,1,0_targ_1_dist_green/trial3.png,,,0,1,greenverival,a,62,19,F,2021-02-19_15h36.01.078,exp11,2020.2.6,MacIntel,60,,,,,,,,,,,
,,,,,,,,,,,,,,p,1,1.199,space,0.298,0,169,169,43,1,3_dist_green/trial19.png,,,1,3,greenverival,p,62,19,F,2021-02-19_15h36.01.078,exp11,2020.2.6,MacIntel,60,,,,,,,,,,,
,,,,,,,,,,,,,,p,1,0.944,space,0.48,0,170,170,55,1,9_dist_green/trial6.png,,,1,9,greenverival,p,62,19,F,2021-02-19_15h36.01.078,exp11,2020.2.6,MacIntel,60,,,,,,,,,,,
,,,,,,,,,,,,,,p,1,0.557,space,0.322,0,171,171,20,1,0_dist_green/trial21.png,,,1,0,greenverival,p,62,19,F,2021-02-19_15h36.01.078,exp11,2020.2.6,MacIntel,60,,,,,,,,,,,
,,,,,,,,,,,,,,a,1,0.662,space,0.223,0,172,172,126,1,0_targ_4_dist_green/trial2.png,,,0,4,greenverival,a,62,19,F,2021-02-19_15h36.01.078,exp11,2020.2.6,MacIntel,60,,,,,,,,,,,
,,,,,,,,,,,,,,a,1,0.721,space,0.262,0,173,173,115,1,0_targ_1_dist_green/trial6.png,,,0,1,greenverival,a,62,19,F,2021-02-19_15h36.01.078,exp11,2020.2.6,MacIntel,60,,,,,,,,,,,
,,,,,,,,,,,,,,p,1,0.626,space,0.356,0,174,174,21,1,0_dist_green/trial22.png,,,1,0,greenverival,p,62,19,F,2021-02-19_15h36.01.078,exp11,2020.2.6,MacIntel,60,,,,,,,,,,,
,,,,,,,,,,,,,,a,1,0.975,space,0.344,0,175,175,113,1,0_targ_1_dist_green/trial14.png,,,0,1,greenverival,a,62,19,F,2021-02-19_15h36.01.078,exp11,2020.2.6,MacIntel,60,,,,,,,,,,,
,,,,,,,,,,,,,,p,1,1.103,space,0.22,0,176,176,90,1,15_dist_green/trial16.png,,,1,15,greenverival,p,62,19,F,2021-02-19_15h36.01.078,exp11,2020.2.6,MacIntel,60,,,,,,,,,,,
,,,,,,,,,,,,,,p,1,0.512,space,0.32,0,177,177,14,1,0_dist_green/trial15.png,,,1,0,greenverival,p,62,19,F,2021-02-19_15h36.01.078,exp11,2020.2.6,MacIntel,60,,,,,,,,,,,
,,,,,,,,,,,,,,a,1,0.693,space,0.339,0,178,178,167,1,0_targ_10_dist_green/trial18.png,,,0,10,greenverival,a,62,19,F,2021-02-19_15h36.01.078,exp11,2020.2.6,MacIntel,60,,,,,,,,,,,
,,,,,,,,,,,,,,p,1,0.831,space,0.289,0,179,179,78,1,15_dist_green/trial4.png,,,1,15,greenverival,p,62,19,F,2021-02-19_15h36.01.078,exp11,2020.2.6,MacIntel,60,,,,,,,,,,,
,,,,,,,,,,,,,,p,1,0.608,space,0.437,0,180,180,10,1,0_dist_green/trial11.png,,,1,0,greenverival,p,62,19,F,2021-02-19_15h36.01.078,exp11,2020.2.6,MacIntel,60,,,,,,,,,,,
,,,,,,,,,,,,,,p,1,0.612,space,0.363,0,181,181,32,1,3_dist_green/trial8.png,,,1,3,greenverival,p,62,19,F,2021-02-19_15h36.01.078,exp11,2020.2.6,MacIntel,60,,,,,,,,,,,
,,,,,,,,,,,,,,a,1,0.664,space,0.298,0,182,182,131,1,0_targ_4_dist_green/trial7.png,,,0,4,greenverival,a,62,19,F,2021-02-19_15h36.01.078,exp11,2020.2.6,MacIntel,60,,,,,,,,,,,
,,,,,,,,,,,,,,p,1,0.676,space,0.269,0,183,183,89,1,15_dist_green/trial15.png,,,1,15,greenverival,p,62,19,F,2021-02-19_15h36.01.078,exp11,2020.2.6,MacIntel,60,,,,,,,,,,,
,,,,,,,,,,,,,,a,1,0.632,space,0.26,0,184,184,109,1,0_targ_1_dist_green/trial10.png,,,0,1,greenverival,a,62,19,F,2021-02-19_15h36.01.078,exp11,2020.2.6,MacIntel,60,,,,,,,,,,,
,,,,,,,,,,,,,,p,1,0.911,space,0.308,0,185,185,81,1,15_dist_green/trial7.png,,,1,15,greenverival,p,62,19,F,2021-02-19_15h36.01.078,exp11,2020.2.6,MacIntel,60,,,,,,,,,,,
,,,,,,,,,,,,,,p,1,0.729,space,0.262,0,186,186,91,1,15_dist_green/trial17.png,,,1,15,greenverival,p,62,19,F,2021-02-19_15h36.01.078,exp11,2020.2.6,MacIntel,60,,,,,,,,,,,
,,,,,,,,,,,,,,p,1,0.486,space,0.323,0,187,187,37,1,3_dist_green/trial13.png,,,1,3,greenverival,p,62,19,F,2021-02-19_15h36.01.078,exp11,2020.2.6,MacIntel,60,,,,,,,,,,,
,,,,,,,,,,,,,,p,1,0.494,space,0.274,0,188,188,7,1,0_dist_green/trial8.png,,,1,0,greenverival,p,62,19,F,2021-02-19_15h36.01.078,exp11,2020.2.6,MacIntel,60,,,,,,,,,,,
,,,,,,,,,,,,,,a,1,0.624,space,0.375,0,189,189,151,1,0_targ_10_dist_green/trial2.png,,,0,10,greenverival,a,62,19,F,2021-02-19_15h36.01.078,exp11,2020.2.6,MacIntel,60,,,,,,,,,,,
,,,,,,,,,,,,,,a,1,1.068,space,0.188,0,190,190,183,1,0_targ_16_dist_green/trial9.png,,,0,16,greenverival,a,62,19,F,2021-02-19_15h36.01.078,exp11,2020.2.6,MacIntel,60,,,,,,,,,,,
,,,,,,,,,,,,,,p,0,0.654,space,2.061,0,191,191,166,1,0_targ_10_dist_green/trial17.png,,,0,10,greenverival,a,62,19,F,2021-02-19_15h36.01.078,exp11,2020.2.6,MacIntel,60,,,,,,,,,,,
,,,,,,,,,,,,,,p,1,1.125,space,0.229,0,192,192,92,1,15_dist_green/trial18.png,,,1,15,greenverival,p,62,19,F,2021-02-19_15h36.01.078,exp11,2020.2.6,MacIntel,60,,,,,,,,,,,
,,,,,,,,,,,,,,p,1,0.638,space,0.238,0,193,193,87,1,15_dist_green/trial13.png,,,1,15,greenverival,p,62,19,F,2021-02-19_15h36.01.078,exp11,2020.2.6,MacIntel,60,,,,,,,,,,,
,,,,,,,,,,,,,,a,1,0.752,space,0.223,0,194,194,189,1,0_targ_16_dist_green/trial15.png,,,0,16,greenverival,a,62,19,F,2021-02-19_15h36.01.078,exp11,2020.2.6,MacIntel,60,,,,,,,,,,,
,,,,,,,,,,,,,,a,1,1.279,space,0.437,0,195,195,171,1,0_targ_10_dist_green/trial22.png,,,0,10,greenverival,a,62,19,F,2021-02-19_15h36.01.078,exp11,2020.2.6,MacIntel,60,,,,,,,,,,,
,,,,,,,,,,,,,,p,1,0.875,space,0.241,0,196,196,18,1,0_dist_green/trial19.png,,,1,0,greenverival,p,62,19,F,2021-02-19_15h36.01.078,exp11,2020.2.6,MacIntel,60,,,,,,,,,,,
,,,,,,,,,,,,,,p,1,0.816,space,0.221,0,197,197,77,1,15_dist_green/trial3.png,,,1,15,greenverival,p,62,19,F,2021-02-19_15h36.01.078,exp11,2020.2.6,MacIntel,60,,,,,,,,,,,
,,,,,,,,,,,,,,a,1,0.707,space,0.302,0,198,198,146,1,0_targ_4_dist_green/trial22.png,,,0,4,greenverival,a,62,19,F,2021-02-19_15h36.01.078,exp11,2020.2.6,MacIntel,60,,,,,,,,,,,
,,,,,,,,,,,,,,a,1,0.784,space,0.373,0,199,199,143,1,0_targ_4_dist_green/trial19.png,,,0,4,greenverival,a,62,19,F,2021-02-19_15h36.01.078,exp11,2020.2.6,MacIntel,60,,,,,,,,,,,
,,,,,,,,,,,,,,,,,,,,,,,,,,,,,,,62,19,F,2021-02-19_15h36.01.078,exp11,2020.2.6,MacIntel,60,0,0,0,0,1,conGreen.xlsx,green vertical,Look for green vertical bar (target) and indicate if it is present or absent in the array. If green vertical target is present press 'p' and if absent press 'a'. Press SPACE to start.,,,
,,,,,,,,,,space,6.606,space,1.218,a,1,3.234,space,0.475,0,0,0,124,1,0_targ_1_dist_red/trial25.png,,,0,1,redHorizontal,a,62,19,F,2021-02-19_15h36.01.078,exp11,2020.2.6,MacIntel,60,,,,,,,,,,,
,,,,,,,,,,,,,,p,1,0.685,space,0.261,0,1,1,5,1,0_dist_red/trial6.png,,,1,0,redHorizontal,p,62,19,F,2021-02-19_15h36.01.078,exp11,2020.2.6,MacIntel,60,,,,,,,,,,,
,,,,,,,,,,,,,,p,1,0.559,space,0.23,0,2,2,21,1,0_dist_red/trial22.png,,,1,0,redHorizontal,p,62,19,F,2021-02-19_15h36.01.078,exp11,2020.2.6,MacIntel,60,,,,,,,,,,,
,,,,,,,,,,,,,,p,1,0.86,space,0.256,0,3,3,93,1,15_dist_red/trial19.png,,,1,15,redHorizontal,p,62,19,F,2021-02-19_15h36.01.078,exp11,2020.2.6,MacIntel,60,,,,,,,,,,,
,,,,,,,,,,,,,,p,1,0.683,space,0.286,0,4,4,48,1,3_dist_red/trial24.png,,,1,3,redHorizontal,p,62,19,F,2021-02-19_15h36.01.078,exp11,2020.2.6,MacIntel,60,,,,,,,,,,,
,,,,,,,,,,,,,,p,1,0.747,space,0.355,0,5,5,25,1,3_dist_red/trial1.png,,,1,3,redHorizontal,p,62,19,F,2021-02-19_15h36.01.078,exp11,2020.2.6,MacIntel,60,,,,,,,,,,,
,,,,,,,,,,,,,,a,1,0.813,space,0.577,0,6,6,171,1,0_targ_10_dist_red/trial22.png,,,0,10,redHorizontal,a,62,19,F,2021-02-19_15h36.01.078,exp11,2020.2.6,MacIntel,60,,,,,,,,,,,
,,,,,,,,,,,,,,p,1,1.069,space,0.435,0,7,7,62,1,9_dist_red/trial13.png,,,1,9,redHorizontal,p,62,19,F,2021-02-19_15h36.01.078,exp11,2020.2.6,MacIntel,60,,,,,,,,,,,
,,,,,,,,,,,,,,p,1,1.485,space,0.367,0,8,8,79,1,15_dist_red/trial5.png,,,1,15,redHorizontal,p,62,19,F,2021-02-19_15h36.01.078,exp11,2020.2.6,MacIntel,60,,,,,,,,,,,
,,,,,,,,,,,,,,a,1,0.841,space,0.41,0,9,9,167,1,0_targ_10_dist_red/trial18.png,,,0,10,redHorizontal,a,62,19,F,2021-02-19_15h36.01.078,exp11,2020.2.6,MacIntel,60,,,,,,,,,,,
,,,,,,,,,,,,,,a,1,1.384,space,0.246,0,10,10,103,1,0_targ_1_dist_red/trial4.png,,,0,1,redHorizontal,a,62,19,F,2021-02-19_15h36.01.078,exp11,2020.2.6,MacIntel,60,,,,,,,,,,,
,,,,,,,,,,,,,,p,1,0.944,space,0.286,0,11,11,18,1,0_dist_red/trial19.png,,,1,0,redHorizontal,p,62,19,F,2021-02-19_15h36.01.078,exp11,2020.2.6,MacIntel,60,,,,,,,,,,,
,,,,,,,,,,,,,,a,1,0.967,space,0.21,0,12,12,199,1,0_targ_16_dist_red/trial25.png,,,0,16,redHorizontal,a,62,19,F,2021-02-19_15h36.01.078,exp11,2020.2.6,MacIntel,60,,,,,,,,,,,
,,,,,,,,,,,,,,p,1,1.012,space,0.22,0,13,13,10,1,0_dist_red/trial11.png,,,1,0,redHorizontal,p,62,19,F,2021-02-19_15h36.01.078,exp11,2020.2.6,MacIntel,60,,,,,,,,,,,
,,,,,,,,,,,,,,a,1,0.827,space,0.296,0,14,14,173,1,0_targ_10_dist_red/trial24.png,,,0,10,redHorizontal,a,62,19,F,2021-02-19_15h36.01.078,exp11,2020.2.6,MacIntel,60,,,,,,,,,,,
,,,,,,,,,,,,,,p,1,1.182,space,0.206,0,15,15,41,1,3_dist_red/trial17.png,,,1,3,redHorizontal,p,62,19,F,2021-02-19_15h36.01.078,exp11,2020.2.6,MacIntel,60,,,,,,,,,,,
,,,,,,,,,,,,,,a,1,0.791,space,0.268,0,16,16,174,1,0_targ_10_dist_red/trial25.png,,,0,10,redHorizontal,a,62,19,F,2021-02-19_15h36.01.078,exp11,2020.2.6,MacIntel,60,,,,,,,,,,,
,,,,,,,,,,,,,,a,1,0.877,space,0.255,0,17,17,151,1,0_targ_10_dist_red/trial2.png,,,0,10,redHorizontal,a,62,19,F,2021-02-19_15h36.01.078,exp11,2020.2.6,MacIntel,60,,,,,,,,,,,
,,,,,,,,,,,,,,p,1,0.86,space,0.247,0,18,18,73,1,9_dist_red/trial24.png,,,1,9,redHorizontal,p,62,19,F,2021-02-19_15h36.01.078,exp11,2020.2.6,MacIntel,60,,,,,,,,,,,
,,,,,,,,,,,,,,a,1,1.044,space,0.211,0,19,19,121,1,0_targ_1_dist_red/trial22.png,,,0,1,redHorizontal,a,62,19,F,2021-02-19_15h36.01.078,exp11,2020.2.6,MacIntel,60,,,,,,,,,,,
,,,,,,,,,,,,,,p,1,0.612,space,0.553,0,20,20,13,1,0_dist_red/trial14.png,,,1,0,redHorizontal,p,62,19,F,2021-02-19_15h36.01.078,exp11,2020.2.6,MacIntel,60,,,,,,,,,,,
,,,,,,,,,,,,,,p,1,1.044,space,0.424,0,21,21,60,1,9_dist_red/trial11.png,,,1,9,redHorizontal,p,62,19,F,2021-02-19_15h36.01.078,exp11,2020.2.6,MacIntel,60,,,,,,,,,,,
,,,,,,,,,,,,,,a,1,0.797,space,0.42,0,22,22,104,1,0_targ_1_dist_red/trial5.png,,,0,1,redHorizontal,a,62,19,F,2021-02-19_15h36.01.078,exp11,2020.2.6,MacIntel,60,,,,,,,,,,,
,,,,,,,,,,,,,,a,1,0.824,space,0.39,0,23,23,175,1,0_targ_16_dist_red/trial1.png,,,0,16,redHorizontal,a,62,19,F,2021-02-19_15h36.01.078,exp11,2020.2.6,MacIntel,60,,,,,,,,,,,
,,,,,,,,,,,,,,a,1,0.869,space,0.474,0,24,24,157,1,0_targ_10_dist_red/trial8.png,,,0,10,redHorizontal,a,62,19,F,2021-02-19_15h36.01.078,exp11,2020.2.6,MacIntel,60,,,,,,,,,,,
,,,,,,,,,,,,,,a,1,0.795,space,0.371,0,25,25,189,1,0_targ_16_dist_red/trial15.png,,,0,16,redHorizontal,a,62,19,F,2021-02-19_15h36.01.078,exp11,2020.2.6,MacIntel,60,,,,,,,,,,,
,,,,,,,,,,,,,,a,1,0.694,space,0.458,0,26,26,182,1,0_targ_16_dist_red/trial8.png,,,0,16,redHorizontal,a,62,19,F,2021-02-19_15h36.01.078,exp11,2020.2.6,MacIntel,60,,,,,,,,,,,
,,,,,,,,,,,,,,a,1,0.695,space,0.389,0,27,27,155,1,0_targ_10_dist_red/trial6.png,,,0,10,redHorizontal,a,62,19,F,2021-02-19_15h36.01.078,exp11,2020.2.6,MacIntel,60,,,,,,,,,,,
,,,,,,,,,,,,,,a,1,0.612,space,0.378,0,28,28,172,1,0_targ_10_dist_red/trial23.png,,,0,10,redHorizontal,a,62,19,F,2021-02-19_15h36.01.078,exp11,2020.2.6,MacIntel,60,,,,,,,,,,,
,,,,,,,,,,,,,,a,0,0.743,space,0.154,0,29,29,69,1,9_dist_red/trial20.png,,,1,9,redHorizontal,p,62,19,F,2021-02-19_15h36.01.078,exp11,2020.2.6,MacIntel,60,,,,,,,,,,,
,,,,,,,,,,,,,,a,1,0.871,space,0.583,0,30,30,152,1,0_targ_10_dist_red/trial3.png,,,0,10,redHorizontal,a,62,19,F,2021-02-19_15h36.01.078,exp11,2020.2.6,MacIntel,60,,,,,,,,,,,
,,,,,,,,,,,,,,a,1,0.744,space,0.169,0,31,31,110,1,0_targ_1_dist_red/trial11.png,,,0,1,redHorizontal,a,62,19,F,2021-02-19_15h36.01.078,exp11,2020.2.6,MacIntel,60,,,,,,,,,,,
,,,,,,,,,,,,,,a,1,1.277,space,0.398,0,32,32,123,1,0_targ_1_dist_red/trial24.png,,,0,1,redHorizontal,a,62,19,F,2021-02-19_15h36.01.078,exp11,2020.2.6,MacIntel,60,,,,,,,,,,,
,,,,,,,,,,,,,,p,1,0.906,space,0.599,0,33,33,74,1,9_dist_red/trial25.png,,,1,9,redHorizontal,p,62,19,F,2021-02-19_15h36.01.078,exp11,2020.2.6,MacIntel,60,,,,,,,,,,,
,,,,,,,,,,,,,,p,1,0.892,space,0.415,0,34,34,94,1,15_dist_red/trial20.png,,,1,15,redHorizontal,p,62,19,F,2021-02-19_15h36.01.078,exp11,2020.2.6,MacIntel,60,,,,,,,,,,,
,,,,,,,,,,,,,,p,1,0.741,space,1.006,0,35,35,59,1,9_dist_red/trial10.png,,,1,9,redHorizontal,p,62,19,F,2021-02-19_15h36.01.078,exp11,2020.2.6,MacIntel,60,,,,,,,,,,,
,,,,,,,,,,,,,,p,1,0.71,space,1.257,0,36,36,40,1,3_dist_red/trial16.png,,,1,3,redHorizontal,p,62,19,F,2021-02-19_15h36.01.078,exp11,2020.2.6,MacIntel,60,,,,,,,,,,,
,,,,,,,,,,,,,,p,1,1.249,space,0.411,0,37,37,15,1,0_dist_red/trial16.png,,,1,0,redHorizontal,p,62,19,F,2021-02-19_15h36.01.078,exp11,2020.2.6,MacIntel,60,,,,,,,,,,,
,,,,,,,,,,,,,,p,1,0.678,space,0.406,0,38,38,54,1,9_dist_red/trial5.png,,,1,9,redHorizontal,p,62,19,F,2021-02-19_15h36.01.078,exp11,2020.2.6,MacIntel,60,,,,,,,,,,,
,,,,,,,,,,,,,,a,1,0.711,space,0.446,0,39,39,193,1,0_targ_16_dist_red/trial19.png,,,0,16,redHorizontal,a,62,19,F,2021-02-19_15h36.01.078,exp11,2020.2.6,MacIntel,60,,,,,,,,,,,
,,,,,,,,,,,,,,p,1,0.633,space,0.355,0,40,40,32,1,3_dist_red/trial8.png,,,1,3,redHorizontal,p,62,19,F,2021-02-19_15h36.01.078,exp11,2020.2.6,MacIntel,60,,,,,,,,,,,
,,,,,,,,,,,,,,p,1,0.893,space,0.356,0,41,41,39,1,3_dist_red/trial15.png,,,1,3,redHorizontal,p,62,19,F,2021-02-19_15h36.01.078,exp11,2020.2.6,MacIntel,60,,,,,,,,,,,
,,,,,,,,,,,,,,a,1,0.661,space,0.392,0,42,42,144,1,0_targ_4_dist_red/trial20.png,,,0,4,redHorizontal,a,62,19,F,2021-02-19_15h36.01.078,exp11,2020.2.6,MacIntel,60,,,,,,,,,,,
,,,,,,,,,,,,,,p,1,0.761,space,0.353,0,43,43,92,1,15_dist_red/trial18.png,,,1,15,redHorizontal,p,62,19,F,2021-02-19_15h36.01.078,exp11,2020.2.6,MacIntel,60,,,,,,,,,,,
,,,,,,,,,,,,,,a,1,0.737,space,0.261,0,44,44,141,1,0_targ_4_dist_red/trial17.png,,,0,4,redHorizontal,a,62,19,F,2021-02-19_15h36.01.078,exp11,2020.2.6,MacIntel,60,,,,,,,,,,,
,,,,,,,,,,,,,,p,1,0.594,space,0.273,0,45,45,24,1,0_dist_red/trial25.png,,,1,0,redHorizontal,p,62,19,F,2021-02-19_15h36.01.078,exp11,2020.2.6,MacIntel,60,,,,,,,,,,,
,,,,,,,,,,,,,,a,1,0.681,space,0.253,0,46,46,147,1,0_targ_4_dist_red/trial23.png,,,0,4,redHorizontal,a,62,19,F,2021-02-19_15h36.01.078,exp11,2020.2.6,MacIntel,60,,,,,,,,,,,
,,,,,,,,,,,,,,a,1,0.745,space,0.303,0,47,47,166,1,0_targ_10_dist_red/trial17.png,,,0,10,redHorizontal,a,62,19,F,2021-02-19_15h36.01.078,exp11,2020.2.6,MacIntel,60,,,,,,,,,,,
,,,,,,,,,,,,,,p,1,0.633,space,0.33,0,48,48,27,1,3_dist_red/trial3.png,,,1,3,redHorizontal,p,62,19,F,2021-02-19_15h36.01.078,exp11,2020.2.6,MacIntel,60,,,,,,,,,,,
,,,,,,,,,,,,,,p,1,0.66,space,0.294,0,49,49,20,1,0_dist_red/trial21.png,,,1,0,redHorizontal,p,62,19,F,2021-02-19_15h36.01.078,exp11,2020.2.6,MacIntel,60,,,,,,,,,,,
,,,,,,,,,,,,,,a,1,0.912,space,0.447,0,50,50,164,1,0_targ_10_dist_red/trial15.png,,,0,10,redHorizontal,a,62,19,F,2021-02-19_15h36.01.078,exp11,2020.2.6,MacIntel,60,,,,,,,,,,,
,,,,,,,,,,,,,,a,1,0.576,space,0.311,0,51,51,126,1,0_targ_4_dist_red/trial2.png,,,0,4,redHorizontal,a,62,19,F,2021-02-19_15h36.01.078,exp11,2020.2.6,MacIntel,60,,,,,,,,,,,
,,,,,,,,,,,,,,p,1,0.747,space,0.22,0,52,52,88,1,15_dist_red/trial14.png,,,1,15,redHorizontal,p,62,19,F,2021-02-19_15h36.01.078,exp11,2020.2.6,MacIntel,60,,,,,,,,,,,
,,,,,,,,,,,,,,p,1,0.694,space,0.32,0,53,53,33,1,3_dist_red/trial9.png,,,1,3,redHorizontal,p,62,19,F,2021-02-19_15h36.01.078,exp11,2020.2.6,MacIntel,60,,,,,,,,,,,
,,,,,,,,,,,,,,p,1,0.596,space,0.312,0,54,54,0,1,0_dist_red/trial1.png,,,1,0,redHorizontal,p,62,19,F,2021-02-19_15h36.01.078,exp11,2020.2.6,MacIntel,60,,,,,,,,,,,
,,,,,,,,,,,,,,a,1,0.7,space,0.219,0,55,55,158,1,0_targ_10_dist_red/trial9.png,,,0,10,redHorizontal,a,62,19,F,2021-02-19_15h36.01.078,exp11,2020.2.6,MacIntel,60,,,,,,,,,,,
,,,,,,,,,,,,,,p,1,0.544,space,0.224,0,56,56,9,1,0_dist_red/trial10.png,,,1,0,redHorizontal,p,62,19,F,2021-02-19_15h36.01.078,exp11,2020.2.6,MacIntel,60,,,,,,,,,,,
,,,,,,,,,,,,,,a,1,1.298,space,0.28,0,57,57,194,1,0_targ_16_dist_red/trial20.png,,,0,16,redHorizontal,a,62,19,F,2021-02-19_15h36.01.078,exp11,2020.2.6,MacIntel,60,,,,,,,,,,,
,,,,,,,,,,,,,,p,1,1.042,space,0.226,0,58,58,85,1,15_dist_red/trial11.png,,,1,15,redHorizontal,p,62,19,F,2021-02-19_15h36.01.078,exp11,2020.2.6,MacIntel,60,,,,,,,,,,,
,,,,,,,,,,,,,,a,1,1.15,space,0.203,0,59,59,122,1,0_targ_1_dist_red/trial23.png,,,0,1,redHorizontal,a,62,19,F,2021-02-19_15h36.01.078,exp11,2020.2.6,MacIntel,60,,,,,,,,,,,
,,,,,,,,,,,,,,p,0,0.775,space,2.826,0,60,60,106,1,0_targ_1_dist_red/trial7.png,,,0,1,redHorizontal,a,62,19,F,2021-02-19_15h36.01.078,exp11,2020.2.6,MacIntel,60,,,,,,,,,,,
,,,,,,,,,,,,,,p,1,1.429,space,0.52,0,61,61,80,1,15_dist_red/trial6.png,,,1,15,redHorizontal,p,62,19,F,2021-02-19_15h36.01.078,exp11,2020.2.6,MacIntel,60,,,,,,,,,,,
,,,,,,,,,,,,,,a,1,0.774,space,0.239,0,62,62,117,1,0_targ_1_dist_red/trial18.png,,,0,1,redHorizontal,a,62,19,F,2021-02-19_15h36.01.078,exp11,2020.2.6,MacIntel,60,,,,,,,,,,,
,,,,,,,,,,,,,,p,1,1.648,space,0.447,0,63,63,86,1,15_dist_red/trial12.png,,,1,15,redHorizontal,p,62,19,F,2021-02-19_15h36.01.078,exp11,2020.2.6,MacIntel,60,,,,,,,,,,,
,,,,,,,,,,,,,,p,1,0.874,space,0.553,0,64,64,49,1,3_dist_red/trial25.png,,,1,3,redHorizontal,p,62,19,F,2021-02-19_15h36.01.078,exp11,2020.2.6,MacIntel,60,,,,,,,,,,,
,,,,,,,,,,,,,,p,1,0.594,space,0.385,0,65,65,36,1,3_dist_red/trial12.png,,,1,3,redHorizontal,p,62,19,F,2021-02-19_15h36.01.078,exp11,2020.2.6,MacIntel,60,,,,,,,,,,,
,,,,,,,,,,,,,,p,1,0.595,space,0.397,0,66,66,30,1,3_dist_red/trial6.png,,,1,3,redHorizontal,p,62,19,F,2021-02-19_15h36.01.078,exp11,2020.2.6,MacIntel,60,,,,,,,,,,,
,,,,,,,,,,,,,,p,1,1.047,space,0.59,0,67,67,51,1,9_dist_red/trial2.png,,,1,9,redHorizontal,p,62,19,F,2021-02-19_15h36.01.078,exp11,2020.2.6,MacIntel,60,,,,,,,,,,,
,,,,,,,,,,,,,,p,1,0.819,space,0.47,0,68,68,34,1,3_dist_red/trial10.png,,,1,3,redHorizontal,p,62,19,F,2021-02-19_15h36.01.078,exp11,2020.2.6,MacIntel,60,,,,,,,,,,,
,,,,,,,,,,,,,,p,1,0.977,space,0.486,0,69,69,76,1,15_dist_red/trial2.png,,,1,15,redHorizontal,p,62,19,F,2021-02-19_15h36.01.078,exp11,2020.2.6,MacIntel,60,,,,,,,,,,,
,,,,,,,,,,,,,,p,1,0.739,space,0.526,0,70,70,72,1,9_dist_red/trial23.png,,,1,9,redHorizontal,p,62,19,F,2021-02-19_15h36.01.078,exp11,2020.2.6,MacIntel,60,,,,,,,,,,,
,,,,,,,,,,,,,,p,1,0.854,space,0.538,0,71,71,81,1,15_dist_red/trial7.png,,,1,15,redHorizontal,p,62,19,F,2021-02-19_15h36.01.078,exp11,2020.2.6,MacIntel,60,,,,,,,,,,,
,,,,,,,,,,,,,,a,1,0.695,space,0.497,0,72,72,142,1,0_targ_4_dist_red/trial18.png,,,0,4,redHorizontal,a,62,19,F,2021-02-19_15h36.01.078,exp11,2020.2.6,MacIntel,60,,,,,,,,,,,
,,,,,,,,,,,,,,p,1,0.944,space,0.474,0,73,73,98,1,15_dist_red/trial24.png,,,1,15,redHorizontal,p,62,19,F,2021-02-19_15h36.01.078,exp11,2020.2.6,MacIntel,60,,,,,,,,,,,
,,,,,,,,,,,,,,a,1,1.294,space,0.594,0,74,74,154,1,0_targ_10_dist_red/trial5.png,,,0,10,redHorizontal,a,62,19,F,2021-02-19_15h36.01.078,exp11,2020.2.6,MacIntel,60,,,,,,,,,,,
,,,,,,,,,,,,,,p,1,0.826,space,0.519,0,75,75,37,1,3_dist_red/trial13.png,,,1,3,redHorizontal,p,62,19,F,2021-02-19_15h36.01.078,exp11,2020.2.6,MacIntel,60,,,,,,,,,,,
,,,,,,,,,,,,,,a,1,0.803,space,0.34,0,76,76,153,1,0_targ_10_dist_red/trial4.png,,,0,10,redHorizontal,a,62,19,F,2021-02-19_15h36.01.078,exp11,2020.2.6,MacIntel,60,,,,,,,,,,,
,,,,,,,,,,,,,,a,1,0.76,space,0.444,0,77,77,168,1,0_targ_10_dist_red/trial19.png,,,0,10,redHorizontal,a,62,19,F,2021-02-19_15h36.01.078,exp11,2020.2.6,MacIntel,60,,,,,,,,,,,
,,,,,,,,,,,,,,a,1,0.952,space,0.274,0,78,78,185,1,0_targ_16_dist_red/trial11.png,,,0,16,redHorizontal,a,62,19,F,2021-02-19_15h36.01.078,exp11,2020.2.6,MacIntel,60,,,,,,,,,,,
,,,,,,,,,,,,,,a,1,0.611,space,0.487,0,79,79,162,1,0_targ_10_dist_red/trial13.png,,,0,10,redHorizontal,a,62,19,F,2021-02-19_15h36.01.078,exp11,2020.2.6,MacIntel,60,,,,,,,,,,,
,,,,,,,,,,,,,,p,1,0.818,space,0.975,0,80,80,50,1,9_dist_red/trial1.png,,,1,9,redHorizontal,p,62,19,F,2021-02-19_15h36.01.078,exp11,2020.2.6,MacIntel,60,,,,,,,,,,,
,,,,,,,,,,,,,,p,1,0.691,space,1.661,0,81,81,52,1,9_dist_red/trial3.png,,,1,9,redHorizontal,p,62,19,F,2021-02-19_15h36.01.078,exp11,2020.2.6,MacIntel,60,,,,,,,,,,,
,,,,,,,,,,,,,,p,1,0.596,space,0.439,0,82,82,38,1,3_dist_red/trial14.png,,,1,3,redHorizontal,p,62,19,F,2021-02-19_15h36.01.078,exp11,2020.2.6,MacIntel,60,,,,,,,,,,,
,,,,,,,,,,,,,,p,1,0.747,space,0.39,0,83,83,82,1,15_dist_red/trial8.png,,,1,15,redHorizontal,p,62,19,F,2021-02-19_15h36.01.078,exp11,2020.2.6,MacIntel,60,,,,,,,,,,,
,,,,,,,,,,,,,,p,1,0.706,space,0.505,0,84,84,96,1,15_dist_red/trial22.png,,,1,15,redHorizontal,p,62,19,F,2021-02-19_15h36.01.078,exp11,2020.2.6,MacIntel,60,,,,,,,,,,,
,,,,,,,,,,,,,,a,1,0.688,space,0.501,0,85,85,111,1,0_targ_1_dist_red/trial12.png,,,0,1,redHorizontal,a,62,19,F,2021-02-19_15h36.01.078,exp11,2020.2.6,MacIntel,60,,,,,,,,,,,
,,,,,,,,,,,,,,a,0,0.694,space,0.544,0,86,86,35,1,3_dist_red/trial11.png,,,1,3,redHorizontal,p,62,19,F,2021-02-19_15h36.01.078,exp11,2020.2.6,MacIntel,60,,,,,,,,,,,
,,,,,,,,,,,,,,a,1,1.494,space,0.341,0,87,87,177,1,0_targ_16_dist_red/trial3.png,,,0,16,redHorizontal,a,62,19,F,2021-02-19_15h36.01.078,exp11,2020.2.6,MacIntel,60,,,,,,,,,,,
,,,,,,,,,,,,,,a,1,3.215,space,0.213,0,88,88,133,1,0_targ_4_dist_red/trial9.png,,,0,4,redHorizontal,a,62,19,F,2021-02-19_15h36.01.078,exp11,2020.2.6,MacIntel,60,,,,,,,,,,,
,,,,,,,,,,,,,,p,1,0.646,space,0.372,0,89,89,91,1,15_dist_red/trial17.png,,,1,15,redHorizontal,p,62,19,F,2021-02-19_15h36.01.078,exp11,2020.2.6,MacIntel,60,,,,,,,,,,,
,,,,,,,,,,,,,,a,1,0.95,space,0.335,0,90,90,120,1,0_targ_1_dist_red/trial21.png,,,0,1,redHorizontal,a,62,19,F,2021-02-19_15h36.01.078,exp11,2020.2.6,MacIntel,60,,,,,,,,,,,
,,,,,,,,,,,,,,p,1,1.254,space,0.324,0,91,91,66,1,9_dist_red/trial17.png,,,1,9,redHorizontal,p,62,19,F,2021-02-19_15h36.01.078,exp11,2020.2.6,MacIntel,60,,,,,,,,,,,
,,,,,,,,,,,,,,a,1,0.74,space,0.356,0,92,92,184,1,0_targ_16_dist_red/trial10.png,,,0,16,redHorizontal,a,62,19,F,2021-02-19_15h36.01.078,exp11,2020.2.6,MacIntel,60,,,,,,,,,,,
,,,,,,,,,,,,,,p,1,0.678,space,0.377,0,93,93,26,1,3_dist_red/trial2.png,,,1,3,redHorizontal,p,62,19,F,2021-02-19_15h36.01.078,exp11,2020.2.6,MacIntel,60,,,,,,,,,,,
,,,,,,,,,,,,,,p,1,0.642,space,0.398,0,94,94,4,1,0_dist_red/trial5.png,,,1,0,redHorizontal,p,62,19,F,2021-02-19_15h36.01.078,exp11,2020.2.6,MacIntel,60,,,,,,,,,,,
,,,,,,,,,,,,,,a,1,0.715,space,0.372,0,95,95,165,1,0_targ_10_dist_red/trial16.png,,,0,10,redHorizontal,a,62,19,F,2021-02-19_15h36.01.078,exp11,2020.2.6,MacIntel,60,,,,,,,,,,,
,,,,,,,,,,,,,,p,1,0.651,space,0.326,0,96,96,68,1,9_dist_red/trial19.png,,,1,9,redHorizontal,p,62,19,F,2021-02-19_15h36.01.078,exp11,2020.2.6,MacIntel,60,,,,,,,,,,,
,,,,,,,,,,,,,,p,1,1.029,space,0.221,0,97,97,53,1,9_dist_red/trial4.png,,,1,9,redHorizontal,p,62,19,F,2021-02-19_15h36.01.078,exp11,2020.2.6,MacIntel,60,,,,,,,,,,,
,,,,,,,,,,,,,,a,1,0.696,space,0.368,0,98,98,129,1,0_targ_4_dist_red/trial5.png,,,0,4,redHorizontal,a,62,19,F,2021-02-19_15h36.01.078,exp11,2020.2.6,MacIntel,60,,,,,,,,,,,
,,,,,,,,,,,,,,a,1,2.199,space,0.204,0,99,99,102,1,0_targ_1_dist_red/trial3.png,,,0,1,redHorizontal,a,62,19,F,2021-02-19_15h36.01.078,exp11,2020.2.6,MacIntel,60,,,,,,,,,,,
,,,,,,,,,,,,,,a,1,0.859,space,0.394,0,100,100,161,1,0_targ_10_dist_red/trial12.png,,,0,10,redHorizontal,a,62,19,F,2021-02-19_15h36.01.078,exp11,2020.2.6,MacIntel,60,,,,,,,,,,,
,,,,,,,,,,,,,,a,1,0.747,space,0.54,0,101,101,192,1,0_targ_16_dist_red/trial18.png,,,0,16,redHorizontal,a,62,19,F,2021-02-19_15h36.01.078,exp11,2020.2.6,MacIntel,60,,,,,,,,,,,
,,,,,,,,,,,,,,a,1,0.843,space,0.43,0,102,102,146,1,0_targ_4_dist_red/trial22.png,,,0,4,redHorizontal,a,62,19,F,2021-02-19_15h36.01.078,exp11,2020.2.6,MacIntel,60,,,,,,,,,,,
,,,,,,,,,,,,,,a,1,0.729,space,0.853,0,103,103,113,1,0_targ_1_dist_red/trial14.png,,,0,1,redHorizontal,a,62,19,F,2021-02-19_15h36.01.078,exp11,2020.2.6,MacIntel,60,,,,,,,,,,,
,,,,,,,,,,,,,,a,1,0.532,space,0.445,0,104,104,116,1,0_targ_1_dist_red/trial17.png,,,0,1,redHorizontal,a,62,19,F,2021-02-19_15h36.01.078,exp11,2020.2.6,MacIntel,60,,,,,,,,,,,
,,,,,,,,,,,,,,a,1,0.761,space,0.33,0,105,105,198,1,0_targ_16_dist_red/trial24.png,,,0,16,redHorizontal,a,62,19,F,2021-02-19_15h36.01.078,exp11,2020.2.6,MacIntel,60,,,,,,,,,,,
,,,,,,,,,,,,,,a,1,0.651,space,0.459,0,106,106,149,1,0_targ_4_dist_red/trial25.png,,,0,4,redHorizontal,a,62,19,F,2021-02-19_15h36.01.078,exp11,2020.2.6,MacIntel,60,,,,,,,,,,,
,,,,,,,,,,,,,,a,1,0.542,space,0.808,0,107,107,139,1,0_targ_4_dist_red/trial15.png,,,0,4,redHorizontal,a,62,19,F,2021-02-19_15h36.01.078,exp11,2020.2.6,MacIntel,60,,,,,,,,,,,
,,,,,,,,,,,,,,p,1,0.607,space,0.506,0,108,108,8,1,0_dist_red/trial9.png,,,1,0,redHorizontal,p,62,19,F,2021-02-19_15h36.01.078,exp11,2020.2.6,MacIntel,60,,,,,,,,,,,
,,,,,,,,,,,,,,p,1,0.565,space,0.587,0,109,109,23,1,0_dist_red/trial24.png,,,1,0,redHorizontal,p,62,19,F,2021-02-19_15h36.01.078,exp11,2020.2.6,MacIntel,60,,,,,,,,,,,
,,,,,,,,,,,,,,p,1,0.678,space,0.433,0,110,110,2,1,0_dist_red/trial3.png,,,1,0,redHorizontal,p,62,19,F,2021-02-19_15h36.01.078,exp11,2020.2.6,MacIntel,60,,,,,,,,,,,
,,,,,,,,,,,,,,p,1,1.023,space,0.405,0,111,111,77,1,15_dist_red/trial3.png,,,1,15,redHorizontal,p,62,19,F,2021-02-19_15h36.01.078,exp11,2020.2.6,MacIntel,60,,,,,,,,,,,
,,,,,,,,,,,,,,a,1,0.74,space,0.303,0,112,112,143,1,0_targ_4_dist_red/trial19.png,,,0,4,redHorizontal,a,62,19,F,2021-02-19_15h36.01.078,exp11,2020.2.6,MacIntel,60,,,,,,,,,,,
,,,,,,,,,,,,,,p,1,1.105,space,0.271,0,113,113,17,1,0_dist_red/trial18.png,,,1,0,redHorizontal,p,62,19,F,2021-02-19_15h36.01.078,exp11,2020.2.6,MacIntel,60,,,,,,,,,,,
,,,,,,,,,,,,,,p,1,0.559,space,0.488,0,114,114,3,1,0_dist_red/trial4.png,,,1,0,redHorizontal,p,62,19,F,2021-02-19_15h36.01.078,exp11,2020.2.6,MacIntel,60,,,,,,,,,,,
,,,,,,,,,,,,,,a,1,0.675,space,0.419,0,115,115,156,1,0_targ_10_dist_red/trial7.png,,,0,10,redHorizontal,a,62,19,F,2021-02-19_15h36.01.078,exp11,2020.2.6,MacIntel,60,,,,,,,,,,,
,,,,,,,,,,,,,,a,0,0.775,space,0.238,0,116,116,89,1,15_dist_red/trial15.png,,,1,15,redHorizontal,p,62,19,F,2021-02-19_15h36.01.078,exp11,2020.2.6,MacIntel,60,,,,,,,,,,,
,,,,,,,,,,,,,,a,1,1.726,space,0.235,0,117,117,187,1,0_targ_16_dist_red/trial13.png,,,0,16,redHorizontal,a,62,19,F,2021-02-19_15h36.01.078,exp11,2020.2.6,MacIntel,60,,,,,,,,,,,
,,,,,,,,,,,,,,p,1,0.833,space,0.405,0,118,118,31,1,3_dist_red/trial7.png,,,1,3,redHorizontal,p,62,19,F,2021-02-19_15h36.01.078,exp11,2020.2.6,MacIntel,60,,,,,,,,,,,
,,,,,,,,,,,,,,p,1,0.659,space,0.245,0,119,119,43,1,3_dist_red/trial19.png,,,1,3,redHorizontal,p,62,19,F,2021-02-19_15h36.01.078,exp11,2020.2.6,MacIntel,60,,,,,,,,,,,
,,,,,,,,,,,,,,a,1,0.941,space,0.217,0,120,120,112,1,0_targ_1_dist_red/trial13.png,,,0,1,redHorizontal,a,62,19,F,2021-02-19_15h36.01.078,exp11,2020.2.6,MacIntel,60,,,,,,,,,,,
,,,,,,,,,,,,,,a,1,1.821,space,0.252,0,121,121,108,1,0_targ_1_dist_red/trial9.png,,,0,1,redHorizontal,a,62,19,F,2021-02-19_15h36.01.078,exp11,2020.2.6,MacIntel,60,,,,,,,,,,,
,,,,,,,,,,,,,,p,1,0.775,space,0.463,0,122,122,47,1,3_dist_red/trial23.png,,,1,3,redHorizontal,p,62,19,F,2021-02-19_15h36.01.078,exp11,2020.2.6,MacIntel,60,,,,,,,,,,,
,,,,,,,,,,,,,,a,1,1.377,space,0.221,0,123,123,107,1,0_targ_1_dist_red/trial8.png,,,0,1,redHorizontal,a,62,19,F,2021-02-19_15h36.01.078,exp11,2020.2.6,MacIntel,60,,,,,,,,,,,
,,,,,,,,,,,,,,p,1,1.362,space,0.191,0,124,124,87,1,15_dist_red/trial13.png,,,1,15,redHorizontal,p,62,19,F,2021-02-19_15h36.01.078,exp11,2020.2.6,MacIntel,60,,,,,,,,,,,
,,,,,,,,,,,,,,a,1,0.928,space,0.188,0,125,125,127,1,0_targ_4_dist_red/trial3.png,,,0,4,redHorizontal,a,62,19,F,2021-02-19_15h36.01.078,exp11,2020.2.6,MacIntel,60,,,,,,,,,,,
,,,,,,,,,,,,,,p,1,0.951,space,0.63,0,126,126,78,1,15_dist_red/trial4.png,,,1,15,redHorizontal,p,62,19,F,2021-02-19_15h36.01.078,exp11,2020.2.6,MacIntel,60,,,,,,,,,,,
,,,,,,,,,,,,,,a,1,0.9,space,0.307,0,127,127,148,1,0_targ_4_dist_red/trial24.png,,,0,4,redHorizontal,a,62,19,F,2021-02-19_15h36.01.078,exp11,2020.2.6,MacIntel,60,,,,,,,,,,,
,,,,,,,,,,,,,,p,1,0.648,space,0.477,0,128,128,45,1,3_dist_red/trial21.png,,,1,3,redHorizontal,p,62,19,F,2021-02-19_15h36.01.078,exp11,2020.2.6,MacIntel,60,,,,,,,,,,,
,,,,,,,,,,,,,,p,1,1.176,space,0.605,0,129,129,55,1,9_dist_red/trial6.png,,,1,9,redHorizontal,p,62,19,F,2021-02-19_15h36.01.078,exp11,2020.2.6,MacIntel,60,,,,,,,,,,,
,,,,,,,,,,,,,,p,1,0.647,space,0.322,0,130,130,14,1,0_dist_red/trial15.png,,,1,0,redHorizontal,p,62,19,F,2021-02-19_15h36.01.078,exp11,2020.2.6,MacIntel,60,,,,,,,,,,,
,,,,,,,,,,,,,,a,1,0.663,space,0.313,0,131,131,128,1,0_targ_4_dist_red/trial4.png,,,0,4,redHorizontal,a,62,19,F,2021-02-19_15h36.01.078,exp11,2020.2.6,MacIntel,60,,,,,,,,,,,
,,,,,,,,,,,,,,a,1,1.329,space,0.223,0,132,132,131,1,0_targ_4_dist_red/trial7.png,,,0,4,redHorizontal,a,62,19,F,2021-02-19_15h36.01.078,exp11,2020.2.6,MacIntel,60,,,,,,,,,,,
,,,,,,,,,,,,,,p,1,0.71,space,0.239,0,133,133,56,1,9_dist_red/trial7.png,,,1,9,redHorizontal,p,62,19,F,2021-02-19_15h36.01.078,exp11,2020.2.6,MacIntel,60,,,,,,,,,,,
,,,,,,,,,,,,,,a,1,0.761,space,0.375,0,134,134,137,1,0_targ_4_dist_red/trial13.png,,,0,4,redHorizontal,a,62,19,F,2021-02-19_15h36.01.078,exp11,2020.2.6,MacIntel,60,,,,,,,,,,,
,,,,,,,,,,,,,,a,1,2.172,space,0.589,0,135,135,114,1,0_targ_1_dist_red/trial15.png,,,0,1,redHorizontal,a,62,19,F,2021-02-19_15h36.01.078,exp11,2020.2.6,MacIntel,60,,,,,,,,,,,
,,,,,,,,,,,,,,a,1,1.903,space,0.24,0,136,136,176,1,0_targ_16_dist_red/trial2.png,,,0,16,redHorizontal,a,62,19,F,2021-02-19_15h36.01.078,exp11,2020.2.6,MacIntel,60,,,,,,,,,,,
,,,,,,,,,,,,,,a,1,0.831,space,0.606,0,137,137,191,1,0_targ_16_dist_red/trial17.png,,,0,16,redHorizontal,a,62,19,F,2021-02-19_15h36.01.078,exp11,2020.2.6,MacIntel,60,,,,,,,,,,,
,,,,,,,,,,,,,,a,1,0.666,space,0.419,0,138,138,159,1,0_targ_10_dist_red/trial10.png,,,0,10,redHorizontal,a,62,19,F,2021-02-19_15h36.01.078,exp11,2020.2.6,MacIntel,60,,,,,,,,,,,
,,,,,,,,,,,,,,a,1,1.052,space,0.273,0,139,139,119,1,0_targ_1_dist_red/trial20.png,,,0,1,redHorizontal,a,62,19,F,2021-02-19_15h36.01.078,exp11,2020.2.6,MacIntel,60,,,,,,,,,,,
,,,,,,,,,,,,,,a,1,0.835,space,0.372,0,140,140,197,1,0_targ_16_dist_red/trial23.png,,,0,16,redHorizontal,a,62,19,F,2021-02-19_15h36.01.078,exp11,2020.2.6,MacIntel,60,,,,,,,,,,,
,,,,,,,,,,,,,,p,1,0.891,space,0.258,0,141,141,84,1,15_dist_red/trial10.png,,,1,15,redHorizontal,p,62,19,F,2021-02-19_15h36.01.078,exp11,2020.2.6,MacIntel,60,,,,,,,,,,,
,,,,,,,,,,,,,,a,1,0.918,space,0.194,0,142,142,160,1,0_targ_10_dist_red/trial11.png,,,0,10,redHorizontal,a,62,19,F,2021-02-19_15h36.01.078,exp11,2020.2.6,MacIntel,60,,,,,,,,,,,
,,,,,,,,,,,,,,p,1,1.065,space,0.34,0,143,143,90,1,15_dist_red/trial16.png,,,1,15,redHorizontal,p,62,19,F,2021-02-19_15h36.01.078,exp11,2020.2.6,MacIntel,60,,,,,,,,,,,
,,,,,,,,,,,,,,p,1,0.63,space,0.491,0,144,144,19,1,0_dist_red/trial20.png,,,1,0,redHorizontal,p,62,19,F,2021-02-19_15h36.01.078,exp11,2020.2.6,MacIntel,60,,,,,,,,,,,
,,,,,,,,,,,,,,a,1,0.629,space,0.253,0,145,145,109,1,0_targ_1_dist_red/trial10.png,,,0,1,redHorizontal,a,62,19,F,2021-02-19_15h36.01.078,exp11,2020.2.6,MacIntel,60,,,,,,,,,,,
,,,,,,,,,,,,,,p,1,0.64,space,0.237,0,146,146,83,1,15_dist_red/trial9.png,,,1,15,redHorizontal,p,62,19,F,2021-02-19_15h36.01.078,exp11,2020.2.6,MacIntel,60,,,,,,,,,,,
,,,,,,,,,,,,,,p,1,0.676,space,0.227,0,147,147,29,1,3_dist_red/trial5.png,,,1,3,redHorizontal,p,62,19,F,2021-02-19_15h36.01.078,exp11,2020.2.6,MacIntel,60,,,,,,,,,,,
,,,,,,,,,,,,,,p,1,0.702,space,0.298,0,148,148,63,1,9_dist_red/trial14.png,,,1,9,redHorizontal,p,62,19,F,2021-02-19_15h36.01.078,exp11,2020.2.6,MacIntel,60,,,,,,,,,,,
,,,,,,,,,,,,,,a,1,0.644,space,0.217,0,149,149,136,1,0_targ_4_dist_red/trial12.png,,,0,4,redHorizontal,a,62,19,F,2021-02-19_15h36.01.078,exp11,2020.2.6,MacIntel,60,,,,,,,,,,,
,,,,,,,,,,,,,,a,1,1.029,space,0.158,0,150,150,150,1,0_targ_10_dist_red/trial1.png,,,0,10,redHorizontal,a,62,19,F,2021-02-19_15h36.01.078,exp11,2020.2.6,MacIntel,60,,,,,,,,,,,
,,,,,,,,,,,,,,a,1,1.045,space,0.156,0,151,151,190,1,0_targ_16_dist_red/trial16.png,,,0,16,redHorizontal,a,62,19,F,2021-02-19_15h36.01.078,exp11,2020.2.6,MacIntel,60,,,,,,,,,,,
,,,,,,,,,,,,,,a,1,0.727,space,0.189,0,152,152,101,1,0_targ_1_dist_red/trial2.png,,,0,1,redHorizontal,a,62,19,F,2021-02-19_15h36.01.078,exp11,2020.2.6,MacIntel,60,,,,,,,,,,,
,,,,,,,,,,,,,,a,1,0.669,space,0.471,0,153,153,118,1,0_targ_1_dist_red/trial19.png,,,0,1,redHorizontal,a,62,19,F,2021-02-19_15h36.01.078,exp11,2020.2.6,MacIntel,60,,,,,,,,,,,
,,,,,,,,,,,,,,p,1,0.707,space,0.541,0,154,154,22,1,0_dist_red/trial23.png,,,1,0,redHorizontal,p,62,19,F,2021-02-19_15h36.01.078,exp11,2020.2.6,MacIntel,60,,,,,,,,,,,
,,,,,,,,,,,,,,a,1,1.601,space,0.374,0,155,155,170,1,0_targ_10_dist_red/trial21.png,,,0,10,redHorizontal,a,62,19,F,2021-02-19_15h36.01.078,exp11,2020.2.6,MacIntel,60,,,,,,,,,,,
,,,,,,,,,,,,,,a,1,0.777,space,0.348,0,156,156,105,1,0_targ_1_dist_red/trial6.png,,,0,1,redHorizontal,a,62,19,F,2021-02-19_15h36.01.078,exp11,2020.2.6,MacIntel,60,,,,,,,,,,,
,,,,,,,,,,,,,,p,1,0.64,space,0.473,0,157,157,71,1,9_dist_red/trial22.png,,,1,9,redHorizontal,p,62,19,F,2021-02-19_15h36.01.078,exp11,2020.2.6,MacIntel,60,,,,,,,,,,,
,,,,,,,,,,,,,,a,1,0.692,space,0.429,0,158,158,145,1,0_targ_4_dist_red/trial21.png,,,0,4,redHorizontal,a,62,19,F,2021-02-19_15h36.01.078,exp11,2020.2.6,MacIntel,60,,,,,,,,,,,
,,,,,,,,,,,,,,a,1,0.694,space,0.42,0,159,159,181,1,0_targ_16_dist_red/trial7.png,,,0,16,redHorizontal,a,62,19,F,2021-02-19_15h36.01.078,exp11,2020.2.6,MacIntel,60,,,,,,,,,,,
,,,,,,,,,,,,,,a,1,0.743,space,0.389,0,160,160,196,1,0_targ_16_dist_red/trial22.png,,,0,16,redHorizontal,a,62,19,F,2021-02-19_15h36.01.078,exp11,2020.2.6,MacIntel,60,,,,,,,,,,,
,,,,,,,,,,,,,,p,1,0.684,space,0.353,0,161,161,67,1,9_dist_red/trial18.png,,,1,9,redHorizontal,p,62,19,F,2021-02-19_15h36.01.078,exp11,2020.2.6,MacIntel,60,,,,,,,,,,,
,,,,,,,,,,,,,,a,1,0.811,space,0.539,0,162,162,195,1,0_targ_16_dist_red/trial21.png,,,0,16,redHorizontal,a,62,19,F,2021-02-19_15h36.01.078,exp11,2020.2.6,MacIntel,60,,,,,,,,,,,
,,,,,,,,,,,,,,a,1,0.694,space,0.328,0,163,163,135,1,0_targ_4_dist_red/trial11.png,,,0,4,redHorizontal,a,62,19,F,2021-02-19_15h36.01.078,exp11,2020.2.6,MacIntel,60,,,,,,,,,,,
,,,,,,,,,,,,,,p,1,0.651,space,0.378,0,164,164,46,1,3_dist_red/trial22.png,,,1,3,redHorizontal,p,62,19,F,2021-02-19_15h36.01.078,exp11,2020.2.6,MacIntel,60,,,,,,,,,,,
,,,,,,,,,,,,,,a,1,0.983,space,0.356,0,165,165,188,1,0_targ_16_dist_red/trial14.png,,,0,16,redHorizontal,a,62,19,F,2021-02-19_15h36.01.078,exp11,2020.2.6,MacIntel,60,,,,,,,,,,,
,,,,,,,,,,,,,,a,0,0.94,space,0.824,0,166,166,99,1,15_dist_red/trial25.png,,,1,15,redHorizontal,p,62,19,F,2021-02-19_15h36.01.078,exp11,2020.2.6,MacIntel,60,,,,,,,,,,,
,,,,,,,,,,,,,,p,1,0.677,space,0.3,0,167,167,97,1,15_dist_red/trial23.png,,,1,15,redHorizontal,p,62,19,F,2021-02-19_15h36.01.078,exp11,2020.2.6,MacIntel,60,,,,,,,,,,,
,,,,,,,,,,,,,,p,1,0.894,space,0.306,0,168,168,58,1,9_dist_red/trial9.png,,,1,9,redHorizontal,p,62,19,F,2021-02-19_15h36.01.078,exp11,2020.2.6,MacIntel,60,,,,,,,,,,,
,,,,,,,,,,,,,,p,1,0.652,space,0.558,0,169,169,7,1,0_dist_red/trial8.png,,,1,0,redHorizontal,p,62,19,F,2021-02-19_15h36.01.078,exp11,2020.2.6,MacIntel,60,,,,,,,,,,,
,,,,,,,,,,,,,,a,0,0.713,space,0.015,0,170,170,75,1,15_dist_red/trial1.png,,,1,15,redHorizontal,p,62,19,F,2021-02-19_15h36.01.078,exp11,2020.2.6,MacIntel,60,,,,,,,,,,,
,,,,,,,,,,,,,,p,1,1.612,space,0.518,0,171,171,65,1,9_dist_red/trial16.png,,,1,9,redHorizontal,p,62,19,F,2021-02-19_15h36.01.078,exp11,2020.2.6,MacIntel,60,,,,,,,,,,,
,,,,,,,,,,,,,,p,1,1.017,space,0.351,0,172,172,70,1,9_dist_red/trial21.png,,,1,9,redHorizontal,p,62,19,F,2021-02-19_15h36.01.078,exp11,2020.2.6,MacIntel,60,,,,,,,,,,,
,,,,,,,,,,,,,,a,1,1.042,space,0.303,0,173,173,179,1,0_targ_16_dist_red/trial5.png,,,0,16,redHorizontal,a,62,19,F,2021-02-19_15h36.01.078,exp11,2020.2.6,MacIntel,60,,,,,,,,,,,
,,,,,,,,,,,,,,p,1,0.637,space,0.335,0,174,174,11,1,0_dist_red/trial12.png,,,1,0,redHorizontal,p,62,19,F,2021-02-19_15h36.01.078,exp11,2020.2.6,MacIntel,60,,,,,,,,,,,
,,,,,,,,,,,,,,a,1,1.75,space,0.531,0,175,175,186,1,0_targ_16_dist_red/trial12.png,,,0,16,redHorizontal,a,62,19,F,2021-02-19_15h36.01.078,exp11,2020.2.6,MacIntel,60,,,,,,,,,,,
,,,,,,,,,,,,,,a,1,0.861,space,0.337,0,176,176,163,1,0_targ_10_dist_red/trial14.png,,,0,10,redHorizontal,a,62,19,F,2021-02-19_15h36.01.078,exp11,2020.2.6,MacIntel,60,,,,,,,,,,,
,,,,,,,,,,,,,,a,1,0.791,space,0.493,0,177,177,115,1,0_targ_1_dist_red/trial6.png,,,0,1,redHorizontal,a,62,19,F,2021-02-19_15h36.01.078,exp11,2020.2.6,MacIntel,60,,,,,,,,,,,
,,,,,,,,,,,,,,p,1,0.845,space,0.339,0,178,178,28,1,3_dist_red/trial4.png,,,1,3,redHorizontal,p,62,19,F,2021-02-19_15h36.01.078,exp11,2020.2.6,MacIntel,60,,,,,,,,,,,
,,,,,,,,,,,,,,a,1,0.863,space,0.487,0,179,179,132,1,0_targ_4_dist_red/trial8.png,,,0,4,redHorizontal,a,62,19,F,2021-02-19_15h36.01.078,exp11,2020.2.6,MacIntel,60,,,,,,,,,,,
,,,,,,,,,,,,,,p,1,0.875,space,0.353,0,180,180,12,1,0_dist_red/trial13.png,,,1,0,redHorizontal,p,62,19,F,2021-02-19_15h36.01.078,exp11,2020.2.6,MacIntel,60,,,,,,,,,,,
,,,,,,,,,,,,,,p,1,0.686,space,0.218,0,181,181,1,1,0_dist_red/trial2.png,,,1,0,redHorizontal,p,62,19,F,2021-02-19_15h36.01.078,exp11,2020.2.6,MacIntel,60,,,,,,,,,,,
,,,,,,,,,,,,,,a,1,0.674,space,0.308,0,182,182,169,1,0_targ_10_dist_red/trial20.png,,,0,10,redHorizontal,a,62,19,F,2021-02-19_15h36.01.078,exp11,2020.2.6,MacIntel,60,,,,,,,,,,,
,,,,,,,,,,,,,,a,1,0.762,space,0.206,0,183,183,140,1,0_targ_4_dist_red/trial6.png,,,0,4,redHorizontal,a,62,19,F,2021-02-19_15h36.01.078,exp11,2020.2.6,MacIntel,60,,,,,,,,,,,
,,,,,,,,,,,,,,p,1,0.696,space,0.429,0,184,184,61,1,9_dist_red/trial12.png,,,1,9,redHorizontal,p,62,19,F,2021-02-19_15h36.01.078,exp11,2020.2.6,MacIntel,60,,,,,,,,,,,
,,,,,,,,,,,,,,p,1,0.692,space,0.198,0,185,185,64,1,9_dist_red/trial15.png,,,1,9,redHorizontal,p,62,19,F,2021-02-19_15h36.01.078,exp11,2020.2.6,MacIntel,60,,,,,,,,,,,
,,,,,,,,,,,,,,a,1,0.796,space,0.46,0,186,186,183,1,0_targ_16_dist_red/trial9.png,,,0,16,redHorizontal,a,62,19,F,2021-02-19_15h36.01.078,exp11,2020.2.6,MacIntel,60,,,,,,,,,,,
,,,,,,,,,,,,,,a,1,0.753,space,0.305,0,187,187,178,1,0_targ_16_dist_red/trial4.png,,,0,16,redHorizontal,a,62,19,F,2021-02-19_15h36.01.078,exp11,2020.2.6,MacIntel,60,,,,,,,,,,,
,,,,,,,,,,,,,,p,1,1.011,space,0.47,0,188,188,16,1,0_dist_red/trial17.png,,,1,0,redHorizontal,p,62,19,F,2021-02-19_15h36.01.078,exp11,2020.2.6,MacIntel,60,,,,,,,,,,,
,,,,,,,,,,,,,,a,1,0.695,space,0.288,0,189,189,100,1,0_targ_1_dist_red/trial1.png,,,0,1,redHorizontal,a,62,19,F,2021-02-19_15h36.01.078,exp11,2020.2.6,MacIntel,60,,,,,,,,,,,
,,,,,,,,,,,,,,a,1,0.862,space,0.24,0,190,190,134,1,0_targ_4_dist_red/trial10.png,,,0,4,redHorizontal,a,62,19,F,2021-02-19_15h36.01.078,exp11,2020.2.6,MacIntel,60,,,,,,,,,,,
,,,,,,,,,,,,,,a,1,0.728,space,0.373,0,191,191,180,1,0_targ_16_dist_red/trial6.png,,,0,16,redHorizontal,a,62,19,F,2021-02-19_15h36.01.078,exp11,2020.2.6,MacIntel,60,,,,,,,,,,,
,,,,,,,,,,,,,,p,1,0.595,space,0.342,0,192,192,6,1,0_dist_red/trial7.png,,,1,0,redHorizontal,p,62,19,F,2021-02-19_15h36.01.078,exp11,2020.2.6,MacIntel,60,,,,,,,,,,,
,,,,,,,,,,,,,,p,1,0.695,space,0.305,0,193,193,44,1,3_dist_red/trial20.png,,,1,3,redHorizontal,p,62,19,F,2021-02-19_15h36.01.078,exp11,2020.2.6,MacIntel,60,,,,,,,,,,,
,,,,,,,,,,,,,,a,1,0.731,space,0.254,0,194,194,130,1,0_targ_4_dist_red/trial6.png,,,0,4,redHorizontal,a,62,19,F,2021-02-19_15h36.01.078,exp11,2020.2.6,MacIntel,60,,,,,,,,,,,
,,,,,,,,,,,,,,p,1,0.975,space,0.37,0,195,195,95,1,15_dist_red/trial21.png,,,1,15,redHorizontal,p,62,19,F,2021-02-19_15h36.01.078,exp11,2020.2.6,MacIntel,60,,,,,,,,,,,
,,,,,,,,,,,,,,a,0,0.706,space,0.435,0,196,196,57,1,9_dist_red/trial8.png,,,1,9,redHorizontal,p,62,19,F,2021-02-19_15h36.01.078,exp11,2020.2.6,MacIntel,60,,,,,,,,,,,
,,,,,,,,,,,,,,p,1,1.428,space,0.384,0,197,197,42,1,3_dist_red/trial18.png,,,1,3,redHorizontal,p,62,19,F,2021-02-19_15h36.01.078,exp11,2020.2.6,MacIntel,60,,,,,,,,,,,
,,,,,,,,,,,,,,a,1,0.625,space,0.338,0,198,198,138,1,0_targ_4_dist_red/trial14.png,,,0,4,redHorizontal,a,62,19,F,2021-02-19_15h36.01.078,exp11,2020.2.6,MacIntel,60,,,,,,,,,,,
,,,,,,,,,,,,,,a,1,0.93,space,0.698,0,199,199,125,1,0_targ_4_dist_red/trial1.png,,,0,4,redHorizontal,a,62,19,F,2021-02-19_15h36.01.078,exp11,2020.2.6,MacIntel,60,,,,,,,,,,,
,,,,,,,,,,,,,,,,,,,,,,,,,,,,,,,62,19,F,2021-02-19_15h36.01.078,exp11,2020.2.6,MacIntel,60,0,1,1,1,1,conRed.xlsx,red horizontal,Look for red horizontal bar (target) and indicate if it is present or absent in the array. If red horizontal target is present press 'p' and if absent press 'a'. Press SPACE to start.,,,
