key_resp_6.keys,key_resp_6.rt,key_resp_7.keys,key_resp_7.rt,key_resp_8.keys,key_resp_8.rt,key_resp_10.keys,key_resp_10.rt,key_resp_9.keys,key_resp_9.rt,key_resp_3.keys,key_resp_3.rt,key_resp_5.keys,key_resp_5.rt,key_resp.keys,key_resp.corr,key_resp.rt,key_resp_4.keys,key_resp_4.rt,trials.thisRepN,trials.thisTrialN,trials.thisN,trials.thisIndex,trials.ran,ImageFile,tarPos,tarSize,targPres,numDist,targetName,correctAns,participant,age,sex,date,expName,psychopyVersion,OS,frameRate,trials_2.thisRepN,trials_2.thisTrialN,trials_2.thisN,trials_2.thisIndex,trials_2.ran,condsFile,targName,instructionText,colTarget,sizeTarg,posit
space,0.73,space,0.391,space,0.376,space,0.615,space,2.107,space,0.421,space,120.518,p,1,1.315,space,2.721,0,0,0,58,1,9_dist_red/trial9.png,,,1,9,redHorizontal,p,63,21,M,2021-02-19_15h49.18.178,exp11,2020.2.6,MacIntel,60,,,,,,,,,,,
,,,,,,,,,,,,,,p,0,0.8,space,7.826,0,1,1,172,1,0_targ_10_dist_red/trial23.png,,,0,10,redHorizontal,a,63,21,M,2021-02-19_15h49.18.178,exp11,2020.2.6,MacIntel,60,,,,,,,,,,,
,,,,,,,,,,,,,,p,1,1.715,space,1.225,0,2,2,43,1,3_dist_red/trial19.png,,,1,3,redHorizontal,p,63,21,M,2021-02-19_15h49.18.178,exp11,2020.2.6,MacIntel,60,,,,,,,,,,,
,,,,,,,,,,,,,,p,1,0.912,space,0.592,0,3,3,91,1,15_dist_red/trial17.png,,,1,15,redHorizontal,p,63,21,M,2021-02-19_15h49.18.178,exp11,2020.2.6,MacIntel,60,,,,,,,,,,,
,,,,,,,,,,,,,,a,1,2.931,space,5.544,0,4,4,176,1,0_targ_16_dist_red/trial2.png,,,0,16,redHorizontal,a,63,21,M,2021-02-19_15h49.18.178,exp11,2020.2.6,MacIntel,60,,,,,,,,,,,
,,,,,,,,,,,,,,a,1,2.126,space,1.262,0,5,5,193,1,0_targ_16_dist_red/trial19.png,,,0,16,redHorizontal,a,63,21,M,2021-02-19_15h49.18.178,exp11,2020.2.6,MacIntel,60,,,,,,,,,,,
,,,,,,,,,,,,,,a,1,0.968,space,2.224,0,6,6,133,1,0_targ_4_dist_red/trial9.png,,,0,4,redHorizontal,a,63,21,M,2021-02-19_15h49.18.178,exp11,2020.2.6,MacIntel,60,,,,,,,,,,,
,,,,,,,,,,,,,,a,1,1.579,space,0.785,0,7,7,113,1,0_targ_1_dist_red/trial14.png,,,0,1,redHorizontal,a,63,21,M,2021-02-19_15h49.18.178,exp11,2020.2.6,MacIntel,60,,,,,,,,,,,
,,,,,,,,,,,,,,a,1,1.34,space,0.342,0,8,8,198,1,0_targ_16_dist_red/trial24.png,,,0,16,redHorizontal,a,63,21,M,2021-02-19_15h49.18.178,exp11,2020.2.6,MacIntel,60,,,,,,,,,,,
,,,,,,,,,,,,,,a,1,0.93,space,0.226,0,9,9,173,1,0_targ_10_dist_red/trial24.png,,,0,10,redHorizontal,a,63,21,M,2021-02-19_15h49.18.178,exp11,2020.2.6,MacIntel,60,,,,,,,,,,,
,,,,,,,,,,,,,,a,1,1.362,space,0.269,0,10,10,169,1,0_targ_10_dist_red/trial20.png,,,0,10,redHorizontal,a,63,21,M,2021-02-19_15h49.18.178,exp11,2020.2.6,MacIntel,60,,,,,,,,,,,
,,,,,,,,,,,,,,p,1,0.741,space,0.502,0,11,11,5,1,0_dist_red/trial6.png,,,1,0,redHorizontal,p,63,21,M,2021-02-19_15h49.18.178,exp11,2020.2.6,MacIntel,60,,,,,,,,,,,
,,,,,,,,,,,,,,p,1,0.629,space,0.387,0,12,12,4,1,0_dist_red/trial5.png,,,1,0,redHorizontal,p,63,21,M,2021-02-19_15h49.18.178,exp11,2020.2.6,MacIntel,60,,,,,,,,,,,
,,,,,,,,,,,,,,a,1,1.376,space,0.319,0,13,13,197,1,0_targ_16_dist_red/trial23.png,,,0,16,redHorizontal,a,63,21,M,2021-02-19_15h49.18.178,exp11,2020.2.6,MacIntel,60,,,,,,,,,,,
,,,,,,,,,,,,,,a,1,1.124,space,0.227,0,14,14,160,1,0_targ_10_dist_red/trial11.png,,,0,10,redHorizontal,a,63,21,M,2021-02-19_15h49.18.178,exp11,2020.2.6,MacIntel,60,,,,,,,,,,,
,,,,,,,,,,,,,,p,1,1.135,space,0.657,0,15,15,64,1,9_dist_red/trial15.png,,,1,9,redHorizontal,p,63,21,M,2021-02-19_15h49.18.178,exp11,2020.2.6,MacIntel,60,,,,,,,,,,,
,,,,,,,,,,,,,,a,1,0.933,space,0.296,0,16,16,145,1,0_targ_4_dist_red/trial21.png,,,0,4,redHorizontal,a,63,21,M,2021-02-19_15h49.18.178,exp11,2020.2.6,MacIntel,60,,,,,,,,,,,
,,,,,,,,,,,,,,p,1,0.858,space,0.536,0,17,17,66,1,9_dist_red/trial17.png,,,1,9,redHorizontal,p,63,21,M,2021-02-19_15h49.18.178,exp11,2020.2.6,MacIntel,60,,,,,,,,,,,
,,,,,,,,,,,,,,p,1,1.107,space,0.54,0,18,18,59,1,9_dist_red/trial10.png,,,1,9,redHorizontal,p,63,21,M,2021-02-19_15h49.18.178,exp11,2020.2.6,MacIntel,60,,,,,,,,,,,
,,,,,,,,,,,,,,p,1,0.876,space,0.355,0,19,19,95,1,15_dist_red/trial21.png,,,1,15,redHorizontal,p,63,21,M,2021-02-19_15h49.18.178,exp11,2020.2.6,MacIntel,60,,,,,,,,,,,
,,,,,,,,,,,,,,p,1,0.543,space,0.403,0,20,20,21,1,0_dist_red/trial22.png,,,1,0,redHorizontal,p,63,21,M,2021-02-19_15h49.18.178,exp11,2020.2.6,MacIntel,60,,,,,,,,,,,
,,,,,,,,,,,,,,p,1,1.063,space,0.307,0,21,21,86,1,15_dist_red/trial12.png,,,1,15,redHorizontal,p,63,21,M,2021-02-19_15h49.18.178,exp11,2020.2.6,MacIntel,60,,,,,,,,,,,
,,,,,,,,,,,,,,a,1,1.344,space,0.236,0,22,22,155,1,0_targ_10_dist_red/trial6.png,,,0,10,redHorizontal,a,63,21,M,2021-02-19_15h49.18.178,exp11,2020.2.6,MacIntel,60,,,,,,,,,,,
,,,,,,,,,,,,,,a,1,1.426,space,0.253,0,23,23,142,1,0_targ_4_dist_red/trial18.png,,,0,4,redHorizontal,a,63,21,M,2021-02-19_15h49.18.178,exp11,2020.2.6,MacIntel,60,,,,,,,,,,,
,,,,,,,,,,,,,,a,1,0.842,space,0.238,0,24,24,100,1,0_targ_1_dist_red/trial1.png,,,0,1,redHorizontal,a,63,21,M,2021-02-19_15h49.18.178,exp11,2020.2.6,MacIntel,60,,,,,,,,,,,
,,,,,,,,,,,,,,p,1,0.825,space,0.27,0,25,25,28,1,3_dist_red/trial4.png,,,1,3,redHorizontal,p,63,21,M,2021-02-19_15h49.18.178,exp11,2020.2.6,MacIntel,60,,,,,,,,,,,
,,,,,,,,,,,,,,p,1,1.128,space,0.265,0,26,26,74,1,9_dist_red/trial25.png,,,1,9,redHorizontal,p,63,21,M,2021-02-19_15h49.18.178,exp11,2020.2.6,MacIntel,60,,,,,,,,,,,
,,,,,,,,,,,,,,p,1,0.695,space,0.223,0,27,27,34,1,3_dist_red/trial10.png,,,1,3,redHorizontal,p,63,21,M,2021-02-19_15h49.18.178,exp11,2020.2.6,MacIntel,60,,,,,,,,,,,
,,,,,,,,,,,,,,a,1,1.147,space,0.187,0,28,28,118,1,0_targ_1_dist_red/trial19.png,,,0,1,redHorizontal,a,63,21,M,2021-02-19_15h49.18.178,exp11,2020.2.6,MacIntel,60,,,,,,,,,,,
,,,,,,,,,,,,,,p,1,0.609,space,0.226,0,29,29,14,1,0_dist_red/trial15.png,,,1,0,redHorizontal,p,63,21,M,2021-02-19_15h49.18.178,exp11,2020.2.6,MacIntel,60,,,,,,,,,,,
,,,,,,,,,,,,,,p,1,0.926,space,0.193,0,30,30,40,1,3_dist_red/trial16.png,,,1,3,redHorizontal,p,63,21,M,2021-02-19_15h49.18.178,exp11,2020.2.6,MacIntel,60,,,,,,,,,,,
,,,,,,,,,,,,,,a,1,1.028,space,0.196,0,31,31,180,1,0_targ_16_dist_red/trial6.png,,,0,16,redHorizontal,a,63,21,M,2021-02-19_15h49.18.178,exp11,2020.2.6,MacIntel,60,,,,,,,,,,,
,,,,,,,,,,,,,,a,1,0.91,space,0.202,0,32,32,139,1,0_targ_4_dist_red/trial15.png,,,0,4,redHorizontal,a,63,21,M,2021-02-19_15h49.18.178,exp11,2020.2.6,MacIntel,60,,,,,,,,,,,
,,,,,,,,,,,,,,a,1,1.289,space,0.176,0,33,33,175,1,0_targ_16_dist_red/trial1.png,,,0,16,redHorizontal,a,63,21,M,2021-02-19_15h49.18.178,exp11,2020.2.6,MacIntel,60,,,,,,,,,,,
,,,,,,,,,,,,,,p,1,0.661,space,0.222,0,34,34,71,1,9_dist_red/trial22.png,,,1,9,redHorizontal,p,63,21,M,2021-02-19_15h49.18.178,exp11,2020.2.6,MacIntel,60,,,,,,,,,,,
,,,,,,,,,,,,,,p,1,0.692,space,0.2,0,35,35,36,1,3_dist_red/trial12.png,,,1,3,redHorizontal,p,63,21,M,2021-02-19_15h49.18.178,exp11,2020.2.6,MacIntel,60,,,,,,,,,,,
,,,,,,,,,,,,,,p,1,0.613,space,0.336,0,36,36,47,1,3_dist_red/trial23.png,,,1,3,redHorizontal,p,63,21,M,2021-02-19_15h49.18.178,exp11,2020.2.6,MacIntel,60,,,,,,,,,,,
,,,,,,,,,,,,,,a,1,0.7,space,0.219,0,37,37,165,1,0_targ_10_dist_red/trial16.png,,,0,10,redHorizontal,a,63,21,M,2021-02-19_15h49.18.178,exp11,2020.2.6,MacIntel,60,,,,,,,,,,,
,,,,,,,,,,,,,,p,1,0.973,space,0.206,0,38,38,98,1,15_dist_red/trial24.png,,,1,15,redHorizontal,p,63,21,M,2021-02-19_15h49.18.178,exp11,2020.2.6,MacIntel,60,,,,,,,,,,,
,,,,,,,,,,,,,,p,1,0.576,space,0.24,0,39,39,9,1,0_dist_red/trial10.png,,,1,0,redHorizontal,p,63,21,M,2021-02-19_15h49.18.178,exp11,2020.2.6,MacIntel,60,,,,,,,,,,,
,,,,,,,,,,,,,,p,1,0.718,space,0.222,0,40,40,68,1,9_dist_red/trial19.png,,,1,9,redHorizontal,p,63,21,M,2021-02-19_15h49.18.178,exp11,2020.2.6,MacIntel,60,,,,,,,,,,,
,,,,,,,,,,,,,,p,1,0.61,space,0.206,0,41,41,48,1,3_dist_red/trial24.png,,,1,3,redHorizontal,p,63,21,M,2021-02-19_15h49.18.178,exp11,2020.2.6,MacIntel,60,,,,,,,,,,,
,,,,,,,,,,,,,,p,1,0.565,space,0.236,0,42,42,13,1,0_dist_red/trial14.png,,,1,0,redHorizontal,p,63,21,M,2021-02-19_15h49.18.178,exp11,2020.2.6,MacIntel,60,,,,,,,,,,,
,,,,,,,,,,,,,,p,1,1.255,space,0.206,0,43,43,80,1,15_dist_red/trial6.png,,,1,15,redHorizontal,p,63,21,M,2021-02-19_15h49.18.178,exp11,2020.2.6,MacIntel,60,,,,,,,,,,,
,,,,,,,,,,,,,,a,1,1.228,space,0.159,0,44,44,114,1,0_targ_1_dist_red/trial15.png,,,0,1,redHorizontal,a,63,21,M,2021-02-19_15h49.18.178,exp11,2020.2.6,MacIntel,60,,,,,,,,,,,
,,,,,,,,,,,,,,a,1,0.826,space,0.191,0,45,45,106,1,0_targ_1_dist_red/trial7.png,,,0,1,redHorizontal,a,63,21,M,2021-02-19_15h49.18.178,exp11,2020.2.6,MacIntel,60,,,,,,,,,,,
,,,,,,,,,,,,,,a,1,1.479,space,0.189,0,46,46,148,1,0_targ_4_dist_red/trial24.png,,,0,4,redHorizontal,a,63,21,M,2021-02-19_15h49.18.178,exp11,2020.2.6,MacIntel,60,,,,,,,,,,,
,,,,,,,,,,,,,,a,1,0.775,space,0.137,0,47,47,156,1,0_targ_10_dist_red/trial7.png,,,0,10,redHorizontal,a,63,21,M,2021-02-19_15h49.18.178,exp11,2020.2.6,MacIntel,60,,,,,,,,,,,
,,,,,,,,,,,,,,a,1,0.901,space,0.156,0,48,48,184,1,0_targ_16_dist_red/trial10.png,,,0,16,redHorizontal,a,63,21,M,2021-02-19_15h49.18.178,exp11,2020.2.6,MacIntel,60,,,,,,,,,,,
,,,,,,,,,,,,,,p,1,0.765,space,0.143,0,49,49,77,1,15_dist_red/trial3.png,,,1,15,redHorizontal,p,63,21,M,2021-02-19_15h49.18.178,exp11,2020.2.6,MacIntel,60,,,,,,,,,,,
,,,,,,,,,,,,,,a,1,1.111,space,0.136,0,50,50,196,1,0_targ_16_dist_red/trial22.png,,,0,16,redHorizontal,a,63,21,M,2021-02-19_15h49.18.178,exp11,2020.2.6,MacIntel,60,,,,,,,,,,,
,,,,,,,,,,,,,,a,1,0.842,space,0.138,0,51,51,126,1,0_targ_4_dist_red/trial2.png,,,0,4,redHorizontal,a,63,21,M,2021-02-19_15h49.18.178,exp11,2020.2.6,MacIntel,60,,,,,,,,,,,
,,,,,,,,,,,,,,p,1,0.812,space,0.19,0,52,52,54,1,9_dist_red/trial5.png,,,1,9,redHorizontal,p,63,21,M,2021-02-19_15h49.18.178,exp11,2020.2.6,MacIntel,60,,,,,,,,,,,
,,,,,,,,,,,,,,a,1,1.308,space,0.139,0,53,53,194,1,0_targ_16_dist_red/trial20.png,,,0,16,redHorizontal,a,63,21,M,2021-02-19_15h49.18.178,exp11,2020.2.6,MacIntel,60,,,,,,,,,,,
,,,,,,,,,,,,,,a,1,0.792,space,0.156,0,54,54,132,1,0_targ_4_dist_red/trial8.png,,,0,4,redHorizontal,a,63,21,M,2021-02-19_15h49.18.178,exp11,2020.2.6,MacIntel,60,,,,,,,,,,,
,,,,,,,,,,,,,,p,1,1.046,space,0.17,0,55,55,67,1,9_dist_red/trial18.png,,,1,9,redHorizontal,p,63,21,M,2021-02-19_15h49.18.178,exp11,2020.2.6,MacIntel,60,,,,,,,,,,,
,,,,,,,,,,,,,,a,1,0.826,space,0.155,0,56,56,154,1,0_targ_10_dist_red/trial5.png,,,0,10,redHorizontal,a,63,21,M,2021-02-19_15h49.18.178,exp11,2020.2.6,MacIntel,60,,,,,,,,,,,
,,,,,,,,,,,,,,p,1,0.692,space,0.172,0,57,57,70,1,9_dist_red/trial21.png,,,1,9,redHorizontal,p,63,21,M,2021-02-19_15h49.18.178,exp11,2020.2.6,MacIntel,60,,,,,,,,,,,
,,,,,,,,,,,,,,p,1,0.711,space,0.26,0,58,58,7,1,0_dist_red/trial8.png,,,1,0,redHorizontal,p,63,21,M,2021-02-19_15h49.18.178,exp11,2020.2.6,MacIntel,60,,,,,,,,,,,
,,,,,,,,,,,,,,a,1,0.845,space,0.223,0,59,59,108,1,0_targ_1_dist_red/trial9.png,,,0,1,redHorizontal,a,63,21,M,2021-02-19_15h49.18.178,exp11,2020.2.6,MacIntel,60,,,,,,,,,,,
,,,,,,,,,,,,,,a,1,0.699,space,0.205,0,60,60,112,1,0_targ_1_dist_red/trial13.png,,,0,1,redHorizontal,a,63,21,M,2021-02-19_15h49.18.178,exp11,2020.2.6,MacIntel,60,,,,,,,,,,,
,,,,,,,,,,,,,,p,1,0.943,space,0.155,0,61,61,93,1,15_dist_red/trial19.png,,,1,15,redHorizontal,p,63,21,M,2021-02-19_15h49.18.178,exp11,2020.2.6,MacIntel,60,,,,,,,,,,,
,,,,,,,,,,,,,,p,1,1.057,space,0.189,0,62,62,31,1,3_dist_red/trial7.png,,,1,3,redHorizontal,p,63,21,M,2021-02-19_15h49.18.178,exp11,2020.2.6,MacIntel,60,,,,,,,,,,,
,,,,,,,,,,,,,,p,1,0.65,space,0.17,0,63,63,45,1,3_dist_red/trial21.png,,,1,3,redHorizontal,p,63,21,M,2021-02-19_15h49.18.178,exp11,2020.2.6,MacIntel,60,,,,,,,,,,,
,,,,,,,,,,,,,,p,1,0.577,space,0.22,0,64,64,18,1,0_dist_red/trial19.png,,,1,0,redHorizontal,p,63,21,M,2021-02-19_15h49.18.178,exp11,2020.2.6,MacIntel,60,,,,,,,,,,,
,,,,,,,,,,,,,,p,1,1.078,space,0.187,0,65,65,76,1,15_dist_red/trial2.png,,,1,15,redHorizontal,p,63,21,M,2021-02-19_15h49.18.178,exp11,2020.2.6,MacIntel,60,,,,,,,,,,,
,,,,,,,,,,,,,,p,1,0.675,space,0.182,0,66,66,88,1,15_dist_red/trial14.png,,,1,15,redHorizontal,p,63,21,M,2021-02-19_15h49.18.178,exp11,2020.2.6,MacIntel,60,,,,,,,,,,,
,,,,,,,,,,,,,,a,1,0.711,space,0.177,0,67,67,131,1,0_targ_4_dist_red/trial7.png,,,0,4,redHorizontal,a,63,21,M,2021-02-19_15h49.18.178,exp11,2020.2.6,MacIntel,60,,,,,,,,,,,
,,,,,,,,,,,,,,a,1,1.074,space,0.152,0,68,68,174,1,0_targ_10_dist_red/trial25.png,,,0,10,redHorizontal,a,63,21,M,2021-02-19_15h49.18.178,exp11,2020.2.6,MacIntel,60,,,,,,,,,,,
,,,,,,,,,,,,,,p,1,0.555,space,0.147,0,69,69,6,1,0_dist_red/trial7.png,,,1,0,redHorizontal,p,63,21,M,2021-02-19_15h49.18.178,exp11,2020.2.6,MacIntel,60,,,,,,,,,,,
,,,,,,,,,,,,,,p,1,0.677,space,0.174,0,70,70,38,1,3_dist_red/trial14.png,,,1,3,redHorizontal,p,63,21,M,2021-02-19_15h49.18.178,exp11,2020.2.6,MacIntel,60,,,,,,,,,,,
,,,,,,,,,,,,,,p,1,0.561,space,0.188,0,71,71,15,1,0_dist_red/trial16.png,,,1,0,redHorizontal,p,63,21,M,2021-02-19_15h49.18.178,exp11,2020.2.6,MacIntel,60,,,,,,,,,,,
,,,,,,,,,,,,,,a,1,0.711,space,0.186,0,72,72,147,1,0_targ_4_dist_red/trial23.png,,,0,4,redHorizontal,a,63,21,M,2021-02-19_15h49.18.178,exp11,2020.2.6,MacIntel,60,,,,,,,,,,,
,,,,,,,,,,,,,,a,1,0.979,space,0.189,0,73,73,120,1,0_targ_1_dist_red/trial21.png,,,0,1,redHorizontal,a,63,21,M,2021-02-19_15h49.18.178,exp11,2020.2.6,MacIntel,60,,,,,,,,,,,
,,,,,,,,,,,,,,a,1,0.918,space,0.272,0,74,74,171,1,0_targ_10_dist_red/trial22.png,,,0,10,redHorizontal,a,63,21,M,2021-02-19_15h49.18.178,exp11,2020.2.6,MacIntel,60,,,,,,,,,,,
,,,,,,,,,,,,,,p,1,0.959,space,0.223,0,75,75,41,1,3_dist_red/trial17.png,,,1,3,redHorizontal,p,63,21,M,2021-02-19_15h49.18.178,exp11,2020.2.6,MacIntel,60,,,,,,,,,,,
,,,,,,,,,,,,,,a,1,1.685,space,0.339,0,76,76,151,1,0_targ_10_dist_red/trial2.png,,,0,10,redHorizontal,a,63,21,M,2021-02-19_15h49.18.178,exp11,2020.2.6,MacIntel,60,,,,,,,,,,,
,,,,,,,,,,,,,,p,1,0.575,space,0.293,0,77,77,12,1,0_dist_red/trial13.png,,,1,0,redHorizontal,p,63,21,M,2021-02-19_15h49.18.178,exp11,2020.2.6,MacIntel,60,,,,,,,,,,,
,,,,,,,,,,,,,,p,1,0.712,space,0.24,0,78,78,90,1,15_dist_red/trial16.png,,,1,15,redHorizontal,p,63,21,M,2021-02-19_15h49.18.178,exp11,2020.2.6,MacIntel,60,,,,,,,,,,,
,,,,,,,,,,,,,,p,1,0.528,space,0.219,0,79,79,23,1,0_dist_red/trial24.png,,,1,0,redHorizontal,p,63,21,M,2021-02-19_15h49.18.178,exp11,2020.2.6,MacIntel,60,,,,,,,,,,,
,,,,,,,,,,,,,,p,1,0.707,space,0.196,0,80,80,32,1,3_dist_red/trial8.png,,,1,3,redHorizontal,p,63,21,M,2021-02-19_15h49.18.178,exp11,2020.2.6,MacIntel,60,,,,,,,,,,,
,,,,,,,,,,,,,,p,1,0.608,space,0.195,0,81,81,97,1,15_dist_red/trial23.png,,,1,15,redHorizontal,p,63,21,M,2021-02-19_15h49.18.178,exp11,2020.2.6,MacIntel,60,,,,,,,,,,,
,,,,,,,,,,,,,,p,1,0.645,space,0.211,0,82,82,99,1,15_dist_red/trial25.png,,,1,15,redHorizontal,p,63,21,M,2021-02-19_15h49.18.178,exp11,2020.2.6,MacIntel,60,,,,,,,,,,,
,,,,,,,,,,,,,,a,1,0.711,space,0.188,0,83,83,141,1,0_targ_4_dist_red/trial17.png,,,0,4,redHorizontal,a,63,21,M,2021-02-19_15h49.18.178,exp11,2020.2.6,MacIntel,60,,,,,,,,,,,
,,,,,,,,,,,,,,p,1,0.586,space,0.244,0,84,84,0,1,0_dist_red/trial1.png,,,1,0,redHorizontal,p,63,21,M,2021-02-19_15h49.18.178,exp11,2020.2.6,MacIntel,60,,,,,,,,,,,
,,,,,,,,,,,,,,a,1,0.786,space,0.238,0,85,85,137,1,0_targ_4_dist_red/trial13.png,,,0,4,redHorizontal,a,63,21,M,2021-02-19_15h49.18.178,exp11,2020.2.6,MacIntel,60,,,,,,,,,,,
,,,,,,,,,,,,,,p,1,0.575,space,0.205,0,86,86,65,1,9_dist_red/trial16.png,,,1,9,redHorizontal,p,63,21,M,2021-02-19_15h49.18.178,exp11,2020.2.6,MacIntel,60,,,,,,,,,,,
,,,,,,,,,,,,,,a,1,1.01,space,0.603,0,87,87,181,1,0_targ_16_dist_red/trial7.png,,,0,16,redHorizontal,a,63,21,M,2021-02-19_15h49.18.178,exp11,2020.2.6,MacIntel,60,,,,,,,,,,,
,,,,,,,,,,,,,,p,1,0.595,space,0.203,0,88,88,72,1,9_dist_red/trial23.png,,,1,9,redHorizontal,p,63,21,M,2021-02-19_15h49.18.178,exp11,2020.2.6,MacIntel,60,,,,,,,,,,,
,,,,,,,,,,,,,,a,1,0.692,space,0.276,0,89,89,107,1,0_targ_1_dist_red/trial8.png,,,0,1,redHorizontal,a,63,21,M,2021-02-19_15h49.18.178,exp11,2020.2.6,MacIntel,60,,,,,,,,,,,
,,,,,,,,,,,,,,a,1,1.292,space,0.389,0,90,90,170,1,0_targ_10_dist_red/trial21.png,,,0,10,redHorizontal,a,63,21,M,2021-02-19_15h49.18.178,exp11,2020.2.6,MacIntel,60,,,,,,,,,,,
,,,,,,,,,,,,,,a,1,1.233,space,0.187,0,91,91,127,1,0_targ_4_dist_red/trial3.png,,,0,4,redHorizontal,a,63,21,M,2021-02-19_15h49.18.178,exp11,2020.2.6,MacIntel,60,,,,,,,,,,,
,,,,,,,,,,,,,,a,1,0.783,space,0.2,0,92,92,101,1,0_targ_1_dist_red/trial2.png,,,0,1,redHorizontal,a,63,21,M,2021-02-19_15h49.18.178,exp11,2020.2.6,MacIntel,60,,,,,,,,,,,
,,,,,,,,,,,,,,a,1,0.813,space,0.187,0,93,93,152,1,0_targ_10_dist_red/trial3.png,,,0,10,redHorizontal,a,63,21,M,2021-02-19_15h49.18.178,exp11,2020.2.6,MacIntel,60,,,,,,,,,,,
,,,,,,,,,,,,,,p,1,0.517,space,0.168,0,94,94,8,1,0_dist_red/trial9.png,,,1,0,redHorizontal,p,63,21,M,2021-02-19_15h49.18.178,exp11,2020.2.6,MacIntel,60,,,,,,,,,,,
,,,,,,,,,,,,,,p,1,0.546,space,0.174,0,95,95,50,1,9_dist_red/trial1.png,,,1,9,redHorizontal,p,63,21,M,2021-02-19_15h49.18.178,exp11,2020.2.6,MacIntel,60,,,,,,,,,,,
,,,,,,,,,,,,,,a,1,0.743,space,0.156,0,96,96,135,1,0_targ_4_dist_red/trial11.png,,,0,4,redHorizontal,a,63,21,M,2021-02-19_15h49.18.178,exp11,2020.2.6,MacIntel,60,,,,,,,,,,,
,,,,,,,,,,,,,,p,1,1.075,space,0.153,0,97,97,56,1,9_dist_red/trial7.png,,,1,9,redHorizontal,p,63,21,M,2021-02-19_15h49.18.178,exp11,2020.2.6,MacIntel,60,,,,,,,,,,,
,,,,,,,,,,,,,,a,1,1.032,space,0.175,0,98,98,146,1,0_targ_4_dist_red/trial22.png,,,0,4,redHorizontal,a,63,21,M,2021-02-19_15h49.18.178,exp11,2020.2.6,MacIntel,60,,,,,,,,,,,
,,,,,,,,,,,,,,a,1,0.7,space,0.198,0,99,99,110,1,0_targ_1_dist_red/trial11.png,,,0,1,redHorizontal,a,63,21,M,2021-02-19_15h49.18.178,exp11,2020.2.6,MacIntel,60,,,,,,,,,,,
,,,,,,,,,,,,,,a,1,0.545,space,0.274,0,100,100,117,1,0_targ_1_dist_red/trial18.png,,,0,1,redHorizontal,a,63,21,M,2021-02-19_15h49.18.178,exp11,2020.2.6,MacIntel,60,,,,,,,,,,,
,,,,,,,,,,,,,,p,1,0.774,space,0.242,0,101,101,94,1,15_dist_red/trial20.png,,,1,15,redHorizontal,p,63,21,M,2021-02-19_15h49.18.178,exp11,2020.2.6,MacIntel,60,,,,,,,,,,,
,,,,,,,,,,,,,,p,1,0.863,space,0.272,0,102,102,87,1,15_dist_red/trial13.png,,,1,15,redHorizontal,p,63,21,M,2021-02-19_15h49.18.178,exp11,2020.2.6,MacIntel,60,,,,,,,,,,,
,,,,,,,,,,,,,,p,1,0.529,space,0.272,0,103,103,17,1,0_dist_red/trial18.png,,,1,0,redHorizontal,p,63,21,M,2021-02-19_15h49.18.178,exp11,2020.2.6,MacIntel,60,,,,,,,,,,,
,,,,,,,,,,,,,,p,1,1.057,space,0.304,0,104,104,79,1,15_dist_red/trial5.png,,,1,15,redHorizontal,p,63,21,M,2021-02-19_15h49.18.178,exp11,2020.2.6,MacIntel,60,,,,,,,,,,,
,,,,,,,,,,,,,,p,1,0.562,space,0.257,0,105,105,2,1,0_dist_red/trial3.png,,,1,0,redHorizontal,p,63,21,M,2021-02-19_15h49.18.178,exp11,2020.2.6,MacIntel,60,,,,,,,,,,,
,,,,,,,,,,,,,,p,1,0.563,space,0.374,0,106,106,35,1,3_dist_red/trial11.png,,,1,3,redHorizontal,p,63,21,M,2021-02-19_15h49.18.178,exp11,2020.2.6,MacIntel,60,,,,,,,,,,,
,,,,,,,,,,,,,,a,1,0.757,space,0.369,0,107,107,190,1,0_targ_16_dist_red/trial16.png,,,0,16,redHorizontal,a,63,21,M,2021-02-19_15h49.18.178,exp11,2020.2.6,MacIntel,60,,,,,,,,,,,
,,,,,,,,,,,,,,p,1,0.4,space,0.318,0,108,108,10,1,0_dist_red/trial11.png,,,1,0,redHorizontal,p,63,21,M,2021-02-19_15h49.18.178,exp11,2020.2.6,MacIntel,60,,,,,,,,,,,
,,,,,,,,,,,,,,a,1,1.625,space,0.188,0,109,109,121,1,0_targ_1_dist_red/trial22.png,,,0,1,redHorizontal,a,63,21,M,2021-02-19_15h49.18.178,exp11,2020.2.6,MacIntel,60,,,,,,,,,,,
,,,,,,,,,,,,,,a,1,1.542,space,0.18,0,110,110,177,1,0_targ_16_dist_red/trial3.png,,,0,16,redHorizontal,a,63,21,M,2021-02-19_15h49.18.178,exp11,2020.2.6,MacIntel,60,,,,,,,,,,,
,,,,,,,,,,,,,,p,1,0.595,space,0.208,0,111,111,61,1,9_dist_red/trial12.png,,,1,9,redHorizontal,p,63,21,M,2021-02-19_15h49.18.178,exp11,2020.2.6,MacIntel,60,,,,,,,,,,,
,,,,,,,,,,,,,,p,1,0.979,space,0.202,0,112,112,84,1,15_dist_red/trial10.png,,,1,15,redHorizontal,p,63,21,M,2021-02-19_15h49.18.178,exp11,2020.2.6,MacIntel,60,,,,,,,,,,,
,,,,,,,,,,,,,,p,1,0.761,space,0.196,0,113,113,78,1,15_dist_red/trial4.png,,,1,15,redHorizontal,p,63,21,M,2021-02-19_15h49.18.178,exp11,2020.2.6,MacIntel,60,,,,,,,,,,,
,,,,,,,,,,,,,,a,1,1.015,space,0.172,0,114,114,185,1,0_targ_16_dist_red/trial11.png,,,0,16,redHorizontal,a,63,21,M,2021-02-19_15h49.18.178,exp11,2020.2.6,MacIntel,60,,,,,,,,,,,
,,,,,,,,,,,,,,p,1,0.631,space,0.218,0,115,115,1,1,0_dist_red/trial2.png,,,1,0,redHorizontal,p,63,21,M,2021-02-19_15h49.18.178,exp11,2020.2.6,MacIntel,60,,,,,,,,,,,
,,,,,,,,,,,,,,a,1,0.622,space,0.189,0,116,116,111,1,0_targ_1_dist_red/trial12.png,,,0,1,redHorizontal,a,63,21,M,2021-02-19_15h49.18.178,exp11,2020.2.6,MacIntel,60,,,,,,,,,,,
,,,,,,,,,,,,,,a,1,1.293,space,0.159,0,117,117,188,1,0_targ_16_dist_red/trial14.png,,,0,16,redHorizontal,a,63,21,M,2021-02-19_15h49.18.178,exp11,2020.2.6,MacIntel,60,,,,,,,,,,,
,,,,,,,,,,,,,,a,1,0.77,space,0.189,0,118,118,123,1,0_targ_1_dist_red/trial24.png,,,0,1,redHorizontal,a,63,21,M,2021-02-19_15h49.18.178,exp11,2020.2.6,MacIntel,60,,,,,,,,,,,
,,,,,,,,,,,,,,a,1,0.678,space,0.174,0,119,119,128,1,0_targ_4_dist_red/trial4.png,,,0,4,redHorizontal,a,63,21,M,2021-02-19_15h49.18.178,exp11,2020.2.6,MacIntel,60,,,,,,,,,,,
,,,,,,,,,,,,,,a,1,0.726,space,0.182,0,120,120,158,1,0_targ_10_dist_red/trial9.png,,,0,10,redHorizontal,a,63,21,M,2021-02-19_15h49.18.178,exp11,2020.2.6,MacIntel,60,,,,,,,,,,,
,,,,,,,,,,,,,,p,1,0.671,space,0.428,0,121,121,25,1,3_dist_red/trial1.png,,,1,3,redHorizontal,p,63,21,M,2021-02-19_15h49.18.178,exp11,2020.2.6,MacIntel,60,,,,,,,,,,,
,,,,,,,,,,,,,,p,1,0.63,space,0.205,0,122,122,22,1,0_dist_red/trial23.png,,,1,0,redHorizontal,p,63,21,M,2021-02-19_15h49.18.178,exp11,2020.2.6,MacIntel,60,,,,,,,,,,,
,,,,,,,,,,,,,,a,1,0.626,space,0.155,0,123,123,134,1,0_targ_4_dist_red/trial10.png,,,0,4,redHorizontal,a,63,21,M,2021-02-19_15h49.18.178,exp11,2020.2.6,MacIntel,60,,,,,,,,,,,
,,,,,,,,,,,,,,p,1,0.642,space,0.154,0,124,124,73,1,9_dist_red/trial24.png,,,1,9,redHorizontal,p,63,21,M,2021-02-19_15h49.18.178,exp11,2020.2.6,MacIntel,60,,,,,,,,,,,
,,,,,,,,,,,,,,a,1,1.077,space,0.184,0,125,125,192,1,0_targ_16_dist_red/trial18.png,,,0,16,redHorizontal,a,63,21,M,2021-02-19_15h49.18.178,exp11,2020.2.6,MacIntel,60,,,,,,,,,,,
,,,,,,,,,,,,,,a,1,0.74,space,0.185,0,126,126,130,1,0_targ_4_dist_red/trial6.png,,,0,4,redHorizontal,a,63,21,M,2021-02-19_15h49.18.178,exp11,2020.2.6,MacIntel,60,,,,,,,,,,,
,,,,,,,,,,,,,,a,1,0.66,space,0.155,0,127,127,143,1,0_targ_4_dist_red/trial19.png,,,0,4,redHorizontal,a,63,21,M,2021-02-19_15h49.18.178,exp11,2020.2.6,MacIntel,60,,,,,,,,,,,
,,,,,,,,,,,,,,p,1,0.597,space,0.189,0,128,128,44,1,3_dist_red/trial20.png,,,1,3,redHorizontal,p,63,21,M,2021-02-19_15h49.18.178,exp11,2020.2.6,MacIntel,60,,,,,,,,,,,
,,,,,,,,,,,,,,p,1,0.612,space,0.188,0,129,129,42,1,3_dist_red/trial18.png,,,1,3,redHorizontal,p,63,21,M,2021-02-19_15h49.18.178,exp11,2020.2.6,MacIntel,60,,,,,,,,,,,
,,,,,,,,,,,,,,p,1,0.515,space,0.187,0,130,130,3,1,0_dist_red/trial4.png,,,1,0,redHorizontal,p,63,21,M,2021-02-19_15h49.18.178,exp11,2020.2.6,MacIntel,60,,,,,,,,,,,
,,,,,,,,,,,,,,p,1,0.511,space,0.188,0,131,131,33,1,3_dist_red/trial9.png,,,1,3,redHorizontal,p,63,21,M,2021-02-19_15h49.18.178,exp11,2020.2.6,MacIntel,60,,,,,,,,,,,
,,,,,,,,,,,,,,a,0,0.661,space,0.157,0,132,132,89,1,15_dist_red/trial15.png,,,1,15,redHorizontal,p,63,21,M,2021-02-19_15h49.18.178,exp11,2020.2.6,MacIntel,60,,,,,,,,,,,
,,,,,,,,,,,,,,p,1,0.782,space,0.252,0,133,133,27,1,3_dist_red/trial3.png,,,1,3,redHorizontal,p,63,21,M,2021-02-19_15h49.18.178,exp11,2020.2.6,MacIntel,60,,,,,,,,,,,
,,,,,,,,,,,,,,a,1,0.943,space,0.161,0,134,134,119,1,0_targ_1_dist_red/trial20.png,,,0,1,redHorizontal,a,63,21,M,2021-02-19_15h49.18.178,exp11,2020.2.6,MacIntel,60,,,,,,,,,,,
,,,,,,,,,,,,,,a,1,0.877,space,0.13,0,135,135,167,1,0_targ_10_dist_red/trial18.png,,,0,10,redHorizontal,a,63,21,M,2021-02-19_15h49.18.178,exp11,2020.2.6,MacIntel,60,,,,,,,,,,,
,,,,,,,,,,,,,,p,1,0.724,space,0.163,0,136,136,83,1,15_dist_red/trial9.png,,,1,15,redHorizontal,p,63,21,M,2021-02-19_15h49.18.178,exp11,2020.2.6,MacIntel,60,,,,,,,,,,,
,,,,,,,,,,,,,,p,1,0.994,space,0.193,0,137,137,30,1,3_dist_red/trial6.png,,,1,3,redHorizontal,p,63,21,M,2021-02-19_15h49.18.178,exp11,2020.2.6,MacIntel,60,,,,,,,,,,,
,,,,,,,,,,,,,,p,1,0.678,space,0.163,0,138,138,81,1,15_dist_red/trial7.png,,,1,15,redHorizontal,p,63,21,M,2021-02-19_15h49.18.178,exp11,2020.2.6,MacIntel,60,,,,,,,,,,,
,,,,,,,,,,,,,,p,1,0.807,space,0.169,0,139,139,85,1,15_dist_red/trial11.png,,,1,15,redHorizontal,p,63,21,M,2021-02-19_15h49.18.178,exp11,2020.2.6,MacIntel,60,,,,,,,,,,,
,,,,,,,,,,,,,,p,1,0.994,space,0.168,0,140,140,26,1,3_dist_red/trial2.png,,,1,3,redHorizontal,p,63,21,M,2021-02-19_15h49.18.178,exp11,2020.2.6,MacIntel,60,,,,,,,,,,,
,,,,,,,,,,,,,,p,1,0.656,space,0.17,0,141,141,55,1,9_dist_red/trial6.png,,,1,9,redHorizontal,p,63,21,M,2021-02-19_15h49.18.178,exp11,2020.2.6,MacIntel,60,,,,,,,,,,,
,,,,,,,,,,,,,,a,1,1.118,space,0.146,0,142,142,199,1,0_targ_16_dist_red/trial25.png,,,0,16,redHorizontal,a,63,21,M,2021-02-19_15h49.18.178,exp11,2020.2.6,MacIntel,60,,,,,,,,,,,
,,,,,,,,,,,,,,a,1,0.859,space,0.259,0,143,143,103,1,0_targ_1_dist_red/trial4.png,,,0,1,redHorizontal,a,63,21,M,2021-02-19_15h49.18.178,exp11,2020.2.6,MacIntel,60,,,,,,,,,,,
,,,,,,,,,,,,,,p,1,0.761,space,0.202,0,144,144,29,1,3_dist_red/trial5.png,,,1,3,redHorizontal,p,63,21,M,2021-02-19_15h49.18.178,exp11,2020.2.6,MacIntel,60,,,,,,,,,,,
,,,,,,,,,,,,,,a,1,1.149,space,0.181,0,145,145,140,1,0_targ_4_dist_red/trial6.png,,,0,4,redHorizontal,a,63,21,M,2021-02-19_15h49.18.178,exp11,2020.2.6,MacIntel,60,,,,,,,,,,,
,,,,,,,,,,,,,,a,1,0.843,space,0.11,0,146,146,144,1,0_targ_4_dist_red/trial20.png,,,0,4,redHorizontal,a,63,21,M,2021-02-19_15h49.18.178,exp11,2020.2.6,MacIntel,60,,,,,,,,,,,
,,,,,,,,,,,,,,p,1,0.769,space,0.225,0,147,147,57,1,9_dist_red/trial8.png,,,1,9,redHorizontal,p,63,21,M,2021-02-19_15h49.18.178,exp11,2020.2.6,MacIntel,60,,,,,,,,,,,
,,,,,,,,,,,,,,a,1,0.958,space,0.143,0,148,148,159,1,0_targ_10_dist_red/trial10.png,,,0,10,redHorizontal,a,63,21,M,2021-02-19_15h49.18.178,exp11,2020.2.6,MacIntel,60,,,,,,,,,,,
,,,,,,,,,,,,,,p,1,0.68,space,0.189,0,149,149,75,1,15_dist_red/trial1.png,,,1,15,redHorizontal,p,63,21,M,2021-02-19_15h49.18.178,exp11,2020.2.6,MacIntel,60,,,,,,,,,,,
,,,,,,,,,,,,,,p,1,0.77,space,0.172,0,150,150,92,1,15_dist_red/trial18.png,,,1,15,redHorizontal,p,63,21,M,2021-02-19_15h49.18.178,exp11,2020.2.6,MacIntel,60,,,,,,,,,,,
,,,,,,,,,,,,,,a,1,1.179,space,0.239,0,151,151,105,1,0_targ_1_dist_red/trial6.png,,,0,1,redHorizontal,a,63,21,M,2021-02-19_15h49.18.178,exp11,2020.2.6,MacIntel,60,,,,,,,,,,,
,,,,,,,,,,,,,,a,1,0.916,space,0.138,0,152,152,178,1,0_targ_16_dist_red/trial4.png,,,0,16,redHorizontal,a,63,21,M,2021-02-19_15h49.18.178,exp11,2020.2.6,MacIntel,60,,,,,,,,,,,
,,,,,,,,,,,,,,p,1,0.579,space,0.205,0,153,153,19,1,0_dist_red/trial20.png,,,1,0,redHorizontal,p,63,21,M,2021-02-19_15h49.18.178,exp11,2020.2.6,MacIntel,60,,,,,,,,,,,
,,,,,,,,,,,,,,a,1,3.563,space,0.152,0,154,154,183,1,0_targ_16_dist_red/trial9.png,,,0,16,redHorizontal,a,63,21,M,2021-02-19_15h49.18.178,exp11,2020.2.6,MacIntel,60,,,,,,,,,,,
,,,,,,,,,,,,,,a,1,2.01,space,0.126,0,155,155,125,1,0_targ_4_dist_red/trial1.png,,,0,4,redHorizontal,a,63,21,M,2021-02-19_15h49.18.178,exp11,2020.2.6,MacIntel,60,,,,,,,,,,,
,,,,,,,,,,,,,,a,1,1.095,space,0.139,0,156,156,150,1,0_targ_10_dist_red/trial1.png,,,0,10,redHorizontal,a,63,21,M,2021-02-19_15h49.18.178,exp11,2020.2.6,MacIntel,60,,,,,,,,,,,
,,,,,,,,,,,,,,a,1,0.735,space,0.104,0,157,157,115,1,0_targ_1_dist_red/trial6.png,,,0,1,redHorizontal,a,63,21,M,2021-02-19_15h49.18.178,exp11,2020.2.6,MacIntel,60,,,,,,,,,,,
,,,,,,,,,,,,,,a,1,2.7,space,0.135,0,158,158,138,1,0_targ_4_dist_red/trial14.png,,,0,4,redHorizontal,a,63,21,M,2021-02-19_15h49.18.178,exp11,2020.2.6,MacIntel,60,,,,,,,,,,,
,,,,,,,,,,,,,,a,1,3.649,space,0.14,0,159,159,162,1,0_targ_10_dist_red/trial13.png,,,0,10,redHorizontal,a,63,21,M,2021-02-19_15h49.18.178,exp11,2020.2.6,MacIntel,60,,,,,,,,,,,
,,,,,,,,,,,,,,a,1,2.228,space,0.11,0,160,160,109,1,0_targ_1_dist_red/trial10.png,,,0,1,redHorizontal,a,63,21,M,2021-02-19_15h49.18.178,exp11,2020.2.6,MacIntel,60,,,,,,,,,,,
,,,,,,,,,,,,,,p,1,0.844,space,0.186,0,161,161,69,1,9_dist_red/trial20.png,,,1,9,redHorizontal,p,63,21,M,2021-02-19_15h49.18.178,exp11,2020.2.6,MacIntel,60,,,,,,,,,,,
,,,,,,,,,,,,,,a,1,0.759,space,0.102,0,162,162,104,1,0_targ_1_dist_red/trial5.png,,,0,1,redHorizontal,a,63,21,M,2021-02-19_15h49.18.178,exp11,2020.2.6,MacIntel,60,,,,,,,,,,,
,,,,,,,,,,,,,,p,1,0.611,space,0.171,0,163,163,24,1,0_dist_red/trial25.png,,,1,0,redHorizontal,p,63,21,M,2021-02-19_15h49.18.178,exp11,2020.2.6,MacIntel,60,,,,,,,,,,,
,,,,,,,,,,,,,,p,1,0.709,space,0.19,0,164,164,39,1,3_dist_red/trial15.png,,,1,3,redHorizontal,p,63,21,M,2021-02-19_15h49.18.178,exp11,2020.2.6,MacIntel,60,,,,,,,,,,,
,,,,,,,,,,,,,,a,1,0.936,space,0.136,0,165,165,136,1,0_targ_4_dist_red/trial12.png,,,0,4,redHorizontal,a,63,21,M,2021-02-19_15h49.18.178,exp11,2020.2.6,MacIntel,60,,,,,,,,,,,
,,,,,,,,,,,,,,a,1,2.936,space,0.089,0,166,166,191,1,0_targ_16_dist_red/trial17.png,,,0,16,redHorizontal,a,63,21,M,2021-02-19_15h49.18.178,exp11,2020.2.6,MacIntel,60,,,,,,,,,,,
,,,,,,,,,,,,,,a,1,1.28,space,0.086,0,167,167,182,1,0_targ_16_dist_red/trial8.png,,,0,16,redHorizontal,a,63,21,M,2021-02-19_15h49.18.178,exp11,2020.2.6,MacIntel,60,,,,,,,,,,,
,,,,,,,,,,,,,,p,1,0.627,space,0.16,0,168,168,11,1,0_dist_red/trial12.png,,,1,0,redHorizontal,p,63,21,M,2021-02-19_15h49.18.178,exp11,2020.2.6,MacIntel,60,,,,,,,,,,,
,,,,,,,,,,,,,,p,1,0.546,space,0.19,0,169,169,16,1,0_dist_red/trial17.png,,,1,0,redHorizontal,p,63,21,M,2021-02-19_15h49.18.178,exp11,2020.2.6,MacIntel,60,,,,,,,,,,,
,,,,,,,,,,,,,,p,1,0.674,space,0.156,0,170,170,53,1,9_dist_red/trial4.png,,,1,9,redHorizontal,p,63,21,M,2021-02-19_15h49.18.178,exp11,2020.2.6,MacIntel,60,,,,,,,,,,,
,,,,,,,,,,,,,,a,1,1.428,space,0.13,0,171,171,149,1,0_targ_4_dist_red/trial25.png,,,0,4,redHorizontal,a,63,21,M,2021-02-19_15h49.18.178,exp11,2020.2.6,MacIntel,60,,,,,,,,,,,
,,,,,,,,,,,,,,a,1,0.827,space,0.106,0,172,172,129,1,0_targ_4_dist_red/trial5.png,,,0,4,redHorizontal,a,63,21,M,2021-02-19_15h49.18.178,exp11,2020.2.6,MacIntel,60,,,,,,,,,,,
,,,,,,,,,,,,,,p,1,0.62,space,0.176,0,173,173,96,1,15_dist_red/trial22.png,,,1,15,redHorizontal,p,63,21,M,2021-02-19_15h49.18.178,exp11,2020.2.6,MacIntel,60,,,,,,,,,,,
,,,,,,,,,,,,,,p,1,0.774,space,0.16,0,174,174,82,1,15_dist_red/trial8.png,,,1,15,redHorizontal,p,63,21,M,2021-02-19_15h49.18.178,exp11,2020.2.6,MacIntel,60,,,,,,,,,,,
,,,,,,,,,,,,,,p,1,0.873,space,0.192,0,175,175,63,1,9_dist_red/trial14.png,,,1,9,redHorizontal,p,63,21,M,2021-02-19_15h49.18.178,exp11,2020.2.6,MacIntel,60,,,,,,,,,,,
,,,,,,,,,,,,,,p,1,0.748,space,0.193,0,176,176,49,1,3_dist_red/trial25.png,,,1,3,redHorizontal,p,63,21,M,2021-02-19_15h49.18.178,exp11,2020.2.6,MacIntel,60,,,,,,,,,,,
,,,,,,,,,,,,,,a,1,0.796,space,0.109,0,177,177,116,1,0_targ_1_dist_red/trial17.png,,,0,1,redHorizontal,a,63,21,M,2021-02-19_15h49.18.178,exp11,2020.2.6,MacIntel,60,,,,,,,,,,,
,,,,,,,,,,,,,,p,1,0.527,space,0.172,0,178,178,37,1,3_dist_red/trial13.png,,,1,3,redHorizontal,p,63,21,M,2021-02-19_15h49.18.178,exp11,2020.2.6,MacIntel,60,,,,,,,,,,,
,,,,,,,,,,,,,,p,1,0.661,space,0.187,0,179,179,62,1,9_dist_red/trial13.png,,,1,9,redHorizontal,p,63,21,M,2021-02-19_15h49.18.178,exp11,2020.2.6,MacIntel,60,,,,,,,,,,,
,,,,,,,,,,,,,,p,0,0.074,space,0.406,0,180,180,179,1,0_targ_16_dist_red/trial5.png,,,0,16,redHorizontal,a,63,21,M,2021-02-19_15h49.18.178,exp11,2020.2.6,MacIntel,60,,,,,,,,,,,
,,,,,,,,,,,,,,a,1,1.65,space,0.058,0,181,181,186,1,0_targ_16_dist_red/trial12.png,,,0,16,redHorizontal,a,63,21,M,2021-02-19_15h49.18.178,exp11,2020.2.6,MacIntel,60,,,,,,,,,,,
,,,,,,,,,,,,,,p,1,2.132,space,0.205,0,182,182,52,1,9_dist_red/trial3.png,,,1,9,redHorizontal,p,63,21,M,2021-02-19_15h49.18.178,exp11,2020.2.6,MacIntel,60,,,,,,,,,,,
,,,,,,,,,,,,,,a,1,0.827,space,0.119,0,183,183,124,1,0_targ_1_dist_red/trial25.png,,,0,1,redHorizontal,a,63,21,M,2021-02-19_15h49.18.178,exp11,2020.2.6,MacIntel,60,,,,,,,,,,,
,,,,,,,,,,,,,,a,1,1.152,space,0.108,0,184,184,166,1,0_targ_10_dist_red/trial17.png,,,0,10,redHorizontal,a,63,21,M,2021-02-19_15h49.18.178,exp11,2020.2.6,MacIntel,60,,,,,,,,,,,
,,,,,,,,,,,,,,a,1,0.825,space,0.072,0,185,185,189,1,0_targ_16_dist_red/trial15.png,,,0,16,redHorizontal,a,63,21,M,2021-02-19_15h49.18.178,exp11,2020.2.6,MacIntel,60,,,,,,,,,,,
,,,,,,,,,,,,,,p,1,0.762,space,0.153,0,186,186,20,1,0_dist_red/trial21.png,,,1,0,redHorizontal,p,63,21,M,2021-02-19_15h49.18.178,exp11,2020.2.6,MacIntel,60,,,,,,,,,,,
,,,,,,,,,,,,,,a,1,0.977,space,0.071,0,187,187,157,1,0_targ_10_dist_red/trial8.png,,,0,10,redHorizontal,a,63,21,M,2021-02-19_15h49.18.178,exp11,2020.2.6,MacIntel,60,,,,,,,,,,,
,,,,,,,,,,,,,,a,1,1.141,space,0.093,0,188,188,168,1,0_targ_10_dist_red/trial19.png,,,0,10,redHorizontal,a,63,21,M,2021-02-19_15h49.18.178,exp11,2020.2.6,MacIntel,60,,,,,,,,,,,
,,,,,,,,,,,,,,a,1,1.23,space,0.113,0,189,189,163,1,0_targ_10_dist_red/trial14.png,,,0,10,redHorizontal,a,63,21,M,2021-02-19_15h49.18.178,exp11,2020.2.6,MacIntel,60,,,,,,,,,,,
,,,,,,,,,,,,,,p,1,0.859,space,0.138,0,190,190,51,1,9_dist_red/trial2.png,,,1,9,redHorizontal,p,63,21,M,2021-02-19_15h49.18.178,exp11,2020.2.6,MacIntel,60,,,,,,,,,,,
,,,,,,,,,,,,,,p,1,0.726,space,0.138,0,191,191,46,1,3_dist_red/trial22.png,,,1,3,redHorizontal,p,63,21,M,2021-02-19_15h49.18.178,exp11,2020.2.6,MacIntel,60,,,,,,,,,,,
,,,,,,,,,,,,,,a,1,0.677,space,0.088,0,192,192,161,1,0_targ_10_dist_red/trial12.png,,,0,10,redHorizontal,a,63,21,M,2021-02-19_15h49.18.178,exp11,2020.2.6,MacIntel,60,,,,,,,,,,,
,,,,,,,,,,,,,,a,1,0.909,space,0.021,0,193,193,164,1,0_targ_10_dist_red/trial15.png,,,0,10,redHorizontal,a,63,21,M,2021-02-19_15h49.18.178,exp11,2020.2.6,MacIntel,60,,,,,,,,,,,
,,,,,,,,,,,,,,a,1,1.108,space,0.067,0,194,194,122,1,0_targ_1_dist_red/trial23.png,,,0,1,redHorizontal,a,63,21,M,2021-02-19_15h49.18.178,exp11,2020.2.6,MacIntel,60,,,,,,,,,,,
,,,,,,,,,,,,,,a,1,0.775,space,0.054,0,195,195,153,1,0_targ_10_dist_red/trial4.png,,,0,10,redHorizontal,a,63,21,M,2021-02-19_15h49.18.178,exp11,2020.2.6,MacIntel,60,,,,,,,,,,,
,,,,,,,,,,,,,,a,1,0.79,space,0.087,0,196,196,102,1,0_targ_1_dist_red/trial3.png,,,0,1,redHorizontal,a,63,21,M,2021-02-19_15h49.18.178,exp11,2020.2.6,MacIntel,60,,,,,,,,,,,
,,,,,,,,,,,,,,p,1,0.741,space,0.154,0,197,197,60,1,9_dist_red/trial11.png,,,1,9,redHorizontal,p,63,21,M,2021-02-19_15h49.18.178,exp11,2020.2.6,MacIntel,60,,,,,,,,,,,
,,,,,,,,,,,,,,a,1,0.859,space,0.058,0,198,198,187,1,0_targ_16_dist_red/trial13.png,,,0,16,redHorizontal,a,63,21,M,2021-02-19_15h49.18.178,exp11,2020.2.6,MacIntel,60,,,,,,,,,,,
,,,,,,,,,,,,,,a,1,1.243,space,0.106,0,199,199,195,1,0_targ_16_dist_red/trial21.png,,,0,16,redHorizontal,a,63,21,M,2021-02-19_15h49.18.178,exp11,2020.2.6,MacIntel,60,,,,,,,,,,,
,,,,,,,,,,,,,,,,,,,,,,,,,,,,,,,63,21,M,2021-02-19_15h49.18.178,exp11,2020.2.6,MacIntel,60,0,0,0,1,1,conRed.xlsx,red horizontal,Look for red horizontal bar (target) and indicate if it is present or absent in the array. If red horizontal target is present press 'p' and if absent press 'a'. Press SPACE to start.,,,
,,,,,,,,,,space,14.671,space,2.87,a,1,1.289,space,0.087,0,0,0,119,1,0_targ_1_dist_green/trial20.png,,,0,1,greenverival,a,63,21,M,2021-02-19_15h49.18.178,exp11,2020.2.6,MacIntel,60,,,,,,,,,,,
,,,,,,,,,,,,,,p,1,1.96,space,0.139,0,1,1,60,1,9_dist_green/trial11.png,,,1,9,greenverival,p,63,21,M,2021-02-19_15h49.18.178,exp11,2020.2.6,MacIntel,60,,,,,,,,,,,
,,,,,,,,,,,,,,p,1,1.679,space,0.403,0,2,2,96,1,15_dist_green/trial22.png,,,1,15,greenverival,p,63,21,M,2021-02-19_15h49.18.178,exp11,2020.2.6,MacIntel,60,,,,,,,,,,,
,,,,,,,,,,,,,,p,1,0.686,space,0.169,0,3,3,67,1,9_dist_green/trial18.png,,,1,9,greenverival,p,63,21,M,2021-02-19_15h49.18.178,exp11,2020.2.6,MacIntel,60,,,,,,,,,,,
,,,,,,,,,,,,,,a,1,1.047,space,0.421,0,4,4,120,1,0_targ_1_dist_green/trial21.png,,,0,1,greenverival,a,63,21,M,2021-02-19_15h49.18.178,exp11,2020.2.6,MacIntel,60,,,,,,,,,,,
,,,,,,,,,,,,,,p,1,1.438,space,0.146,0,5,5,95,1,15_dist_green/trial21.png,,,1,15,greenverival,p,63,21,M,2021-02-19_15h49.18.178,exp11,2020.2.6,MacIntel,60,,,,,,,,,,,
,,,,,,,,,,,,,,a,1,0.792,space,0.096,0,6,6,130,1,0_targ_4_dist_green/trial6.png,,,0,4,greenverival,a,63,21,M,2021-02-19_15h49.18.178,exp11,2020.2.6,MacIntel,60,,,,,,,,,,,
,,,,,,,,,,,,,,p,1,0.677,space,0.12,0,7,7,62,1,9_dist_green/trial13.png,,,1,9,greenverival,p,63,21,M,2021-02-19_15h49.18.178,exp11,2020.2.6,MacIntel,60,,,,,,,,,,,
,,,,,,,,,,,,,,p,1,0.813,space,0.125,0,8,8,39,1,3_dist_green/trial15.png,,,1,3,greenverival,p,63,21,M,2021-02-19_15h49.18.178,exp11,2020.2.6,MacIntel,60,,,,,,,,,,,
,,,,,,,,,,,,,,a,1,1.069,space,0.139,0,9,9,164,1,0_targ_10_dist_green/trial15.png,,,0,10,greenverival,a,63,21,M,2021-02-19_15h49.18.178,exp11,2020.2.6,MacIntel,60,,,,,,,,,,,
,,,,,,,,,,,,,,p,1,1.027,space,0.119,0,10,10,5,1,0_dist_green/trial6.png,,,1,0,greenverival,p,63,21,M,2021-02-19_15h49.18.178,exp11,2020.2.6,MacIntel,60,,,,,,,,,,,
,,,,,,,,,,,,,,p,1,0.688,space,0.092,0,11,11,7,1,0_dist_green/trial8.png,,,1,0,greenverival,p,63,21,M,2021-02-19_15h49.18.178,exp11,2020.2.6,MacIntel,60,,,,,,,,,,,
,,,,,,,,,,,,,,p,1,0.795,space,0.172,0,12,12,16,1,0_dist_green/trial17.png,,,1,0,greenverival,p,63,21,M,2021-02-19_15h49.18.178,exp11,2020.2.6,MacIntel,60,,,,,,,,,,,
,,,,,,,,,,,,,,p,1,0.875,space,0.124,0,13,13,72,1,9_dist_green/trial23.png,,,1,9,greenverival,p,63,21,M,2021-02-19_15h49.18.178,exp11,2020.2.6,MacIntel,60,,,,,,,,,,,
,,,,,,,,,,,,,,p,1,0.727,space,0.169,0,14,14,33,1,3_dist_green/trial9.png,,,1,3,greenverival,p,63,21,M,2021-02-19_15h49.18.178,exp11,2020.2.6,MacIntel,60,,,,,,,,,,,
,,,,,,,,,,,,,,p,1,0.795,space,0.156,0,15,15,94,1,15_dist_green/trial20.png,,,1,15,greenverival,p,63,21,M,2021-02-19_15h49.18.178,exp11,2020.2.6,MacIntel,60,,,,,,,,,,,
,,,,,,,,,,,,,,a,1,0.712,space,0.084,0,16,16,129,1,0_targ_4_dist_green/trial5.png,,,0,4,greenverival,a,63,21,M,2021-02-19_15h49.18.178,exp11,2020.2.6,MacIntel,60,,,,,,,,,,,
,,,,,,,,,,,,,,p,1,0.608,space,0.113,0,17,17,58,1,9_dist_green/trial9.png,,,1,9,greenverival,p,63,21,M,2021-02-19_15h49.18.178,exp11,2020.2.6,MacIntel,60,,,,,,,,,,,
,,,,,,,,,,,,,,p,1,1.076,space,0.59,0,18,18,1,1,0_dist_green/trial2.png,,,1,0,greenverival,p,63,21,M,2021-02-19_15h49.18.178,exp11,2020.2.6,MacIntel,60,,,,,,,,,,,
,,,,,,,,,,,,,,a,1,1.285,space,0.236,0,19,19,190,1,0_targ_16_dist_green/trial16.png,,,0,16,greenverival,a,63,21,M,2021-02-19_15h49.18.178,exp11,2020.2.6,MacIntel,60,,,,,,,,,,,
,,,,,,,,,,,,,,p,1,0.744,space,0.203,0,20,20,35,1,3_dist_green/trial11.png,,,1,3,greenverival,p,63,21,M,2021-02-19_15h49.18.178,exp11,2020.2.6,MacIntel,60,,,,,,,,,,,
,,,,,,,,,,,,,,p,1,0.59,space,0.156,0,21,21,17,1,0_dist_green/trial18.png,,,1,0,greenverival,p,63,21,M,2021-02-19_15h49.18.178,exp11,2020.2.6,MacIntel,60,,,,,,,,,,,
,,,,,,,,,,,,,,a,1,0.645,space,0.114,0,22,22,115,1,0_targ_1_dist_green/trial6.png,,,0,1,greenverival,a,63,21,M,2021-02-19_15h49.18.178,exp11,2020.2.6,MacIntel,60,,,,,,,,,,,
,,,,,,,,,,,,,,a,1,1.35,space,0.098,0,23,23,189,1,0_targ_16_dist_green/trial15.png,,,0,16,greenverival,a,63,21,M,2021-02-19_15h49.18.178,exp11,2020.2.6,MacIntel,60,,,,,,,,,,,
,,,,,,,,,,,,,,a,1,1.145,space,0.105,0,24,24,168,1,0_targ_10_dist_green/trial19.png,,,0,10,greenverival,a,63,21,M,2021-02-19_15h49.18.178,exp11,2020.2.6,MacIntel,60,,,,,,,,,,,
,,,,,,,,,,,,,,a,1,1.104,space,0.036,0,25,25,193,1,0_targ_16_dist_green/trial19.png,,,0,16,greenverival,a,63,21,M,2021-02-19_15h49.18.178,exp11,2020.2.6,MacIntel,60,,,,,,,,,,,
,,,,,,,,,,,,,,p,1,0.725,space,0.105,0,26,26,36,1,3_dist_green/trial12.png,,,1,3,greenverival,p,63,21,M,2021-02-19_15h49.18.178,exp11,2020.2.6,MacIntel,60,,,,,,,,,,,
,,,,,,,,,,,,,,a,1,0.788,space,0.107,0,27,27,152,1,0_targ_10_dist_green/trial3.png,,,0,10,greenverival,a,63,21,M,2021-02-19_15h49.18.178,exp11,2020.2.6,MacIntel,60,,,,,,,,,,,
,,,,,,,,,,,,,,a,1,0.778,space,0.057,0,28,28,172,1,0_targ_10_dist_green/trial23.png,,,0,10,greenverival,a,63,21,M,2021-02-19_15h49.18.178,exp11,2020.2.6,MacIntel,60,,,,,,,,,,,
,,,,,,,,,,,,,,a,1,1.069,space,0.092,0,29,29,178,1,0_targ_16_dist_green/trial4.png,,,0,16,greenverival,a,63,21,M,2021-02-19_15h49.18.178,exp11,2020.2.6,MacIntel,60,,,,,,,,,,,
,,,,,,,,,,,,,,p,1,0.765,space,0.103,0,30,30,97,1,15_dist_green/trial23.png,,,1,15,greenverival,p,63,21,M,2021-02-19_15h49.18.178,exp11,2020.2.6,MacIntel,60,,,,,,,,,,,
,,,,,,,,,,,,,,a,1,0.694,space,0.122,0,31,31,173,1,0_targ_10_dist_green/trial24.png,,,0,10,greenverival,a,63,21,M,2021-02-19_15h49.18.178,exp11,2020.2.6,MacIntel,60,,,,,,,,,,,
,,,,,,,,,,,,,,p,1,0.727,space,0.074,0,32,32,51,1,9_dist_green/trial2.png,,,1,9,greenverival,p,63,21,M,2021-02-19_15h49.18.178,exp11,2020.2.6,MacIntel,60,,,,,,,,,,,
,,,,,,,,,,,,,,a,1,0.902,space,0.087,0,33,33,162,1,0_targ_10_dist_green/trial13.png,,,0,10,greenverival,a,63,21,M,2021-02-19_15h49.18.178,exp11,2020.2.6,MacIntel,60,,,,,,,,,,,
,,,,,,,,,,,,,,p,1,0.625,space,0.077,0,34,34,91,1,15_dist_green/trial17.png,,,1,15,greenverival,p,63,21,M,2021-02-19_15h49.18.178,exp11,2020.2.6,MacIntel,60,,,,,,,,,,,
,,,,,,,,,,,,,,p,1,0.877,space,0.14,0,35,35,73,1,9_dist_green/trial24.png,,,1,9,greenverival,p,63,21,M,2021-02-19_15h49.18.178,exp11,2020.2.6,MacIntel,60,,,,,,,,,,,
,,,,,,,,,,,,,,a,1,0.843,space,0.173,0,36,36,149,1,0_targ_4_dist_green/trial25.png,,,0,4,greenverival,a,63,21,M,2021-02-19_15h49.18.178,exp11,2020.2.6,MacIntel,60,,,,,,,,,,,
,,,,,,,,,,,,,,a,1,0.894,space,0.118,0,37,37,110,1,0_targ_1_dist_green/trial11.png,,,0,1,greenverival,a,63,21,M,2021-02-19_15h49.18.178,exp11,2020.2.6,MacIntel,60,,,,,,,,,,,
,,,,,,,,,,,,,,a,1,0.593,space,0.087,0,38,38,127,1,0_targ_4_dist_green/trial3.png,,,0,4,greenverival,a,63,21,M,2021-02-19_15h49.18.178,exp11,2020.2.6,MacIntel,60,,,,,,,,,,,
,,,,,,,,,,,,,,p,1,0.762,space,0.121,0,39,39,28,1,3_dist_green/trial4.png,,,1,3,greenverival,p,63,21,M,2021-02-19_15h49.18.178,exp11,2020.2.6,MacIntel,60,,,,,,,,,,,
,,,,,,,,,,,,,,p,1,0.693,space,0.144,0,40,40,79,1,15_dist_green/trial5.png,,,1,15,greenverival,p,63,21,M,2021-02-19_15h49.18.178,exp11,2020.2.6,MacIntel,60,,,,,,,,,,,
,,,,,,,,,,,,,,a,1,0.694,space,0.088,0,41,41,104,1,0_targ_1_dist_green/trial5.png,,,0,1,greenverival,a,63,21,M,2021-02-19_15h49.18.178,exp11,2020.2.6,MacIntel,60,,,,,,,,,,,
,,,,,,,,,,,,,,a,1,0.925,space,0.089,0,42,42,160,1,0_targ_10_dist_green/trial11.png,,,0,10,greenverival,a,63,21,M,2021-02-19_15h49.18.178,exp11,2020.2.6,MacIntel,60,,,,,,,,,,,
,,,,,,,,,,,,,,p,1,0.613,space,0.137,0,43,43,83,1,15_dist_green/trial9.png,,,1,15,greenverival,p,63,21,M,2021-02-19_15h49.18.178,exp11,2020.2.6,MacIntel,60,,,,,,,,,,,
,,,,,,,,,,,,,,a,1,1.059,space,0.076,0,44,44,103,1,0_targ_1_dist_green/trial4.png,,,0,1,greenverival,a,63,21,M,2021-02-19_15h49.18.178,exp11,2020.2.6,MacIntel,60,,,,,,,,,,,
,,,,,,,,,,,,,,p,1,0.745,space,0.135,0,45,45,27,1,3_dist_green/trial3.png,,,1,3,greenverival,p,63,21,M,2021-02-19_15h49.18.178,exp11,2020.2.6,MacIntel,60,,,,,,,,,,,
,,,,,,,,,,,,,,a,1,0.777,space,0.07,0,46,46,138,1,0_targ_4_dist_green/trial14.png,,,0,4,greenverival,a,63,21,M,2021-02-19_15h49.18.178,exp11,2020.2.6,MacIntel,60,,,,,,,,,,,
,,,,,,,,,,,,,,a,1,1.308,space,0.074,0,47,47,181,1,0_targ_16_dist_green/trial7.png,,,0,16,greenverival,a,63,21,M,2021-02-19_15h49.18.178,exp11,2020.2.6,MacIntel,60,,,,,,,,,,,
,,,,,,,,,,,,,,a,1,0.542,space,0.137,0,48,48,123,1,0_targ_1_dist_green/trial24.png,,,0,1,greenverival,a,63,21,M,2021-02-19_15h49.18.178,exp11,2020.2.6,MacIntel,60,,,,,,,,,,,
,,,,,,,,,,,,,,p,1,0.608,space,0.122,0,49,49,53,1,9_dist_green/trial4.png,,,1,9,greenverival,p,63,21,M,2021-02-19_15h49.18.178,exp11,2020.2.6,MacIntel,60,,,,,,,,,,,
,,,,,,,,,,,,,,p,1,0.643,space,0.141,0,50,50,63,1,9_dist_green/trial14.png,,,1,9,greenverival,p,63,21,M,2021-02-19_15h49.18.178,exp11,2020.2.6,MacIntel,60,,,,,,,,,,,
,,,,,,,,,,,,,,a,1,0.617,space,0.089,0,51,51,145,1,0_targ_4_dist_green/trial21.png,,,0,4,greenverival,a,63,21,M,2021-02-19_15h49.18.178,exp11,2020.2.6,MacIntel,60,,,,,,,,,,,
,,,,,,,,,,,,,,a,1,0.792,space,0.074,0,52,52,147,1,0_targ_4_dist_green/trial23.png,,,0,4,greenverival,a,63,21,M,2021-02-19_15h49.18.178,exp11,2020.2.6,MacIntel,60,,,,,,,,,,,
,,,,,,,,,,,,,,a,1,0.757,space,0.117,0,53,53,134,1,0_targ_4_dist_green/trial10.png,,,0,4,greenverival,a,63,21,M,2021-02-19_15h49.18.178,exp11,2020.2.6,MacIntel,60,,,,,,,,,,,
,,,,,,,,,,,,,,p,1,0.658,space,0.086,0,54,54,40,1,3_dist_green/trial16.png,,,1,3,greenverival,p,63,21,M,2021-02-19_15h49.18.178,exp11,2020.2.6,MacIntel,60,,,,,,,,,,,
,,,,,,,,,,,,,,p,1,0.648,space,0.124,0,55,55,2,1,0_dist_green/trial3.png,,,1,0,greenverival,p,63,21,M,2021-02-19_15h49.18.178,exp11,2020.2.6,MacIntel,60,,,,,,,,,,,
,,,,,,,,,,,,,,p,1,0.742,space,0.125,0,56,56,61,1,9_dist_green/trial12.png,,,1,9,greenverival,p,63,21,M,2021-02-19_15h49.18.178,exp11,2020.2.6,MacIntel,60,,,,,,,,,,,
,,,,,,,,,,,,,,a,1,0.579,space,0.072,0,57,57,144,1,0_targ_4_dist_green/trial20.png,,,0,4,greenverival,a,63,21,M,2021-02-19_15h49.18.178,exp11,2020.2.6,MacIntel,60,,,,,,,,,,,
,,,,,,,,,,,,,,a,1,1.23,space,0.077,0,58,58,180,1,0_targ_16_dist_green/trial6.png,,,0,16,greenverival,a,63,21,M,2021-02-19_15h49.18.178,exp11,2020.2.6,MacIntel,60,,,,,,,,,,,
,,,,,,,,,,,,,,p,1,0.635,space,0.145,0,59,59,64,1,9_dist_green/trial15.png,,,1,9,greenverival,p,63,21,M,2021-02-19_15h49.18.178,exp11,2020.2.6,MacIntel,60,,,,,,,,,,,
,,,,,,,,,,,,,,p,1,0.656,space,0.163,0,60,60,86,1,15_dist_green/trial12.png,,,1,15,greenverival,p,63,21,M,2021-02-19_15h49.18.178,exp11,2020.2.6,MacIntel,60,,,,,,,,,,,
,,,,,,,,,,,,,,p,1,0.583,space,0.153,0,61,61,42,1,3_dist_green/trial18.png,,,1,3,greenverival,p,63,21,M,2021-02-19_15h49.18.178,exp11,2020.2.6,MacIntel,60,,,,,,,,,,,
,,,,,,,,,,,,,,a,1,0.558,space,0.078,0,62,62,111,1,0_targ_1_dist_green/trial12.png,,,0,1,greenverival,a,63,21,M,2021-02-19_15h49.18.178,exp11,2020.2.6,MacIntel,60,,,,,,,,,,,
,,,,,,,,,,,,,,a,1,0.909,space,0.089,0,63,63,198,1,0_targ_16_dist_green/trial24.png,,,0,16,greenverival,a,63,21,M,2021-02-19_15h49.18.178,exp11,2020.2.6,MacIntel,60,,,,,,,,,,,
,,,,,,,,,,,,,,p,1,0.71,space,0.14,0,64,64,80,1,15_dist_green/trial6.png,,,1,15,greenverival,p,63,21,M,2021-02-19_15h49.18.178,exp11,2020.2.6,MacIntel,60,,,,,,,,,,,
,,,,,,,,,,,,,,p,1,0.78,space,0.145,0,65,65,69,1,9_dist_green/trial20.png,,,1,9,greenverival,p,63,21,M,2021-02-19_15h49.18.178,exp11,2020.2.6,MacIntel,60,,,,,,,,,,,
,,,,,,,,,,,,,,p,1,0.675,space,0.146,0,66,66,84,1,15_dist_green/trial10.png,,,1,15,greenverival,p,63,21,M,2021-02-19_15h49.18.178,exp11,2020.2.6,MacIntel,60,,,,,,,,,,,
,,,,,,,,,,,,,,a,1,0.644,space,0.123,0,67,67,174,1,0_targ_10_dist_green/trial25.png,,,0,10,greenverival,a,63,21,M,2021-02-19_15h49.18.178,exp11,2020.2.6,MacIntel,60,,,,,,,,,,,
,,,,,,,,,,,,,,a,1,0.711,space,0.113,0,68,68,117,1,0_targ_1_dist_green/trial18.png,,,0,1,greenverival,a,63,21,M,2021-02-19_15h49.18.178,exp11,2020.2.6,MacIntel,60,,,,,,,,,,,
,,,,,,,,,,,,,,a,1,0.677,space,0.123,0,69,69,139,1,0_targ_4_dist_green/trial15.png,,,0,4,greenverival,a,63,21,M,2021-02-19_15h49.18.178,exp11,2020.2.6,MacIntel,60,,,,,,,,,,,
,,,,,,,,,,,,,,p,1,0.647,space,0.163,0,70,70,26,1,3_dist_green/trial2.png,,,1,3,greenverival,p,63,21,M,2021-02-19_15h49.18.178,exp11,2020.2.6,MacIntel,60,,,,,,,,,,,
,,,,,,,,,,,,,,p,1,0.61,space,0.157,0,71,71,6,1,0_dist_green/trial7.png,,,1,0,greenverival,p,63,21,M,2021-02-19_15h49.18.178,exp11,2020.2.6,MacIntel,60,,,,,,,,,,,
,,,,,,,,,,,,,,p,1,0.575,space,0.14,0,72,72,20,1,0_dist_green/trial21.png,,,1,0,greenverival,p,63,21,M,2021-02-19_15h49.18.178,exp11,2020.2.6,MacIntel,60,,,,,,,,,,,
,,,,,,,,,,,,,,p,1,0.711,space,0.158,0,73,73,45,1,3_dist_green/trial21.png,,,1,3,greenverival,p,63,21,M,2021-02-19_15h49.18.178,exp11,2020.2.6,MacIntel,60,,,,,,,,,,,
,,,,,,,,,,,,,,p,1,0.629,space,0.156,0,74,74,92,1,15_dist_green/trial18.png,,,1,15,greenverival,p,63,21,M,2021-02-19_15h49.18.178,exp11,2020.2.6,MacIntel,60,,,,,,,,,,,
,,,,,,,,,,,,,,p,1,0.707,space,0.125,0,75,75,34,1,3_dist_green/trial10.png,,,1,3,greenverival,p,63,21,M,2021-02-19_15h49.18.178,exp11,2020.2.6,MacIntel,60,,,,,,,,,,,
,,,,,,,,,,,,,,a,1,0.708,space,0.104,0,76,76,135,1,0_targ_4_dist_green/trial11.png,,,0,4,greenverival,a,63,21,M,2021-02-19_15h49.18.178,exp11,2020.2.6,MacIntel,60,,,,,,,,,,,
,,,,,,,,,,,,,,a,1,0.837,space,0.09,0,77,77,128,1,0_targ_4_dist_green/trial4.png,,,0,4,greenverival,a,63,21,M,2021-02-19_15h49.18.178,exp11,2020.2.6,MacIntel,60,,,,,,,,,,,
,,,,,,,,,,,,,,p,1,0.76,space,0.093,0,78,78,65,1,9_dist_green/trial16.png,,,1,9,greenverival,p,63,21,M,2021-02-19_15h49.18.178,exp11,2020.2.6,MacIntel,60,,,,,,,,,,,
,,,,,,,,,,,,,,a,1,0.928,space,0.072,0,79,79,122,1,0_targ_1_dist_green/trial23.png,,,0,1,greenverival,a,63,21,M,2021-02-19_15h49.18.178,exp11,2020.2.6,MacIntel,60,,,,,,,,,,,
,,,,,,,,,,,,,,p,1,0.678,space,0.09,0,80,80,57,1,9_dist_green/trial8.png,,,1,9,greenverival,p,63,21,M,2021-02-19_15h49.18.178,exp11,2020.2.6,MacIntel,60,,,,,,,,,,,
,,,,,,,,,,,,,,p,1,0.748,space,0.126,0,81,81,22,1,0_dist_green/trial23.png,,,1,0,greenverival,p,63,21,M,2021-02-19_15h49.18.178,exp11,2020.2.6,MacIntel,60,,,,,,,,,,,
,,,,,,,,,,,,,,p,1,0.661,space,0.139,0,82,82,19,1,0_dist_green/trial20.png,,,1,0,greenverival,p,63,21,M,2021-02-19_15h49.18.178,exp11,2020.2.6,MacIntel,60,,,,,,,,,,,
,,,,,,,,,,,,,,p,1,0.618,space,0.164,0,83,83,59,1,9_dist_green/trial10.png,,,1,9,greenverival,p,63,21,M,2021-02-19_15h49.18.178,exp11,2020.2.6,MacIntel,60,,,,,,,,,,,
,,,,,,,,,,,,,,p,1,0.878,space,0.124,0,84,84,85,1,15_dist_green/trial11.png,,,1,15,greenverival,p,63,21,M,2021-02-19_15h49.18.178,exp11,2020.2.6,MacIntel,60,,,,,,,,,,,
,,,,,,,,,,,,,,p,1,0.635,space,0.12,0,85,85,90,1,15_dist_green/trial16.png,,,1,15,greenverival,p,63,21,M,2021-02-19_15h49.18.178,exp11,2020.2.6,MacIntel,60,,,,,,,,,,,
,,,,,,,,,,,,,,p,1,0.625,space,0.123,0,86,86,29,1,3_dist_green/trial5.png,,,1,3,greenverival,p,63,21,M,2021-02-19_15h49.18.178,exp11,2020.2.6,MacIntel,60,,,,,,,,,,,
,,,,,,,,,,,,,,p,1,0.76,space,0.096,0,87,87,77,1,15_dist_green/trial3.png,,,1,15,greenverival,p,63,21,M,2021-02-19_15h49.18.178,exp11,2020.2.6,MacIntel,60,,,,,,,,,,,
,,,,,,,,,,,,,,a,1,1.378,space,0.162,0,88,88,170,1,0_targ_10_dist_green/trial21.png,,,0,10,greenverival,a,63,21,M,2021-02-19_15h49.18.178,exp11,2020.2.6,MacIntel,60,,,,,,,,,,,
,,,,,,,,,,,,,,a,1,1.028,space,0.06,0,89,89,157,1,0_targ_10_dist_green/trial8.png,,,0,10,greenverival,a,63,21,M,2021-02-19_15h49.18.178,exp11,2020.2.6,MacIntel,60,,,,,,,,,,,
,,,,,,,,,,,,,,p,1,0.607,space,0.073,0,90,90,82,1,15_dist_green/trial8.png,,,1,15,greenverival,p,63,21,M,2021-02-19_15h49.18.178,exp11,2020.2.6,MacIntel,60,,,,,,,,,,,
,,,,,,,,,,,,,,p,1,0.592,space,0.09,0,91,91,38,1,3_dist_green/trial14.png,,,1,3,greenverival,p,63,21,M,2021-02-19_15h49.18.178,exp11,2020.2.6,MacIntel,60,,,,,,,,,,,
,,,,,,,,,,,,,,a,1,0.609,space,0.088,0,92,92,105,1,0_targ_1_dist_green/trial6.png,,,0,1,greenverival,a,63,21,M,2021-02-19_15h49.18.178,exp11,2020.2.6,MacIntel,60,,,,,,,,,,,
,,,,,,,,,,,,,,a,1,1.182,space,0.059,0,93,93,146,1,0_targ_4_dist_green/trial22.png,,,0,4,greenverival,a,63,21,M,2021-02-19_15h49.18.178,exp11,2020.2.6,MacIntel,60,,,,,,,,,,,
,,,,,,,,,,,,,,a,1,0.899,space,0.075,0,94,94,101,1,0_targ_1_dist_green/trial2.png,,,0,1,greenverival,a,63,21,M,2021-02-19_15h49.18.178,exp11,2020.2.6,MacIntel,60,,,,,,,,,,,
,,,,,,,,,,,,,,p,1,0.629,space,0.073,0,95,95,50,1,9_dist_green/trial1.png,,,1,9,greenverival,p,63,21,M,2021-02-19_15h49.18.178,exp11,2020.2.6,MacIntel,60,,,,,,,,,,,
,,,,,,,,,,,,,,a,1,0.985,space,0.054,0,96,96,148,1,0_targ_4_dist_green/trial24.png,,,0,4,greenverival,a,63,21,M,2021-02-19_15h49.18.178,exp11,2020.2.6,MacIntel,60,,,,,,,,,,,
,,,,,,,,,,,,,,p,1,0.65,space,0.021,0,97,97,32,1,3_dist_green/trial8.png,,,1,3,greenverival,p,63,21,M,2021-02-19_15h49.18.178,exp11,2020.2.6,MacIntel,60,,,,,,,,,,,
,,,,,,,,,,,,,,p,1,1.029,space,0.134,0,98,98,47,1,3_dist_green/trial23.png,,,1,3,greenverival,p,63,21,M,2021-02-19_15h49.18.178,exp11,2020.2.6,MacIntel,60,,,,,,,,,,,
,,,,,,,,,,,,,,p,1,0.707,space,0.087,0,99,99,56,1,9_dist_green/trial7.png,,,1,9,greenverival,p,63,21,M,2021-02-19_15h49.18.178,exp11,2020.2.6,MacIntel,60,,,,,,,,,,,
,,,,,,,,,,,,,,a,1,0.631,space,0.07,0,100,100,132,1,0_targ_4_dist_green/trial8.png,,,0,4,greenverival,a,63,21,M,2021-02-19_15h49.18.178,exp11,2020.2.6,MacIntel,60,,,,,,,,,,,
,,,,,,,,,,,,,,a,1,0.822,space,0.056,0,101,101,124,1,0_targ_1_dist_green/trial25.png,,,0,1,greenverival,a,63,21,M,2021-02-19_15h49.18.178,exp11,2020.2.6,MacIntel,60,,,,,,,,,,,
,,,,,,,,,,,,,,a,1,0.843,space,0.094,0,102,102,150,1,0_targ_10_dist_green/trial1.png,,,0,10,greenverival,a,63,21,M,2021-02-19_15h49.18.178,exp11,2020.2.6,MacIntel,60,,,,,,,,,,,
,,,,,,,,,,,,,,a,1,0.611,space,0.086,0,103,103,176,1,0_targ_16_dist_green/trial2.png,,,0,16,greenverival,a,63,21,M,2021-02-19_15h49.18.178,exp11,2020.2.6,MacIntel,60,,,,,,,,,,,
,,,,,,,,,,,,,,a,1,0.564,space,0.082,0,104,104,165,1,0_targ_10_dist_green/trial16.png,,,0,10,greenverival,a,63,21,M,2021-02-19_15h49.18.178,exp11,2020.2.6,MacIntel,60,,,,,,,,,,,
,,,,,,,,,,,,,,p,1,0.733,space,0.004,0,105,105,98,1,15_dist_green/trial24.png,,,1,15,greenverival,p,63,21,M,2021-02-19_15h49.18.178,exp11,2020.2.6,MacIntel,60,,,,,,,,,,,
,,,,,,,,,,,,,,a,1,0.795,space,0.038,0,106,106,156,1,0_targ_10_dist_green/trial7.png,,,0,10,greenverival,a,63,21,M,2021-02-19_15h49.18.178,exp11,2020.2.6,MacIntel,60,,,,,,,,,,,
,,,,,,,,,,,,,,a,1,0.913,space,0.071,0,107,107,106,1,0_targ_1_dist_green/trial7.png,,,0,1,greenverival,a,63,21,M,2021-02-19_15h49.18.178,exp11,2020.2.6,MacIntel,60,,,,,,,,,,,
,,,,,,,,,,,,,,p,1,0.61,space,0.074,0,108,108,66,1,9_dist_green/trial17.png,,,1,9,greenverival,p,63,21,M,2021-02-19_15h49.18.178,exp11,2020.2.6,MacIntel,60,,,,,,,,,,,
,,,,,,,,,,,,,,a,1,0.861,space,0.022,0,109,109,199,1,0_targ_16_dist_green/trial25.png,,,0,16,greenverival,a,63,21,M,2021-02-19_15h49.18.178,exp11,2020.2.6,MacIntel,60,,,,,,,,,,,
,,,,,,,,,,,,,,p,1,0.629,space,0.091,0,110,110,10,1,0_dist_green/trial11.png,,,1,0,greenverival,p,63,21,M,2021-02-19_15h49.18.178,exp11,2020.2.6,MacIntel,60,,,,,,,,,,,
,,,,,,,,,,,,,,p,1,0.768,space,0.107,0,111,111,88,1,15_dist_green/trial14.png,,,1,15,greenverival,p,63,21,M,2021-02-19_15h49.18.178,exp11,2020.2.6,MacIntel,60,,,,,,,,,,,
,,,,,,,,,,,,,,a,1,0.928,space,0.041,0,112,112,159,1,0_targ_10_dist_green/trial10.png,,,0,10,greenverival,a,63,21,M,2021-02-19_15h49.18.178,exp11,2020.2.6,MacIntel,60,,,,,,,,,,,
,,,,,,,,,,,,,,a,1,0.862,space,0.056,0,113,113,187,1,0_targ_16_dist_green/trial13.png,,,0,16,greenverival,a,63,21,M,2021-02-19_15h49.18.178,exp11,2020.2.6,MacIntel,60,,,,,,,,,,,
,,,,,,,,,,,,,,p,1,0.626,space,0.069,0,114,114,12,1,0_dist_green/trial13.png,,,1,0,greenverival,p,63,21,M,2021-02-19_15h49.18.178,exp11,2020.2.6,MacIntel,60,,,,,,,,,,,
,,,,,,,,,,,,,,a,1,0.628,space,0.044,0,115,115,153,1,0_targ_10_dist_green/trial4.png,,,0,10,greenverival,a,63,21,M,2021-02-19_15h49.18.178,exp11,2020.2.6,MacIntel,60,,,,,,,,,,,
,,,,,,,,,,,,,,p,1,0.575,space,0.071,0,116,116,52,1,9_dist_green/trial3.png,,,1,9,greenverival,p,63,21,M,2021-02-19_15h49.18.178,exp11,2020.2.6,MacIntel,60,,,,,,,,,,,
,,,,,,,,,,,,,,p,1,0.781,space,0.079,0,117,117,49,1,3_dist_green/trial25.png,,,1,3,greenverival,p,63,21,M,2021-02-19_15h49.18.178,exp11,2020.2.6,MacIntel,60,,,,,,,,,,,
,,,,,,,,,,,,,,p,1,0.609,space,0.107,0,118,118,21,1,0_dist_green/trial22.png,,,1,0,greenverival,p,63,21,M,2021-02-19_15h49.18.178,exp11,2020.2.6,MacIntel,60,,,,,,,,,,,
,,,,,,,,,,,,,,p,1,0.591,space,0.137,0,119,119,46,1,3_dist_green/trial22.png,,,1,3,greenverival,p,63,21,M,2021-02-19_15h49.18.178,exp11,2020.2.6,MacIntel,60,,,,,,,,,,,
,,,,,,,,,,,,,,a,1,0.628,space,0.029,0,120,120,163,1,0_targ_10_dist_green/trial14.png,,,0,10,greenverival,a,63,21,M,2021-02-19_15h49.18.178,exp11,2020.2.6,MacIntel,60,,,,,,,,,,,
,,,,,,,,,,,,,,p,1,0.529,space,0.11,0,121,121,3,1,0_dist_green/trial4.png,,,1,0,greenverival,p,63,21,M,2021-02-19_15h49.18.178,exp11,2020.2.6,MacIntel,60,,,,,,,,,,,
,,,,,,,,,,,,,,a,1,0.492,space,0.819,0,122,122,116,1,0_targ_1_dist_green/trial17.png,,,0,1,greenverival,a,63,21,M,2021-02-19_15h49.18.178,exp11,2020.2.6,MacIntel,60,,,,,,,,,,,
,,,,,,,,,,,,,,a,1,0.843,space,0.058,0,123,123,191,1,0_targ_16_dist_green/trial17.png,,,0,16,greenverival,a,63,21,M,2021-02-19_15h49.18.178,exp11,2020.2.6,MacIntel,60,,,,,,,,,,,
,,,,,,,,,,,,,,a,1,0.825,space,0.073,0,124,124,102,1,0_targ_1_dist_green/trial3.png,,,0,1,greenverival,a,63,21,M,2021-02-19_15h49.18.178,exp11,2020.2.6,MacIntel,60,,,,,,,,,,,
,,,,,,,,,,,,,,a,1,0.687,space,0.104,0,125,125,143,1,0_targ_4_dist_green/trial19.png,,,0,4,greenverival,a,63,21,M,2021-02-19_15h49.18.178,exp11,2020.2.6,MacIntel,60,,,,,,,,,,,
,,,,,,,,,,,,,,p,1,0.558,space,0.07,0,126,126,43,1,3_dist_green/trial19.png,,,1,3,greenverival,p,63,21,M,2021-02-19_15h49.18.178,exp11,2020.2.6,MacIntel,60,,,,,,,,,,,
,,,,,,,,,,,,,,p,1,0.682,space,0.075,0,127,127,0,1,0_dist_green/trial1.png,,,1,0,greenverival,p,63,21,M,2021-02-19_15h49.18.178,exp11,2020.2.6,MacIntel,60,,,,,,,,,,,
,,,,,,,,,,,,,,a,1,0.847,space,0.004,0,128,128,196,1,0_targ_16_dist_green/trial22.png,,,0,16,greenverival,a,63,21,M,2021-02-19_15h49.18.178,exp11,2020.2.6,MacIntel,60,,,,,,,,,,,
,,,,,,,,,,,,,,a,1,1.36,space,1.878,0,129,129,197,1,0_targ_16_dist_green/trial23.png,,,0,16,greenverival,a,63,21,M,2021-02-19_15h49.18.178,exp11,2020.2.6,MacIntel,60,,,,,,,,,,,
,,,,,,,,,,,,,,a,1,2.712,space,0.055,0,130,130,126,1,0_targ_4_dist_green/trial2.png,,,0,4,greenverival,a,63,21,M,2021-02-19_15h49.18.178,exp11,2020.2.6,MacIntel,60,,,,,,,,,,,
,,,,,,,,,,,,,,p,1,0.609,space,0.111,0,131,131,78,1,15_dist_green/trial4.png,,,1,15,greenverival,p,63,21,M,2021-02-19_15h49.18.178,exp11,2020.2.6,MacIntel,60,,,,,,,,,,,
,,,,,,,,,,,,,,p,1,0.717,space,0.124,0,132,132,93,1,15_dist_green/trial19.png,,,1,15,greenverival,p,63,21,M,2021-02-19_15h49.18.178,exp11,2020.2.6,MacIntel,60,,,,,,,,,,,
,,,,,,,,,,,,,,a,1,0.762,space,0.002,0,133,133,179,1,0_targ_16_dist_green/trial5.png,,,0,16,greenverival,a,63,21,M,2021-02-19_15h49.18.178,exp11,2020.2.6,MacIntel,60,,,,,,,,,,,
,,,,,,,,,,,,,,p,1,0.72,space,0.079,0,134,134,76,1,15_dist_green/trial2.png,,,1,15,greenverival,p,63,21,M,2021-02-19_15h49.18.178,exp11,2020.2.6,MacIntel,60,,,,,,,,,,,
,,,,,,,,,,,,,,a,1,0.66,space,0.053,0,135,135,136,1,0_targ_4_dist_green/trial12.png,,,0,4,greenverival,a,63,21,M,2021-02-19_15h49.18.178,exp11,2020.2.6,MacIntel,60,,,,,,,,,,,
,,,,,,,,,,,,,,p,1,0.448,space,0.656,0,136,136,15,1,0_dist_green/trial16.png,,,1,0,greenverival,p,63,21,M,2021-02-19_15h49.18.178,exp11,2020.2.6,MacIntel,60,,,,,,,,,,,
,,,,,,,,,,,,,,p,1,0.595,space,0.152,0,137,137,41,1,3_dist_green/trial17.png,,,1,3,greenverival,p,63,21,M,2021-02-19_15h49.18.178,exp11,2020.2.6,MacIntel,60,,,,,,,,,,,
,,,,,,,,,,,,,,p,1,0.676,space,0.104,0,138,138,75,1,15_dist_green/trial1.png,,,1,15,greenverival,p,63,21,M,2021-02-19_15h49.18.178,exp11,2020.2.6,MacIntel,60,,,,,,,,,,,
,,,,,,,,,,,,,,a,1,0.779,space,0.071,0,139,139,142,1,0_targ_4_dist_green/trial18.png,,,0,4,greenverival,a,63,21,M,2021-02-19_15h49.18.178,exp11,2020.2.6,MacIntel,60,,,,,,,,,,,
,,,,,,,,,,,,,,p,1,0.485,space,0.107,0,140,140,13,1,0_dist_green/trial14.png,,,1,0,greenverival,p,63,21,M,2021-02-19_15h49.18.178,exp11,2020.2.6,MacIntel,60,,,,,,,,,,,
,,,,,,,,,,,,,,a,1,0.719,space,0.109,0,141,141,118,1,0_targ_1_dist_green/trial19.png,,,0,1,greenverival,a,63,21,M,2021-02-19_15h49.18.178,exp11,2020.2.6,MacIntel,60,,,,,,,,,,,
,,,,,,,,,,,,,,p,1,0.667,space,0.128,0,142,142,14,1,0_dist_green/trial15.png,,,1,0,greenverival,p,63,21,M,2021-02-19_15h49.18.178,exp11,2020.2.6,MacIntel,60,,,,,,,,,,,
,,,,,,,,,,,,,,a,1,0.776,space,0.005,0,143,143,192,1,0_targ_16_dist_green/trial18.png,,,0,16,greenverival,a,63,21,M,2021-02-19_15h49.18.178,exp11,2020.2.6,MacIntel,60,,,,,,,,,,,
,,,,,,,,,,,,,,p,1,0.551,space,0.106,0,144,144,87,1,15_dist_green/trial13.png,,,1,15,greenverival,p,63,21,M,2021-02-19_15h49.18.178,exp11,2020.2.6,MacIntel,60,,,,,,,,,,,
,,,,,,,,,,,,,,a,1,0.963,space,0.071,0,145,145,137,1,0_targ_4_dist_green/trial13.png,,,0,4,greenverival,a,63,21,M,2021-02-19_15h49.18.178,exp11,2020.2.6,MacIntel,60,,,,,,,,,,,
,,,,,,,,,,,,,,a,1,0.782,space,0.052,0,146,146,169,1,0_targ_10_dist_green/trial20.png,,,0,10,greenverival,a,63,21,M,2021-02-19_15h49.18.178,exp11,2020.2.6,MacIntel,60,,,,,,,,,,,
,,,,,,,,,,,,,,a,1,0.728,space,0.053,0,147,147,167,1,0_targ_10_dist_green/trial18.png,,,0,10,greenverival,a,63,21,M,2021-02-19_15h49.18.178,exp11,2020.2.6,MacIntel,60,,,,,,,,,,,
,,,,,,,,,,,,,,a,1,0.764,space,0.833,0,148,148,186,1,0_targ_16_dist_green/trial12.png,,,0,16,greenverival,a,63,21,M,2021-02-19_15h49.18.178,exp11,2020.2.6,MacIntel,60,,,,,,,,,,,
,,,,,,,,,,,,,,a,1,0.811,space,0.875,0,149,149,182,1,0_targ_16_dist_green/trial8.png,,,0,16,greenverival,a,63,21,M,2021-02-19_15h49.18.178,exp11,2020.2.6,MacIntel,60,,,,,,,,,,,
,,,,,,,,,,,,,,a,1,0.003,space,1.205,0,150,150,113,1,0_targ_1_dist_green/trial14.png,,,0,1,greenverival,a,63,21,M,2021-02-19_15h49.18.178,exp11,2020.2.6,MacIntel,60,,,,,,,,,,,
,,,,,,,,,,,,,,a,1,0.881,space,0.068,0,151,151,121,1,0_targ_1_dist_green/trial22.png,,,0,1,greenverival,a,63,21,M,2021-02-19_15h49.18.178,exp11,2020.2.6,MacIntel,60,,,,,,,,,,,
,,,,,,,,,,,,,,p,1,0.595,space,0.047,0,152,152,30,1,3_dist_green/trial6.png,,,1,3,greenverival,p,63,21,M,2021-02-19_15h49.18.178,exp11,2020.2.6,MacIntel,60,,,,,,,,,,,
,,,,,,,,,,,,,,a,1,1.467,space,0.078,0,153,153,108,1,0_targ_1_dist_green/trial9.png,,,0,1,greenverival,a,63,21,M,2021-02-19_15h49.18.178,exp11,2020.2.6,MacIntel,60,,,,,,,,,,,
,,,,,,,,,,,,,,p,1,0.595,space,0.047,0,154,154,24,1,0_dist_green/trial25.png,,,1,0,greenverival,p,63,21,M,2021-02-19_15h49.18.178,exp11,2020.2.6,MacIntel,60,,,,,,,,,,,
,,,,,,,,,,,,,,a,1,0.608,space,0.091,0,155,155,125,1,0_targ_4_dist_green/trial1.png,,,0,4,greenverival,a,63,21,M,2021-02-19_15h49.18.178,exp11,2020.2.6,MacIntel,60,,,,,,,,,,,
,,,,,,,,,,,,,,p,1,0.536,space,0.028,0,156,156,44,1,3_dist_green/trial20.png,,,1,3,greenverival,p,63,21,M,2021-02-19_15h49.18.178,exp11,2020.2.6,MacIntel,60,,,,,,,,,,,
,,,,,,,,,,,,,,p,1,1.215,space,0.405,0,157,157,31,1,3_dist_green/trial7.png,,,1,3,greenverival,p,63,21,M,2021-02-19_15h49.18.178,exp11,2020.2.6,MacIntel,60,,,,,,,,,,,
,,,,,,,,,,,,,,p,1,0.83,space,0.306,0,158,158,4,1,0_dist_green/trial5.png,,,1,0,greenverival,p,63,21,M,2021-02-19_15h49.18.178,exp11,2020.2.6,MacIntel,60,,,,,,,,,,,
,,,,,,,,,,,,,,a,1,1.464,space,0.188,0,159,159,177,1,0_targ_16_dist_green/trial3.png,,,0,16,greenverival,a,63,21,M,2021-02-19_15h49.18.178,exp11,2020.2.6,MacIntel,60,,,,,,,,,,,
,,,,,,,,,,,,,,a,1,1.358,space,0.071,0,160,160,171,1,0_targ_10_dist_green/trial22.png,,,0,10,greenverival,a,63,21,M,2021-02-19_15h49.18.178,exp11,2020.2.6,MacIntel,60,,,,,,,,,,,
,,,,,,,,,,,,,,p,1,0.508,space,0.145,0,161,161,11,1,0_dist_green/trial12.png,,,1,0,greenverival,p,63,21,M,2021-02-19_15h49.18.178,exp11,2020.2.6,MacIntel,60,,,,,,,,,,,
,,,,,,,,,,,,,,a,1,0.812,space,0.069,0,162,162,155,1,0_targ_10_dist_green/trial6.png,,,0,10,greenverival,a,63,21,M,2021-02-19_15h49.18.178,exp11,2020.2.6,MacIntel,60,,,,,,,,,,,
,,,,,,,,,,,,,,a,1,0.891,space,0.057,0,163,163,141,1,0_targ_4_dist_green/trial17.png,,,0,4,greenverival,a,63,21,M,2021-02-19_15h49.18.178,exp11,2020.2.6,MacIntel,60,,,,,,,,,,,
,,,,,,,,,,,,,,a,1,1.624,space,0.1,0,164,164,183,1,0_targ_16_dist_green/trial9.png,,,0,16,greenverival,a,63,21,M,2021-02-19_15h49.18.178,exp11,2020.2.6,MacIntel,60,,,,,,,,,,,
,,,,,,,,,,,,,,p,1,1.661,space,0.433,0,165,165,8,1,0_dist_green/trial9.png,,,1,0,greenverival,p,63,21,M,2021-02-19_15h49.18.178,exp11,2020.2.6,MacIntel,60,,,,,,,,,,,
,,,,,,,,,,,,,,a,1,0.742,space,0.14,0,166,166,151,1,0_targ_10_dist_green/trial2.png,,,0,10,greenverival,a,63,21,M,2021-02-19_15h49.18.178,exp11,2020.2.6,MacIntel,60,,,,,,,,,,,
,,,,,,,,,,,,,,p,1,0.643,space,0.118,0,167,167,74,1,9_dist_green/trial25.png,,,1,9,greenverival,p,63,21,M,2021-02-19_15h49.18.178,exp11,2020.2.6,MacIntel,60,,,,,,,,,,,
,,,,,,,,,,,,,,a,1,1.162,space,0.14,0,168,168,107,1,0_targ_1_dist_green/trial8.png,,,0,1,greenverival,a,63,21,M,2021-02-19_15h49.18.178,exp11,2020.2.6,MacIntel,60,,,,,,,,,,,
,,,,,,,,,,,,,,p,1,0.529,space,0.209,0,169,169,68,1,9_dist_green/trial19.png,,,1,9,greenverival,p,63,21,M,2021-02-19_15h49.18.178,exp11,2020.2.6,MacIntel,60,,,,,,,,,,,
,,,,,,,,,,,,,,p,1,1.434,space,0.18,0,170,170,23,1,0_dist_green/trial24.png,,,1,0,greenverival,p,63,21,M,2021-02-19_15h49.18.178,exp11,2020.2.6,MacIntel,60,,,,,,,,,,,
,,,,,,,,,,,,,,a,1,0.829,space,0.124,0,171,171,112,1,0_targ_1_dist_green/trial13.png,,,0,1,greenverival,a,63,21,M,2021-02-19_15h49.18.178,exp11,2020.2.6,MacIntel,60,,,,,,,,,,,
,,,,,,,,,,,,,,a,1,0.691,space,0.11,0,172,172,109,1,0_targ_1_dist_green/trial10.png,,,0,1,greenverival,a,63,21,M,2021-02-19_15h49.18.178,exp11,2020.2.6,MacIntel,60,,,,,,,,,,,
,,,,,,,,,,,,,,a,1,0.627,space,0.12,0,173,173,100,1,0_targ_1_dist_green/trial1.png,,,0,1,greenverival,a,63,21,M,2021-02-19_15h49.18.178,exp11,2020.2.6,MacIntel,60,,,,,,,,,,,
,,,,,,,,,,,,,,p,1,0.675,space,0.136,0,174,174,54,1,9_dist_green/trial5.png,,,1,9,greenverival,p,63,21,M,2021-02-19_15h49.18.178,exp11,2020.2.6,MacIntel,60,,,,,,,,,,,
,,,,,,,,,,,,,,a,1,1.143,space,0.155,0,175,175,175,1,0_targ_16_dist_green/trial1.png,,,0,16,greenverival,a,63,21,M,2021-02-19_15h49.18.178,exp11,2020.2.6,MacIntel,60,,,,,,,,,,,
,,,,,,,,,,,,,,p,1,0.56,space,0.187,0,176,176,48,1,3_dist_green/trial24.png,,,1,3,greenverival,p,63,21,M,2021-02-19_15h49.18.178,exp11,2020.2.6,MacIntel,60,,,,,,,,,,,
,,,,,,,,,,,,,,p,1,1.044,space,0.189,0,177,177,81,1,15_dist_green/trial7.png,,,1,15,greenverival,p,63,21,M,2021-02-19_15h49.18.178,exp11,2020.2.6,MacIntel,60,,,,,,,,,,,
,,,,,,,,,,,,,,p,1,0.658,space,0.203,0,178,178,55,1,9_dist_green/trial6.png,,,1,9,greenverival,p,63,21,M,2021-02-19_15h49.18.178,exp11,2020.2.6,MacIntel,60,,,,,,,,,,,
,,,,,,,,,,,,,,a,1,1.012,space,0.186,0,179,179,188,1,0_targ_16_dist_green/trial14.png,,,0,16,greenverival,a,63,21,M,2021-02-19_15h49.18.178,exp11,2020.2.6,MacIntel,60,,,,,,,,,,,
,,,,,,,,,,,,,,a,1,0.775,space,0.158,0,180,180,158,1,0_targ_10_dist_green/trial9.png,,,0,10,greenverival,a,63,21,M,2021-02-19_15h49.18.178,exp11,2020.2.6,MacIntel,60,,,,,,,,,,,
,,,,,,,,,,,,,,a,1,0.626,space,0.138,0,181,181,140,1,0_targ_4_dist_green/trial6.png,,,0,4,greenverival,a,63,21,M,2021-02-19_15h49.18.178,exp11,2020.2.6,MacIntel,60,,,,,,,,,,,
,,,,,,,,,,,,,,p,1,0.712,space,0.139,0,182,182,70,1,9_dist_green/trial21.png,,,1,9,greenverival,p,63,21,M,2021-02-19_15h49.18.178,exp11,2020.2.6,MacIntel,60,,,,,,,,,,,
,,,,,,,,,,,,,,a,1,0.661,space,0.154,0,183,183,194,1,0_targ_16_dist_green/trial20.png,,,0,16,greenverival,a,63,21,M,2021-02-19_15h49.18.178,exp11,2020.2.6,MacIntel,60,,,,,,,,,,,
,,,,,,,,,,,,,,a,1,0.725,space,0.145,0,184,184,131,1,0_targ_4_dist_green/trial7.png,,,0,4,greenverival,a,63,21,M,2021-02-19_15h49.18.178,exp11,2020.2.6,MacIntel,60,,,,,,,,,,,
,,,,,,,,,,,,,,p,1,0.675,space,0.14,0,185,185,89,1,15_dist_green/trial15.png,,,1,15,greenverival,p,63,21,M,2021-02-19_15h49.18.178,exp11,2020.2.6,MacIntel,60,,,,,,,,,,,
,,,,,,,,,,,,,,p,1,0.744,space,0.182,0,186,186,9,1,0_dist_green/trial10.png,,,1,0,greenverival,p,63,21,M,2021-02-19_15h49.18.178,exp11,2020.2.6,MacIntel,60,,,,,,,,,,,
,,,,,,,,,,,,,,p,1,0.563,space,0.189,0,187,187,71,1,9_dist_green/trial22.png,,,1,9,greenverival,p,63,21,M,2021-02-19_15h49.18.178,exp11,2020.2.6,MacIntel,60,,,,,,,,,,,
,,,,,,,,,,,,,,a,1,0.614,space,0.162,0,188,188,184,1,0_targ_16_dist_green/trial10.png,,,0,16,greenverival,a,63,21,M,2021-02-19_15h49.18.178,exp11,2020.2.6,MacIntel,60,,,,,,,,,,,
,,,,,,,,,,,,,,p,1,0.717,space,0.172,0,189,189,99,1,15_dist_green/trial25.png,,,1,15,greenverival,p,63,21,M,2021-02-19_15h49.18.178,exp11,2020.2.6,MacIntel,60,,,,,,,,,,,
,,,,,,,,,,,,,,a,1,0.613,space,0.188,0,190,190,161,1,0_targ_10_dist_green/trial12.png,,,0,10,greenverival,a,63,21,M,2021-02-19_15h49.18.178,exp11,2020.2.6,MacIntel,60,,,,,,,,,,,
,,,,,,,,,,,,,,p,1,0.976,space,0.153,0,191,191,37,1,3_dist_green/trial13.png,,,1,3,greenverival,p,63,21,M,2021-02-19_15h49.18.178,exp11,2020.2.6,MacIntel,60,,,,,,,,,,,
,,,,,,,,,,,,,,a,1,0.793,space,0.421,0,192,192,195,1,0_targ_16_dist_green/trial21.png,,,0,16,greenverival,a,63,21,M,2021-02-19_15h49.18.178,exp11,2020.2.6,MacIntel,60,,,,,,,,,,,
,,,,,,,,,,,,,,p,1,0.675,space,0.193,0,193,193,25,1,3_dist_green/trial1.png,,,1,3,greenverival,p,63,21,M,2021-02-19_15h49.18.178,exp11,2020.2.6,MacIntel,60,,,,,,,,,,,
,,,,,,,,,,,,,,a,1,0.66,space,0.309,0,194,194,185,1,0_targ_16_dist_green/trial11.png,,,0,16,greenverival,a,63,21,M,2021-02-19_15h49.18.178,exp11,2020.2.6,MacIntel,60,,,,,,,,,,,
,,,,,,,,,,,,,,p,1,0.658,space,0.232,0,195,195,18,1,0_dist_green/trial19.png,,,1,0,greenverival,p,63,21,M,2021-02-19_15h49.18.178,exp11,2020.2.6,MacIntel,60,,,,,,,,,,,
,,,,,,,,,,,,,,a,1,0.658,space,0.391,0,196,196,154,1,0_targ_10_dist_green/trial5.png,,,0,10,greenverival,a,63,21,M,2021-02-19_15h49.18.178,exp11,2020.2.6,MacIntel,60,,,,,,,,,,,
,,,,,,,,,,,,,,a,1,0.71,space,0.327,0,197,197,166,1,0_targ_10_dist_green/trial17.png,,,0,10,greenverival,a,63,21,M,2021-02-19_15h49.18.178,exp11,2020.2.6,MacIntel,60,,,,,,,,,,,
,,,,,,,,,,,,,,a,1,0.66,space,0.368,0,198,198,114,1,0_targ_1_dist_green/trial15.png,,,0,1,greenverival,a,63,21,M,2021-02-19_15h49.18.178,exp11,2020.2.6,MacIntel,60,,,,,,,,,,,
,,,,,,,,,,,,,,a,1,0.838,space,0.304,0,199,199,133,1,0_targ_4_dist_green/trial9.png,,,0,4,greenverival,a,63,21,M,2021-02-19_15h49.18.178,exp11,2020.2.6,MacIntel,60,,,,,,,,,,,
,,,,,,,,,,,,,,,,,,,,,,,,,,,,,,,63,21,M,2021-02-19_15h49.18.178,exp11,2020.2.6,MacIntel,60,0,1,1,0,1,conGreen.xlsx,green vertical,Look for green vertical bar (target) and indicate if it is present or absent in the array. If green vertical target is present press 'p' and if absent press 'a'. Press SPACE to start.,,,
