key_resp_6.keys,key_resp_6.rt,key_resp_7.keys,key_resp_7.rt,key_resp_8.keys,key_resp_8.rt,key_resp_10.keys,key_resp_10.rt,key_resp_9.keys,key_resp_9.rt,key_resp_3.keys,key_resp_3.rt,key_resp_5.keys,key_resp_5.rt,key_resp.keys,key_resp.corr,key_resp.rt,key_resp_4.keys,key_resp_4.rt,trials.thisRepN,trials.thisTrialN,trials.thisN,trials.thisIndex,trials.ran,ImageFile,tarPos,tarSize,targPres,numDist,targetName,correctAns,participant,age,sex,date,expName,psychopyVersion,OS,frameRate,trials_2.thisRepN,trials_2.thisTrialN,trials_2.thisN,trials_2.thisIndex,trials_2.ran,condsFile,targName,instructionText,colTarget,sizeTarg,posit
space,1.118,space,0.399,space,0.327,space,0.347,space,1.16,space,0.443,space,12.625,a,1,2.552,space,1.212,0,0,0,163,1,0_targ_10_dist_red/trial14.png,,,0,10,redHorizontal,a,65,27,M,2021-02-20_12h43.13.739,exp11,2020.2.6,MacIntel,60,,,,,,,,,,,
,,,,,,,,,,,,,,a,1,0.646,space,0.309,0,1,1,140,1,0_targ_4_dist_red/trial6.png,,,0,4,redHorizontal,a,65,27,M,2021-02-20_12h43.13.739,exp11,2020.2.6,MacIntel,60,,,,,,,,,,,
,,,,,,,,,,,,,,a,1,0.549,space,0.287,0,2,2,114,1,0_targ_1_dist_red/trial15.png,,,0,1,redHorizontal,a,65,27,M,2021-02-20_12h43.13.739,exp11,2020.2.6,MacIntel,60,,,,,,,,,,,
,,,,,,,,,,,,,,a,1,0.745,space,0.307,0,3,3,151,1,0_targ_10_dist_red/trial2.png,,,0,10,redHorizontal,a,65,27,M,2021-02-20_12h43.13.739,exp11,2020.2.6,MacIntel,60,,,,,,,,,,,
,,,,,,,,,,,,,,p,1,0.774,space,0.289,0,4,4,25,1,3_dist_red/trial1.png,,,1,3,redHorizontal,p,65,27,M,2021-02-20_12h43.13.739,exp11,2020.2.6,MacIntel,60,,,,,,,,,,,
,,,,,,,,,,,,,,a,1,0.65,space,0.249,0,5,5,177,1,0_targ_16_dist_red/trial3.png,,,0,16,redHorizontal,a,65,27,M,2021-02-20_12h43.13.739,exp11,2020.2.6,MacIntel,60,,,,,,,,,,,
,,,,,,,,,,,,,,p,1,0.692,space,0.246,0,6,6,61,1,9_dist_red/trial12.png,,,1,9,redHorizontal,p,65,27,M,2021-02-20_12h43.13.739,exp11,2020.2.6,MacIntel,60,,,,,,,,,,,
,,,,,,,,,,,,,,a,1,0.698,space,0.246,0,7,7,173,1,0_targ_10_dist_red/trial24.png,,,0,10,redHorizontal,a,65,27,M,2021-02-20_12h43.13.739,exp11,2020.2.6,MacIntel,60,,,,,,,,,,,
,,,,,,,,,,,,,,p,1,0.711,space,0.222,0,8,8,96,1,15_dist_red/trial22.png,,,1,15,redHorizontal,p,65,27,M,2021-02-20_12h43.13.739,exp11,2020.2.6,MacIntel,60,,,,,,,,,,,
,,,,,,,,,,,,,,p,1,0.679,space,0.185,0,9,9,91,1,15_dist_red/trial17.png,,,1,15,redHorizontal,p,65,27,M,2021-02-20_12h43.13.739,exp11,2020.2.6,MacIntel,60,,,,,,,,,,,
,,,,,,,,,,,,,,a,1,0.753,space,0.255,0,10,10,121,1,0_targ_1_dist_red/trial22.png,,,0,1,redHorizontal,a,65,27,M,2021-02-20_12h43.13.739,exp11,2020.2.6,MacIntel,60,,,,,,,,,,,
,,,,,,,,,,,,,,a,1,0.87,space,0.158,0,11,11,185,1,0_targ_16_dist_red/trial11.png,,,0,16,redHorizontal,a,65,27,M,2021-02-20_12h43.13.739,exp11,2020.2.6,MacIntel,60,,,,,,,,,,,
,,,,,,,,,,,,,,a,1,0.662,space,0.175,0,12,12,128,1,0_targ_4_dist_red/trial4.png,,,0,4,redHorizontal,a,65,27,M,2021-02-20_12h43.13.739,exp11,2020.2.6,MacIntel,60,,,,,,,,,,,
,,,,,,,,,,,,,,a,0,1.067,space,0.94,0,13,13,11,1,0_dist_red/trial12.png,,,1,0,redHorizontal,p,65,27,M,2021-02-20_12h43.13.739,exp11,2020.2.6,MacIntel,60,,,,,,,,,,,
,,,,,,,,,,,,,,a,1,0.873,space,0.158,0,14,14,154,1,0_targ_10_dist_red/trial5.png,,,0,10,redHorizontal,a,65,27,M,2021-02-20_12h43.13.739,exp11,2020.2.6,MacIntel,60,,,,,,,,,,,
,,,,,,,,,,,,,,a,1,0.523,space,0.189,0,15,15,179,1,0_targ_16_dist_red/trial5.png,,,0,16,redHorizontal,a,65,27,M,2021-02-20_12h43.13.739,exp11,2020.2.6,MacIntel,60,,,,,,,,,,,
,,,,,,,,,,,,,,a,0,0.535,space,0.591,0,16,16,75,1,15_dist_red/trial1.png,,,1,15,redHorizontal,p,65,27,M,2021-02-20_12h43.13.739,exp11,2020.2.6,MacIntel,60,,,,,,,,,,,
,,,,,,,,,,,,,,a,1,1.109,space,0.301,0,17,17,124,1,0_targ_1_dist_red/trial25.png,,,0,1,redHorizontal,a,65,27,M,2021-02-20_12h43.13.739,exp11,2020.2.6,MacIntel,60,,,,,,,,,,,
,,,,,,,,,,,,,,a,0,0.942,space,0.539,0,18,18,88,1,15_dist_red/trial14.png,,,1,15,redHorizontal,p,65,27,M,2021-02-20_12h43.13.739,exp11,2020.2.6,MacIntel,60,,,,,,,,,,,
,,,,,,,,,,,,,,a,1,0.769,space,0.284,0,19,19,118,1,0_targ_1_dist_red/trial19.png,,,0,1,redHorizontal,a,65,27,M,2021-02-20_12h43.13.739,exp11,2020.2.6,MacIntel,60,,,,,,,,,,,
,,,,,,,,,,,,,,p,1,0.739,space,0.246,0,20,20,52,1,9_dist_red/trial3.png,,,1,9,redHorizontal,p,65,27,M,2021-02-20_12h43.13.739,exp11,2020.2.6,MacIntel,60,,,,,,,,,,,
,,,,,,,,,,,,,,p,1,0.558,space,0.193,0,21,21,48,1,3_dist_red/trial24.png,,,1,3,redHorizontal,p,65,27,M,2021-02-20_12h43.13.739,exp11,2020.2.6,MacIntel,60,,,,,,,,,,,
,,,,,,,,,,,,,,a,1,0.729,space,0.286,0,22,22,172,1,0_targ_10_dist_red/trial23.png,,,0,10,redHorizontal,a,65,27,M,2021-02-20_12h43.13.739,exp11,2020.2.6,MacIntel,60,,,,,,,,,,,
,,,,,,,,,,,,,,a,1,0.595,space,0.353,0,23,23,100,1,0_targ_1_dist_red/trial1.png,,,0,1,redHorizontal,a,65,27,M,2021-02-20_12h43.13.739,exp11,2020.2.6,MacIntel,60,,,,,,,,,,,
,,,,,,,,,,,,,,a,0,0.58,space,0.922,0,24,24,84,1,15_dist_red/trial10.png,,,1,15,redHorizontal,p,65,27,M,2021-02-20_12h43.13.739,exp11,2020.2.6,MacIntel,60,,,,,,,,,,,
,,,,,,,,,,,,,,a,1,0.762,space,0.336,0,25,25,141,1,0_targ_4_dist_red/trial17.png,,,0,4,redHorizontal,a,65,27,M,2021-02-20_12h43.13.739,exp11,2020.2.6,MacIntel,60,,,,,,,,,,,
,,,,,,,,,,,,,,a,1,0.796,space,0.294,0,26,26,113,1,0_targ_1_dist_red/trial14.png,,,0,1,redHorizontal,a,65,27,M,2021-02-20_12h43.13.739,exp11,2020.2.6,MacIntel,60,,,,,,,,,,,
,,,,,,,,,,,,,,p,1,0.624,space,0.256,0,27,27,30,1,3_dist_red/trial6.png,,,1,3,redHorizontal,p,65,27,M,2021-02-20_12h43.13.739,exp11,2020.2.6,MacIntel,60,,,,,,,,,,,
,,,,,,,,,,,,,,p,1,1.036,space,0.271,0,28,28,18,1,0_dist_red/trial19.png,,,1,0,redHorizontal,p,65,27,M,2021-02-20_12h43.13.739,exp11,2020.2.6,MacIntel,60,,,,,,,,,,,
,,,,,,,,,,,,,,a,1,0.578,space,0.245,0,29,29,120,1,0_targ_1_dist_red/trial21.png,,,0,1,redHorizontal,a,65,27,M,2021-02-20_12h43.13.739,exp11,2020.2.6,MacIntel,60,,,,,,,,,,,
,,,,,,,,,,,,,,a,1,0.859,space,0.562,0,30,30,184,1,0_targ_16_dist_red/trial10.png,,,0,16,redHorizontal,a,65,27,M,2021-02-20_12h43.13.739,exp11,2020.2.6,MacIntel,60,,,,,,,,,,,
,,,,,,,,,,,,,,a,1,0.628,space,0.185,0,31,31,122,1,0_targ_1_dist_red/trial23.png,,,0,1,redHorizontal,a,65,27,M,2021-02-20_12h43.13.739,exp11,2020.2.6,MacIntel,60,,,,,,,,,,,
,,,,,,,,,,,,,,a,1,0.629,space,0.289,0,32,32,145,1,0_targ_4_dist_red/trial21.png,,,0,4,redHorizontal,a,65,27,M,2021-02-20_12h43.13.739,exp11,2020.2.6,MacIntel,60,,,,,,,,,,,
,,,,,,,,,,,,,,p,1,0.509,space,0.231,0,33,33,43,1,3_dist_red/trial19.png,,,1,3,redHorizontal,p,65,27,M,2021-02-20_12h43.13.739,exp11,2020.2.6,MacIntel,60,,,,,,,,,,,
,,,,,,,,,,,,,,a,1,0.656,space,0.255,0,34,34,133,1,0_targ_4_dist_red/trial9.png,,,0,4,redHorizontal,a,65,27,M,2021-02-20_12h43.13.739,exp11,2020.2.6,MacIntel,60,,,,,,,,,,,
,,,,,,,,,,,,,,a,1,0.634,space,0.222,0,35,35,161,1,0_targ_10_dist_red/trial12.png,,,0,10,redHorizontal,a,65,27,M,2021-02-20_12h43.13.739,exp11,2020.2.6,MacIntel,60,,,,,,,,,,,
,,,,,,,,,,,,,,a,0,0.58,space,0.268,0,36,36,83,1,15_dist_red/trial9.png,,,1,15,redHorizontal,p,65,27,M,2021-02-20_12h43.13.739,exp11,2020.2.6,MacIntel,60,,,,,,,,,,,
,,,,,,,,,,,,,,a,0,0.598,space,0.062,0,37,37,62,1,9_dist_red/trial13.png,,,1,9,redHorizontal,p,65,27,M,2021-02-20_12h43.13.739,exp11,2020.2.6,MacIntel,60,,,,,,,,,,,
,,,,,,,,,,,,,,a,1,0.711,space,0.266,0,38,38,148,1,0_targ_4_dist_red/trial24.png,,,0,4,redHorizontal,a,65,27,M,2021-02-20_12h43.13.739,exp11,2020.2.6,MacIntel,60,,,,,,,,,,,
,,,,,,,,,,,,,,a,0,0.771,space,0.369,0,39,39,82,1,15_dist_red/trial8.png,,,1,15,redHorizontal,p,65,27,M,2021-02-20_12h43.13.739,exp11,2020.2.6,MacIntel,60,,,,,,,,,,,
,,,,,,,,,,,,,,p,1,0.922,space,0.214,0,40,40,58,1,9_dist_red/trial9.png,,,1,9,redHorizontal,p,65,27,M,2021-02-20_12h43.13.739,exp11,2020.2.6,MacIntel,60,,,,,,,,,,,
,,,,,,,,,,,,,,p,1,0.643,space,0.203,0,41,41,19,1,0_dist_red/trial20.png,,,1,0,redHorizontal,p,65,27,M,2021-02-20_12h43.13.739,exp11,2020.2.6,MacIntel,60,,,,,,,,,,,
,,,,,,,,,,,,,,a,1,0.644,space,0.347,0,42,42,176,1,0_targ_16_dist_red/trial2.png,,,0,16,redHorizontal,a,65,27,M,2021-02-20_12h43.13.739,exp11,2020.2.6,MacIntel,60,,,,,,,,,,,
,,,,,,,,,,,,,,a,1,1.128,space,0.315,0,43,43,190,1,0_targ_16_dist_red/trial16.png,,,0,16,redHorizontal,a,65,27,M,2021-02-20_12h43.13.739,exp11,2020.2.6,MacIntel,60,,,,,,,,,,,
,,,,,,,,,,,,,,a,1,0.591,space,0.392,0,44,44,170,1,0_targ_10_dist_red/trial21.png,,,0,10,redHorizontal,a,65,27,M,2021-02-20_12h43.13.739,exp11,2020.2.6,MacIntel,60,,,,,,,,,,,
,,,,,,,,,,,,,,a,1,1.093,space,0.269,0,45,45,169,1,0_targ_10_dist_red/trial20.png,,,0,10,redHorizontal,a,65,27,M,2021-02-20_12h43.13.739,exp11,2020.2.6,MacIntel,60,,,,,,,,,,,
,,,,,,,,,,,,,,a,1,0.592,space,0.205,0,46,46,164,1,0_targ_10_dist_red/trial15.png,,,0,10,redHorizontal,a,65,27,M,2021-02-20_12h43.13.739,exp11,2020.2.6,MacIntel,60,,,,,,,,,,,
,,,,,,,,,,,,,,p,1,0.523,space,0.222,0,47,47,24,1,0_dist_red/trial25.png,,,1,0,redHorizontal,p,65,27,M,2021-02-20_12h43.13.739,exp11,2020.2.6,MacIntel,60,,,,,,,,,,,
,,,,,,,,,,,,,,a,0,0.658,space,1.791,0,48,48,95,1,15_dist_red/trial21.png,,,1,15,redHorizontal,p,65,27,M,2021-02-20_12h43.13.739,exp11,2020.2.6,MacIntel,60,,,,,,,,,,,
,,,,,,,,,,,,,,a,1,0.959,space,0.304,0,49,49,119,1,0_targ_1_dist_red/trial20.png,,,0,1,redHorizontal,a,65,27,M,2021-02-20_12h43.13.739,exp11,2020.2.6,MacIntel,60,,,,,,,,,,,
,,,,,,,,,,,,,,a,1,0.795,space,0.19,0,50,50,155,1,0_targ_10_dist_red/trial6.png,,,0,10,redHorizontal,a,65,27,M,2021-02-20_12h43.13.739,exp11,2020.2.6,MacIntel,60,,,,,,,,,,,
,,,,,,,,,,,,,,p,1,0.895,space,0.215,0,51,51,27,1,3_dist_red/trial3.png,,,1,3,redHorizontal,p,65,27,M,2021-02-20_12h43.13.739,exp11,2020.2.6,MacIntel,60,,,,,,,,,,,
,,,,,,,,,,,,,,p,1,0.616,space,0.205,0,52,52,40,1,3_dist_red/trial16.png,,,1,3,redHorizontal,p,65,27,M,2021-02-20_12h43.13.739,exp11,2020.2.6,MacIntel,60,,,,,,,,,,,
,,,,,,,,,,,,,,a,1,0.656,space,0.205,0,53,53,137,1,0_targ_4_dist_red/trial13.png,,,0,4,redHorizontal,a,65,27,M,2021-02-20_12h43.13.739,exp11,2020.2.6,MacIntel,60,,,,,,,,,,,
,,,,,,,,,,,,,,a,1,0.731,space,0.36,0,54,54,166,1,0_targ_10_dist_red/trial17.png,,,0,10,redHorizontal,a,65,27,M,2021-02-20_12h43.13.739,exp11,2020.2.6,MacIntel,60,,,,,,,,,,,
,,,,,,,,,,,,,,a,1,0.668,space,0.215,0,55,55,187,1,0_targ_16_dist_red/trial13.png,,,0,16,redHorizontal,a,65,27,M,2021-02-20_12h43.13.739,exp11,2020.2.6,MacIntel,60,,,,,,,,,,,
,,,,,,,,,,,,,,p,1,0.677,space,0.215,0,56,56,86,1,15_dist_red/trial12.png,,,1,15,redHorizontal,p,65,27,M,2021-02-20_12h43.13.739,exp11,2020.2.6,MacIntel,60,,,,,,,,,,,
,,,,,,,,,,,,,,p,1,0.524,space,0.208,0,57,57,42,1,3_dist_red/trial18.png,,,1,3,redHorizontal,p,65,27,M,2021-02-20_12h43.13.739,exp11,2020.2.6,MacIntel,60,,,,,,,,,,,
,,,,,,,,,,,,,,a,1,0.677,space,0.288,0,58,58,186,1,0_targ_16_dist_red/trial12.png,,,0,16,redHorizontal,a,65,27,M,2021-02-20_12h43.13.739,exp11,2020.2.6,MacIntel,60,,,,,,,,,,,
,,,,,,,,,,,,,,a,1,0.592,space,0.235,0,59,59,136,1,0_targ_4_dist_red/trial12.png,,,0,4,redHorizontal,a,65,27,M,2021-02-20_12h43.13.739,exp11,2020.2.6,MacIntel,60,,,,,,,,,,,
,,,,,,,,,,,,,,a,0,0.612,space,1.313,0,60,60,79,1,15_dist_red/trial5.png,,,1,15,redHorizontal,p,65,27,M,2021-02-20_12h43.13.739,exp11,2020.2.6,MacIntel,60,,,,,,,,,,,
,,,,,,,,,,,,,,a,1,0.795,space,0.414,0,61,61,180,1,0_targ_16_dist_red/trial6.png,,,0,16,redHorizontal,a,65,27,M,2021-02-20_12h43.13.739,exp11,2020.2.6,MacIntel,60,,,,,,,,,,,
,,,,,,,,,,,,,,a,1,0.743,space,0.189,0,62,62,144,1,0_targ_4_dist_red/trial20.png,,,0,4,redHorizontal,a,65,27,M,2021-02-20_12h43.13.739,exp11,2020.2.6,MacIntel,60,,,,,,,,,,,
,,,,,,,,,,,,,,a,1,0.661,space,0.328,0,63,63,199,1,0_targ_16_dist_red/trial25.png,,,0,16,redHorizontal,a,65,27,M,2021-02-20_12h43.13.739,exp11,2020.2.6,MacIntel,60,,,,,,,,,,,
,,,,,,,,,,,,,,p,1,0.543,space,0.24,0,64,64,46,1,3_dist_red/trial22.png,,,1,3,redHorizontal,p,65,27,M,2021-02-20_12h43.13.739,exp11,2020.2.6,MacIntel,60,,,,,,,,,,,
,,,,,,,,,,,,,,a,1,0.493,space,0.269,0,65,65,123,1,0_targ_1_dist_red/trial24.png,,,0,1,redHorizontal,a,65,27,M,2021-02-20_12h43.13.739,exp11,2020.2.6,MacIntel,60,,,,,,,,,,,
,,,,,,,,,,,,,,p,1,0.528,space,0.236,0,66,66,8,1,0_dist_red/trial9.png,,,1,0,redHorizontal,p,65,27,M,2021-02-20_12h43.13.739,exp11,2020.2.6,MacIntel,60,,,,,,,,,,,
,,,,,,,,,,,,,,p,1,0.441,space,0.274,0,67,67,15,1,0_dist_red/trial16.png,,,1,0,redHorizontal,p,65,27,M,2021-02-20_12h43.13.739,exp11,2020.2.6,MacIntel,60,,,,,,,,,,,
,,,,,,,,,,,,,,a,1,0.56,space,0.254,0,68,68,135,1,0_targ_4_dist_red/trial11.png,,,0,4,redHorizontal,a,65,27,M,2021-02-20_12h43.13.739,exp11,2020.2.6,MacIntel,60,,,,,,,,,,,
,,,,,,,,,,,,,,a,1,0.519,space,0.195,0,69,69,131,1,0_targ_4_dist_red/trial7.png,,,0,4,redHorizontal,a,65,27,M,2021-02-20_12h43.13.739,exp11,2020.2.6,MacIntel,60,,,,,,,,,,,
,,,,,,,,,,,,,,p,1,0.914,space,0.174,0,70,70,55,1,9_dist_red/trial6.png,,,1,9,redHorizontal,p,65,27,M,2021-02-20_12h43.13.739,exp11,2020.2.6,MacIntel,60,,,,,,,,,,,
,,,,,,,,,,,,,,p,1,0.586,space,0.195,0,71,71,31,1,3_dist_red/trial7.png,,,1,3,redHorizontal,p,65,27,M,2021-02-20_12h43.13.739,exp11,2020.2.6,MacIntel,60,,,,,,,,,,,
,,,,,,,,,,,,,,p,1,0.461,space,0.244,0,72,72,22,1,0_dist_red/trial23.png,,,1,0,redHorizontal,p,65,27,M,2021-02-20_12h43.13.739,exp11,2020.2.6,MacIntel,60,,,,,,,,,,,
,,,,,,,,,,,,,,a,1,0.612,space,0.223,0,73,73,156,1,0_targ_10_dist_red/trial7.png,,,0,10,redHorizontal,a,65,27,M,2021-02-20_12h43.13.739,exp11,2020.2.6,MacIntel,60,,,,,,,,,,,
,,,,,,,,,,,,,,a,1,0.566,space,0.226,0,74,74,147,1,0_targ_4_dist_red/trial23.png,,,0,4,redHorizontal,a,65,27,M,2021-02-20_12h43.13.739,exp11,2020.2.6,MacIntel,60,,,,,,,,,,,
,,,,,,,,,,,,,,a,1,0.763,space,0.277,0,75,75,181,1,0_targ_16_dist_red/trial7.png,,,0,16,redHorizontal,a,65,27,M,2021-02-20_12h43.13.739,exp11,2020.2.6,MacIntel,60,,,,,,,,,,,
,,,,,,,,,,,,,,a,1,0.63,space,0.194,0,76,76,132,1,0_targ_4_dist_red/trial8.png,,,0,4,redHorizontal,a,65,27,M,2021-02-20_12h43.13.739,exp11,2020.2.6,MacIntel,60,,,,,,,,,,,
,,,,,,,,,,,,,,a,1,0.545,space,0.37,0,77,77,195,1,0_targ_16_dist_red/trial21.png,,,0,16,redHorizontal,a,65,27,M,2021-02-20_12h43.13.739,exp11,2020.2.6,MacIntel,60,,,,,,,,,,,
,,,,,,,,,,,,,,p,1,0.601,space,0.16,0,78,78,74,1,9_dist_red/trial25.png,,,1,9,redHorizontal,p,65,27,M,2021-02-20_12h43.13.739,exp11,2020.2.6,MacIntel,60,,,,,,,,,,,
,,,,,,,,,,,,,,p,1,0.536,space,0.186,0,79,79,33,1,3_dist_red/trial9.png,,,1,3,redHorizontal,p,65,27,M,2021-02-20_12h43.13.739,exp11,2020.2.6,MacIntel,60,,,,,,,,,,,
,,,,,,,,,,,,,,p,1,0.475,space,0.206,0,80,80,93,1,15_dist_red/trial19.png,,,1,15,redHorizontal,p,65,27,M,2021-02-20_12h43.13.739,exp11,2020.2.6,MacIntel,60,,,,,,,,,,,
,,,,,,,,,,,,,,p,1,0.433,space,0.31,0,81,81,13,1,0_dist_red/trial14.png,,,1,0,redHorizontal,p,65,27,M,2021-02-20_12h43.13.739,exp11,2020.2.6,MacIntel,60,,,,,,,,,,,
,,,,,,,,,,,,,,p,1,0.424,space,0.272,0,82,82,17,1,0_dist_red/trial18.png,,,1,0,redHorizontal,p,65,27,M,2021-02-20_12h43.13.739,exp11,2020.2.6,MacIntel,60,,,,,,,,,,,
,,,,,,,,,,,,,,p,1,0.725,space,0.154,0,83,83,89,1,15_dist_red/trial15.png,,,1,15,redHorizontal,p,65,27,M,2021-02-20_12h43.13.739,exp11,2020.2.6,MacIntel,60,,,,,,,,,,,
,,,,,,,,,,,,,,a,1,0.583,space,0.243,0,84,84,149,1,0_targ_4_dist_red/trial25.png,,,0,4,redHorizontal,a,65,27,M,2021-02-20_12h43.13.739,exp11,2020.2.6,MacIntel,60,,,,,,,,,,,
,,,,,,,,,,,,,,a,0,0.662,space,1.265,0,85,85,87,1,15_dist_red/trial13.png,,,1,15,redHorizontal,p,65,27,M,2021-02-20_12h43.13.739,exp11,2020.2.6,MacIntel,60,,,,,,,,,,,
,,,,,,,,,,,,,,a,1,0.593,space,0.285,0,86,86,127,1,0_targ_4_dist_red/trial3.png,,,0,4,redHorizontal,a,65,27,M,2021-02-20_12h43.13.739,exp11,2020.2.6,MacIntel,60,,,,,,,,,,,
,,,,,,,,,,,,,,a,1,1.163,space,0.289,0,87,87,194,1,0_targ_16_dist_red/trial20.png,,,0,16,redHorizontal,a,65,27,M,2021-02-20_12h43.13.739,exp11,2020.2.6,MacIntel,60,,,,,,,,,,,
,,,,,,,,,,,,,,a,1,0.476,space,0.297,0,88,88,101,1,0_targ_1_dist_red/trial2.png,,,0,1,redHorizontal,a,65,27,M,2021-02-20_12h43.13.739,exp11,2020.2.6,MacIntel,60,,,,,,,,,,,
,,,,,,,,,,,,,,p,1,0.491,space,0.212,0,89,89,37,1,3_dist_red/trial13.png,,,1,3,redHorizontal,p,65,27,M,2021-02-20_12h43.13.739,exp11,2020.2.6,MacIntel,60,,,,,,,,,,,
,,,,,,,,,,,,,,p,1,0.397,space,0.175,0,90,90,47,1,3_dist_red/trial23.png,,,1,3,redHorizontal,p,65,27,M,2021-02-20_12h43.13.739,exp11,2020.2.6,MacIntel,60,,,,,,,,,,,
,,,,,,,,,,,,,,p,1,0.412,space,0.206,0,91,91,9,1,0_dist_red/trial10.png,,,1,0,redHorizontal,p,65,27,M,2021-02-20_12h43.13.739,exp11,2020.2.6,MacIntel,60,,,,,,,,,,,
,,,,,,,,,,,,,,p,1,0.664,space,0.148,0,92,92,67,1,9_dist_red/trial18.png,,,1,9,redHorizontal,p,65,27,M,2021-02-20_12h43.13.739,exp11,2020.2.6,MacIntel,60,,,,,,,,,,,
,,,,,,,,,,,,,,a,1,0.609,space,0.239,0,93,93,174,1,0_targ_10_dist_red/trial25.png,,,0,10,redHorizontal,a,65,27,M,2021-02-20_12h43.13.739,exp11,2020.2.6,MacIntel,60,,,,,,,,,,,
,,,,,,,,,,,,,,a,1,0.547,space,0.289,0,94,94,126,1,0_targ_4_dist_red/trial2.png,,,0,4,redHorizontal,a,65,27,M,2021-02-20_12h43.13.739,exp11,2020.2.6,MacIntel,60,,,,,,,,,,,
,,,,,,,,,,,,,,p,1,0.856,space,0.208,0,95,95,78,1,15_dist_red/trial4.png,,,1,15,redHorizontal,p,65,27,M,2021-02-20_12h43.13.739,exp11,2020.2.6,MacIntel,60,,,,,,,,,,,
,,,,,,,,,,,,,,a,1,0.674,space,0.31,0,96,96,193,1,0_targ_16_dist_red/trial19.png,,,0,16,redHorizontal,a,65,27,M,2021-02-20_12h43.13.739,exp11,2020.2.6,MacIntel,60,,,,,,,,,,,
,,,,,,,,,,,,,,a,1,0.494,space,0.239,0,97,97,150,1,0_targ_10_dist_red/trial1.png,,,0,10,redHorizontal,a,65,27,M,2021-02-20_12h43.13.739,exp11,2020.2.6,MacIntel,60,,,,,,,,,,,
,,,,,,,,,,,,,,p,1,0.627,space,0.222,0,98,98,92,1,15_dist_red/trial18.png,,,1,15,redHorizontal,p,65,27,M,2021-02-20_12h43.13.739,exp11,2020.2.6,MacIntel,60,,,,,,,,,,,
,,,,,,,,,,,,,,a,1,0.577,space,0.286,0,99,99,105,1,0_targ_1_dist_red/trial6.png,,,0,1,redHorizontal,a,65,27,M,2021-02-20_12h43.13.739,exp11,2020.2.6,MacIntel,60,,,,,,,,,,,
,,,,,,,,,,,,,,a,1,0.535,space,0.23,0,100,100,175,1,0_targ_16_dist_red/trial1.png,,,0,16,redHorizontal,a,65,27,M,2021-02-20_12h43.13.739,exp11,2020.2.6,MacIntel,60,,,,,,,,,,,
,,,,,,,,,,,,,,a,1,0.477,space,0.19,0,101,101,108,1,0_targ_1_dist_red/trial9.png,,,0,1,redHorizontal,a,65,27,M,2021-02-20_12h43.13.739,exp11,2020.2.6,MacIntel,60,,,,,,,,,,,
,,,,,,,,,,,,,,a,1,0.399,space,0.155,0,102,102,109,1,0_targ_1_dist_red/trial10.png,,,0,1,redHorizontal,a,65,27,M,2021-02-20_12h43.13.739,exp11,2020.2.6,MacIntel,60,,,,,,,,,,,
,,,,,,,,,,,,,,p,1,0.534,space,0.234,0,103,103,0,1,0_dist_red/trial1.png,,,1,0,redHorizontal,p,65,27,M,2021-02-20_12h43.13.739,exp11,2020.2.6,MacIntel,60,,,,,,,,,,,
,,,,,,,,,,,,,,a,1,0.557,space,0.171,0,104,104,168,1,0_targ_10_dist_red/trial19.png,,,0,10,redHorizontal,a,65,27,M,2021-02-20_12h43.13.739,exp11,2020.2.6,MacIntel,60,,,,,,,,,,,
,,,,,,,,,,,,,,p,1,0.592,space,0.489,0,105,105,32,1,3_dist_red/trial8.png,,,1,3,redHorizontal,p,65,27,M,2021-02-20_12h43.13.739,exp11,2020.2.6,MacIntel,60,,,,,,,,,,,
,,,,,,,,,,,,,,a,0,0.953,space,0.527,0,106,106,3,1,0_dist_red/trial4.png,,,1,0,redHorizontal,p,65,27,M,2021-02-20_12h43.13.739,exp11,2020.2.6,MacIntel,60,,,,,,,,,,,
,,,,,,,,,,,,,,a,1,0.694,space,0.4,0,107,107,178,1,0_targ_16_dist_red/trial4.png,,,0,16,redHorizontal,a,65,27,M,2021-02-20_12h43.13.739,exp11,2020.2.6,MacIntel,60,,,,,,,,,,,
,,,,,,,,,,,,,,a,1,0.543,space,0.255,0,108,108,160,1,0_targ_10_dist_red/trial11.png,,,0,10,redHorizontal,a,65,27,M,2021-02-20_12h43.13.739,exp11,2020.2.6,MacIntel,60,,,,,,,,,,,
,,,,,,,,,,,,,,a,1,0.493,space,0.421,0,109,109,183,1,0_targ_16_dist_red/trial9.png,,,0,16,redHorizontal,a,65,27,M,2021-02-20_12h43.13.739,exp11,2020.2.6,MacIntel,60,,,,,,,,,,,
,,,,,,,,,,,,,,p,1,0.696,space,0.236,0,110,110,35,1,3_dist_red/trial11.png,,,1,3,redHorizontal,p,65,27,M,2021-02-20_12h43.13.739,exp11,2020.2.6,MacIntel,60,,,,,,,,,,,
,,,,,,,,,,,,,,p,1,0.604,space,0.208,0,111,111,60,1,9_dist_red/trial11.png,,,1,9,redHorizontal,p,65,27,M,2021-02-20_12h43.13.739,exp11,2020.2.6,MacIntel,60,,,,,,,,,,,
,,,,,,,,,,,,,,p,1,0.529,space,0.206,0,112,112,26,1,3_dist_red/trial2.png,,,1,3,redHorizontal,p,65,27,M,2021-02-20_12h43.13.739,exp11,2020.2.6,MacIntel,60,,,,,,,,,,,
,,,,,,,,,,,,,,p,1,0.439,space,0.33,0,113,113,1,1,0_dist_red/trial2.png,,,1,0,redHorizontal,p,65,27,M,2021-02-20_12h43.13.739,exp11,2020.2.6,MacIntel,60,,,,,,,,,,,
,,,,,,,,,,,,,,p,1,0.547,space,0.206,0,114,114,97,1,15_dist_red/trial23.png,,,1,15,redHorizontal,p,65,27,M,2021-02-20_12h43.13.739,exp11,2020.2.6,MacIntel,60,,,,,,,,,,,
,,,,,,,,,,,,,,a,1,0.808,space,0.339,0,115,115,165,1,0_targ_10_dist_red/trial16.png,,,0,10,redHorizontal,a,65,27,M,2021-02-20_12h43.13.739,exp11,2020.2.6,MacIntel,60,,,,,,,,,,,
,,,,,,,,,,,,,,a,1,0.515,space,0.251,0,116,116,106,1,0_targ_1_dist_red/trial7.png,,,0,1,redHorizontal,a,65,27,M,2021-02-20_12h43.13.739,exp11,2020.2.6,MacIntel,60,,,,,,,,,,,
,,,,,,,,,,,,,,p,1,0.551,space,0.222,0,117,117,99,1,15_dist_red/trial25.png,,,1,15,redHorizontal,p,65,27,M,2021-02-20_12h43.13.739,exp11,2020.2.6,MacIntel,60,,,,,,,,,,,
,,,,,,,,,,,,,,p,1,0.695,space,0.216,0,118,118,81,1,15_dist_red/trial7.png,,,1,15,redHorizontal,p,65,27,M,2021-02-20_12h43.13.739,exp11,2020.2.6,MacIntel,60,,,,,,,,,,,
,,,,,,,,,,,,,,a,1,0.623,space,0.292,0,119,119,125,1,0_targ_4_dist_red/trial1.png,,,0,4,redHorizontal,a,65,27,M,2021-02-20_12h43.13.739,exp11,2020.2.6,MacIntel,60,,,,,,,,,,,
,,,,,,,,,,,,,,p,1,0.596,space,0.222,0,120,120,12,1,0_dist_red/trial13.png,,,1,0,redHorizontal,p,65,27,M,2021-02-20_12h43.13.739,exp11,2020.2.6,MacIntel,60,,,,,,,,,,,
,,,,,,,,,,,,,,a,1,0.528,space,0.289,0,121,121,146,1,0_targ_4_dist_red/trial22.png,,,0,4,redHorizontal,a,65,27,M,2021-02-20_12h43.13.739,exp11,2020.2.6,MacIntel,60,,,,,,,,,,,
,,,,,,,,,,,,,,a,1,0.661,space,0.22,0,122,122,162,1,0_targ_10_dist_red/trial13.png,,,0,10,redHorizontal,a,65,27,M,2021-02-20_12h43.13.739,exp11,2020.2.6,MacIntel,60,,,,,,,,,,,
,,,,,,,,,,,,,,a,1,0.608,space,0.171,0,123,123,196,1,0_targ_16_dist_red/trial22.png,,,0,16,redHorizontal,a,65,27,M,2021-02-20_12h43.13.739,exp11,2020.2.6,MacIntel,60,,,,,,,,,,,
,,,,,,,,,,,,,,p,1,0.794,space,0.213,0,124,124,69,1,9_dist_red/trial20.png,,,1,9,redHorizontal,p,65,27,M,2021-02-20_12h43.13.739,exp11,2020.2.6,MacIntel,60,,,,,,,,,,,
,,,,,,,,,,,,,,p,1,0.499,space,0.19,0,125,125,49,1,3_dist_red/trial25.png,,,1,3,redHorizontal,p,65,27,M,2021-02-20_12h43.13.739,exp11,2020.2.6,MacIntel,60,,,,,,,,,,,
,,,,,,,,,,,,,,p,1,0.434,space,0.221,0,126,126,20,1,0_dist_red/trial21.png,,,1,0,redHorizontal,p,65,27,M,2021-02-20_12h43.13.739,exp11,2020.2.6,MacIntel,60,,,,,,,,,,,
,,,,,,,,,,,,,,a,1,0.528,space,0.398,0,127,127,153,1,0_targ_10_dist_red/trial4.png,,,0,10,redHorizontal,a,65,27,M,2021-02-20_12h43.13.739,exp11,2020.2.6,MacIntel,60,,,,,,,,,,,
,,,,,,,,,,,,,,a,1,0.662,space,0.244,0,128,128,115,1,0_targ_1_dist_red/trial6.png,,,0,1,redHorizontal,a,65,27,M,2021-02-20_12h43.13.739,exp11,2020.2.6,MacIntel,60,,,,,,,,,,,
,,,,,,,,,,,,,,p,1,0.594,space,0.187,0,129,129,98,1,15_dist_red/trial24.png,,,1,15,redHorizontal,p,65,27,M,2021-02-20_12h43.13.739,exp11,2020.2.6,MacIntel,60,,,,,,,,,,,
,,,,,,,,,,,,,,a,1,0.696,space,0.252,0,130,130,182,1,0_targ_16_dist_red/trial8.png,,,0,16,redHorizontal,a,65,27,M,2021-02-20_12h43.13.739,exp11,2020.2.6,MacIntel,60,,,,,,,,,,,
,,,,,,,,,,,,,,a,1,0.725,space,0.161,0,131,131,138,1,0_targ_4_dist_red/trial14.png,,,0,4,redHorizontal,a,65,27,M,2021-02-20_12h43.13.739,exp11,2020.2.6,MacIntel,60,,,,,,,,,,,
,,,,,,,,,,,,,,a,1,0.696,space,0.114,0,132,132,171,1,0_targ_10_dist_red/trial22.png,,,0,10,redHorizontal,a,65,27,M,2021-02-20_12h43.13.739,exp11,2020.2.6,MacIntel,60,,,,,,,,,,,
,,,,,,,,,,,,,,a,1,0.658,space,0.113,0,133,133,152,1,0_targ_10_dist_red/trial3.png,,,0,10,redHorizontal,a,65,27,M,2021-02-20_12h43.13.739,exp11,2020.2.6,MacIntel,60,,,,,,,,,,,
,,,,,,,,,,,,,,p,1,0.7,space,0.207,0,134,134,85,1,15_dist_red/trial11.png,,,1,15,redHorizontal,p,65,27,M,2021-02-20_12h43.13.739,exp11,2020.2.6,MacIntel,60,,,,,,,,,,,
,,,,,,,,,,,,,,a,1,0.829,space,0.157,0,135,135,130,1,0_targ_4_dist_red/trial6.png,,,0,4,redHorizontal,a,65,27,M,2021-02-20_12h43.13.739,exp11,2020.2.6,MacIntel,60,,,,,,,,,,,
,,,,,,,,,,,,,,a,1,0.696,space,0.123,0,136,136,197,1,0_targ_16_dist_red/trial23.png,,,0,16,redHorizontal,a,65,27,M,2021-02-20_12h43.13.739,exp11,2020.2.6,MacIntel,60,,,,,,,,,,,
,,,,,,,,,,,,,,p,1,0.693,space,0.136,0,137,137,77,1,15_dist_red/trial3.png,,,1,15,redHorizontal,p,65,27,M,2021-02-20_12h43.13.739,exp11,2020.2.6,MacIntel,60,,,,,,,,,,,
,,,,,,,,,,,,,,a,1,0.658,space,0.186,0,138,138,157,1,0_targ_10_dist_red/trial8.png,,,0,10,redHorizontal,a,65,27,M,2021-02-20_12h43.13.739,exp11,2020.2.6,MacIntel,60,,,,,,,,,,,
,,,,,,,,,,,,,,p,1,0.58,space,0.142,0,139,139,10,1,0_dist_red/trial11.png,,,1,0,redHorizontal,p,65,27,M,2021-02-20_12h43.13.739,exp11,2020.2.6,MacIntel,60,,,,,,,,,,,
,,,,,,,,,,,,,,a,0,0.642,space,0.222,0,140,140,59,1,9_dist_red/trial10.png,,,1,9,redHorizontal,p,65,27,M,2021-02-20_12h43.13.739,exp11,2020.2.6,MacIntel,60,,,,,,,,,,,
,,,,,,,,,,,,,,p,1,0.486,space,0.218,0,141,141,14,1,0_dist_red/trial15.png,,,1,0,redHorizontal,p,65,27,M,2021-02-20_12h43.13.739,exp11,2020.2.6,MacIntel,60,,,,,,,,,,,
,,,,,,,,,,,,,,p,1,0.533,space,0.122,0,142,142,28,1,3_dist_red/trial4.png,,,1,3,redHorizontal,p,65,27,M,2021-02-20_12h43.13.739,exp11,2020.2.6,MacIntel,60,,,,,,,,,,,
,,,,,,,,,,,,,,p,1,0.479,space,0.197,0,143,143,41,1,3_dist_red/trial17.png,,,1,3,redHorizontal,p,65,27,M,2021-02-20_12h43.13.739,exp11,2020.2.6,MacIntel,60,,,,,,,,,,,
,,,,,,,,,,,,,,a,1,0.626,space,0.287,0,144,144,198,1,0_targ_16_dist_red/trial24.png,,,0,16,redHorizontal,a,65,27,M,2021-02-20_12h43.13.739,exp11,2020.2.6,MacIntel,60,,,,,,,,,,,
,,,,,,,,,,,,,,p,1,0.527,space,0.189,0,145,145,65,1,9_dist_red/trial16.png,,,1,9,redHorizontal,p,65,27,M,2021-02-20_12h43.13.739,exp11,2020.2.6,MacIntel,60,,,,,,,,,,,
,,,,,,,,,,,,,,a,1,0.584,space,0.213,0,146,146,112,1,0_targ_1_dist_red/trial13.png,,,0,1,redHorizontal,a,65,27,M,2021-02-20_12h43.13.739,exp11,2020.2.6,MacIntel,60,,,,,,,,,,,
,,,,,,,,,,,,,,p,1,0.797,space,0.173,0,147,147,80,1,15_dist_red/trial6.png,,,1,15,redHorizontal,p,65,27,M,2021-02-20_12h43.13.739,exp11,2020.2.6,MacIntel,60,,,,,,,,,,,
,,,,,,,,,,,,,,p,1,0.601,space,0.196,0,148,148,72,1,9_dist_red/trial23.png,,,1,9,redHorizontal,p,65,27,M,2021-02-20_12h43.13.739,exp11,2020.2.6,MacIntel,60,,,,,,,,,,,
,,,,,,,,,,,,,,p,1,0.516,space,0.202,0,149,149,45,1,3_dist_red/trial21.png,,,1,3,redHorizontal,p,65,27,M,2021-02-20_12h43.13.739,exp11,2020.2.6,MacIntel,60,,,,,,,,,,,
,,,,,,,,,,,,,,p,1,0.417,space,0.22,0,150,150,16,1,0_dist_red/trial17.png,,,1,0,redHorizontal,p,65,27,M,2021-02-20_12h43.13.739,exp11,2020.2.6,MacIntel,60,,,,,,,,,,,
,,,,,,,,,,,,,,a,1,0.601,space,0.208,0,151,151,134,1,0_targ_4_dist_red/trial10.png,,,0,4,redHorizontal,a,65,27,M,2021-02-20_12h43.13.739,exp11,2020.2.6,MacIntel,60,,,,,,,,,,,
,,,,,,,,,,,,,,p,1,0.576,space,0.122,0,152,152,66,1,9_dist_red/trial17.png,,,1,9,redHorizontal,p,65,27,M,2021-02-20_12h43.13.739,exp11,2020.2.6,MacIntel,60,,,,,,,,,,,
,,,,,,,,,,,,,,a,1,0.596,space,0.222,0,153,153,103,1,0_targ_1_dist_red/trial4.png,,,0,1,redHorizontal,a,65,27,M,2021-02-20_12h43.13.739,exp11,2020.2.6,MacIntel,60,,,,,,,,,,,
,,,,,,,,,,,,,,p,1,0.674,space,0.156,0,154,154,68,1,9_dist_red/trial19.png,,,1,9,redHorizontal,p,65,27,M,2021-02-20_12h43.13.739,exp11,2020.2.6,MacIntel,60,,,,,,,,,,,
,,,,,,,,,,,,,,p,1,0.708,space,0.138,0,155,155,76,1,15_dist_red/trial2.png,,,1,15,redHorizontal,p,65,27,M,2021-02-20_12h43.13.739,exp11,2020.2.6,MacIntel,60,,,,,,,,,,,
,,,,,,,,,,,,,,p,1,0.578,space,0.178,0,156,156,94,1,15_dist_red/trial20.png,,,1,15,redHorizontal,p,65,27,M,2021-02-20_12h43.13.739,exp11,2020.2.6,MacIntel,60,,,,,,,,,,,
,,,,,,,,,,,,,,p,1,0.608,space,0.154,0,157,157,5,1,0_dist_red/trial6.png,,,1,0,redHorizontal,p,65,27,M,2021-02-20_12h43.13.739,exp11,2020.2.6,MacIntel,60,,,,,,,,,,,
,,,,,,,,,,,,,,p,1,0.715,space,0.154,0,158,158,63,1,9_dist_red/trial14.png,,,1,9,redHorizontal,p,65,27,M,2021-02-20_12h43.13.739,exp11,2020.2.6,MacIntel,60,,,,,,,,,,,
,,,,,,,,,,,,,,p,1,0.506,space,0.17,0,159,159,29,1,3_dist_red/trial5.png,,,1,3,redHorizontal,p,65,27,M,2021-02-20_12h43.13.739,exp11,2020.2.6,MacIntel,60,,,,,,,,,,,
,,,,,,,,,,,,,,a,1,0.958,space,0.323,0,160,160,158,1,0_targ_10_dist_red/trial9.png,,,0,10,redHorizontal,a,65,27,M,2021-02-20_12h43.13.739,exp11,2020.2.6,MacIntel,60,,,,,,,,,,,
,,,,,,,,,,,,,,a,0,0.711,space,0.605,0,161,161,64,1,9_dist_red/trial15.png,,,1,9,redHorizontal,p,65,27,M,2021-02-20_12h43.13.739,exp11,2020.2.6,MacIntel,60,,,,,,,,,,,
,,,,,,,,,,,,,,a,1,1.118,space,0.286,0,162,162,159,1,0_targ_10_dist_red/trial10.png,,,0,10,redHorizontal,a,65,27,M,2021-02-20_12h43.13.739,exp11,2020.2.6,MacIntel,60,,,,,,,,,,,
,,,,,,,,,,,,,,p,1,0.541,space,0.195,0,163,163,21,1,0_dist_red/trial22.png,,,1,0,redHorizontal,p,65,27,M,2021-02-20_12h43.13.739,exp11,2020.2.6,MacIntel,60,,,,,,,,,,,
,,,,,,,,,,,,,,p,0,0.45,space,1.206,0,164,164,110,1,0_targ_1_dist_red/trial11.png,,,0,1,redHorizontal,a,65,27,M,2021-02-20_12h43.13.739,exp11,2020.2.6,MacIntel,60,,,,,,,,,,,
,,,,,,,,,,,,,,p,1,0.792,space,0.131,0,165,165,90,1,15_dist_red/trial16.png,,,1,15,redHorizontal,p,65,27,M,2021-02-20_12h43.13.739,exp11,2020.2.6,MacIntel,60,,,,,,,,,,,
,,,,,,,,,,,,,,p,1,0.52,space,0.12,0,166,166,4,1,0_dist_red/trial5.png,,,1,0,redHorizontal,p,65,27,M,2021-02-20_12h43.13.739,exp11,2020.2.6,MacIntel,60,,,,,,,,,,,
,,,,,,,,,,,,,,a,1,0.583,space,0.225,0,167,167,143,1,0_targ_4_dist_red/trial19.png,,,0,4,redHorizontal,a,65,27,M,2021-02-20_12h43.13.739,exp11,2020.2.6,MacIntel,60,,,,,,,,,,,
,,,,,,,,,,,,,,p,1,0.699,space,0.138,0,168,168,38,1,3_dist_red/trial14.png,,,1,3,redHorizontal,p,65,27,M,2021-02-20_12h43.13.739,exp11,2020.2.6,MacIntel,60,,,,,,,,,,,
,,,,,,,,,,,,,,a,1,1.274,space,0.235,0,169,169,117,1,0_targ_1_dist_red/trial18.png,,,0,1,redHorizontal,a,65,27,M,2021-02-20_12h43.13.739,exp11,2020.2.6,MacIntel,60,,,,,,,,,,,
,,,,,,,,,,,,,,p,1,0.526,space,0.176,0,170,170,39,1,3_dist_red/trial15.png,,,1,3,redHorizontal,p,65,27,M,2021-02-20_12h43.13.739,exp11,2020.2.6,MacIntel,60,,,,,,,,,,,
,,,,,,,,,,,,,,p,1,0.634,space,0.186,0,171,171,57,1,9_dist_red/trial8.png,,,1,9,redHorizontal,p,65,27,M,2021-02-20_12h43.13.739,exp11,2020.2.6,MacIntel,60,,,,,,,,,,,
,,,,,,,,,,,,,,a,1,0.632,space,0.188,0,172,172,129,1,0_targ_4_dist_red/trial5.png,,,0,4,redHorizontal,a,65,27,M,2021-02-20_12h43.13.739,exp11,2020.2.6,MacIntel,60,,,,,,,,,,,
,,,,,,,,,,,,,,p,1,0.606,space,0.152,0,173,173,53,1,9_dist_red/trial4.png,,,1,9,redHorizontal,p,65,27,M,2021-02-20_12h43.13.739,exp11,2020.2.6,MacIntel,60,,,,,,,,,,,
,,,,,,,,,,,,,,a,1,0.546,space,0.189,0,174,174,102,1,0_targ_1_dist_red/trial3.png,,,0,1,redHorizontal,a,65,27,M,2021-02-20_12h43.13.739,exp11,2020.2.6,MacIntel,60,,,,,,,,,,,
,,,,,,,,,,,,,,p,1,0.658,space,0.156,0,175,175,51,1,9_dist_red/trial2.png,,,1,9,redHorizontal,p,65,27,M,2021-02-20_12h43.13.739,exp11,2020.2.6,MacIntel,60,,,,,,,,,,,
,,,,,,,,,,,,,,p,1,0.578,space,0.152,0,176,176,56,1,9_dist_red/trial7.png,,,1,9,redHorizontal,p,65,27,M,2021-02-20_12h43.13.739,exp11,2020.2.6,MacIntel,60,,,,,,,,,,,
,,,,,,,,,,,,,,a,1,0.627,space,0.22,0,177,177,111,1,0_targ_1_dist_red/trial12.png,,,0,1,redHorizontal,a,65,27,M,2021-02-20_12h43.13.739,exp11,2020.2.6,MacIntel,60,,,,,,,,,,,
,,,,,,,,,,,,,,p,1,0.675,space,0.155,0,178,178,2,1,0_dist_red/trial3.png,,,1,0,redHorizontal,p,65,27,M,2021-02-20_12h43.13.739,exp11,2020.2.6,MacIntel,60,,,,,,,,,,,
,,,,,,,,,,,,,,a,1,0.559,space,0.222,0,179,179,107,1,0_targ_1_dist_red/trial8.png,,,0,1,redHorizontal,a,65,27,M,2021-02-20_12h43.13.739,exp11,2020.2.6,MacIntel,60,,,,,,,,,,,
,,,,,,,,,,,,,,a,1,1.192,space,0.138,0,180,180,188,1,0_targ_16_dist_red/trial14.png,,,0,16,redHorizontal,a,65,27,M,2021-02-20_12h43.13.739,exp11,2020.2.6,MacIntel,60,,,,,,,,,,,
,,,,,,,,,,,,,,a,1,0.808,space,0.107,0,181,181,116,1,0_targ_1_dist_red/trial17.png,,,0,1,redHorizontal,a,65,27,M,2021-02-20_12h43.13.739,exp11,2020.2.6,MacIntel,60,,,,,,,,,,,
,,,,,,,,,,,,,,p,1,0.696,space,0.147,0,182,182,71,1,9_dist_red/trial22.png,,,1,9,redHorizontal,p,65,27,M,2021-02-20_12h43.13.739,exp11,2020.2.6,MacIntel,60,,,,,,,,,,,
,,,,,,,,,,,,,,p,1,0.577,space,0.122,0,183,183,7,1,0_dist_red/trial8.png,,,1,0,redHorizontal,p,65,27,M,2021-02-20_12h43.13.739,exp11,2020.2.6,MacIntel,60,,,,,,,,,,,
,,,,,,,,,,,,,,a,1,0.661,space,0.19,0,184,184,142,1,0_targ_4_dist_red/trial18.png,,,0,4,redHorizontal,a,65,27,M,2021-02-20_12h43.13.739,exp11,2020.2.6,MacIntel,60,,,,,,,,,,,
,,,,,,,,,,,,,,a,1,0.661,space,0.106,0,185,185,192,1,0_targ_16_dist_red/trial18.png,,,0,16,redHorizontal,a,65,27,M,2021-02-20_12h43.13.739,exp11,2020.2.6,MacIntel,60,,,,,,,,,,,
,,,,,,,,,,,,,,p,1,0.612,space,0.156,0,186,186,54,1,9_dist_red/trial5.png,,,1,9,redHorizontal,p,65,27,M,2021-02-20_12h43.13.739,exp11,2020.2.6,MacIntel,60,,,,,,,,,,,
,,,,,,,,,,,,,,p,1,0.525,space,0.169,0,187,187,44,1,3_dist_red/trial20.png,,,1,3,redHorizontal,p,65,27,M,2021-02-20_12h43.13.739,exp11,2020.2.6,MacIntel,60,,,,,,,,,,,
,,,,,,,,,,,,,,a,1,0.681,space,0.256,0,188,188,189,1,0_targ_16_dist_red/trial15.png,,,0,16,redHorizontal,a,65,27,M,2021-02-20_12h43.13.739,exp11,2020.2.6,MacIntel,60,,,,,,,,,,,
,,,,,,,,,,,,,,a,1,0.647,space,0.19,0,189,189,139,1,0_targ_4_dist_red/trial15.png,,,0,4,redHorizontal,a,65,27,M,2021-02-20_12h43.13.739,exp11,2020.2.6,MacIntel,60,,,,,,,,,,,
,,,,,,,,,,,,,,a,1,0.567,space,0.189,0,190,190,191,1,0_targ_16_dist_red/trial17.png,,,0,16,redHorizontal,a,65,27,M,2021-02-20_12h43.13.739,exp11,2020.2.6,MacIntel,60,,,,,,,,,,,
,,,,,,,,,,,,,,p,1,0.575,space,0.128,0,191,191,50,1,9_dist_red/trial1.png,,,1,9,redHorizontal,p,65,27,M,2021-02-20_12h43.13.739,exp11,2020.2.6,MacIntel,60,,,,,,,,,,,
,,,,,,,,,,,,,,a,0,0.582,space,1.092,0,192,192,34,1,3_dist_red/trial10.png,,,1,3,redHorizontal,p,65,27,M,2021-02-20_12h43.13.739,exp11,2020.2.6,MacIntel,60,,,,,,,,,,,
,,,,,,,,,,,,,,p,1,0.546,space,0.156,0,193,193,36,1,3_dist_red/trial12.png,,,1,3,redHorizontal,p,65,27,M,2021-02-20_12h43.13.739,exp11,2020.2.6,MacIntel,60,,,,,,,,,,,
,,,,,,,,,,,,,,a,1,0.612,space,0.269,0,194,194,167,1,0_targ_10_dist_red/trial18.png,,,0,10,redHorizontal,a,65,27,M,2021-02-20_12h43.13.739,exp11,2020.2.6,MacIntel,60,,,,,,,,,,,
,,,,,,,,,,,,,,p,1,0.626,space,0.141,0,195,195,73,1,9_dist_red/trial24.png,,,1,9,redHorizontal,p,65,27,M,2021-02-20_12h43.13.739,exp11,2020.2.6,MacIntel,60,,,,,,,,,,,
,,,,,,,,,,,,,,a,1,0.56,space,0.205,0,196,196,104,1,0_targ_1_dist_red/trial5.png,,,0,1,redHorizontal,a,65,27,M,2021-02-20_12h43.13.739,exp11,2020.2.6,MacIntel,60,,,,,,,,,,,
,,,,,,,,,,,,,,p,1,0.551,space,0.152,0,197,197,23,1,0_dist_red/trial24.png,,,1,0,redHorizontal,p,65,27,M,2021-02-20_12h43.13.739,exp11,2020.2.6,MacIntel,60,,,,,,,,,,,
,,,,,,,,,,,,,,p,1,0.426,space,0.222,0,198,198,6,1,0_dist_red/trial7.png,,,1,0,redHorizontal,p,65,27,M,2021-02-20_12h43.13.739,exp11,2020.2.6,MacIntel,60,,,,,,,,,,,
,,,,,,,,,,,,,,p,1,0.674,space,0.122,0,199,199,70,1,9_dist_red/trial21.png,,,1,9,redHorizontal,p,65,27,M,2021-02-20_12h43.13.739,exp11,2020.2.6,MacIntel,60,,,,,,,,,,,
,,,,,,,,,,,,,,,,,,,,,,,,,,,,,,,65,27,M,2021-02-20_12h43.13.739,exp11,2020.2.6,MacIntel,60,0,0,0,1,1,conRed.xlsx,red horizontal,Look for red horizontal bar (target) and indicate if it is present or absent in the array. If red horizontal target is present press 'p' and if absent press 'a'. Press SPACE to start.,,,
,,,,,,,,,,space,10.218,space,3.252,p,1,0.589,space,0.285,0,0,0,17,1,0_dist_green/trial18.png,,,1,0,greenverival,p,65,27,M,2021-02-20_12h43.13.739,exp11,2020.2.6,MacIntel,60,,,,,,,,,,,
,,,,,,,,,,,,,,p,1,1.044,space,0.24,0,1,1,61,1,9_dist_green/trial12.png,,,1,9,greenverival,p,65,27,M,2021-02-20_12h43.13.739,exp11,2020.2.6,MacIntel,60,,,,,,,,,,,
,,,,,,,,,,,,,,p,1,0.541,space,0.145,0,2,2,38,1,3_dist_green/trial14.png,,,1,3,greenverival,p,65,27,M,2021-02-20_12h43.13.739,exp11,2020.2.6,MacIntel,60,,,,,,,,,,,
,,,,,,,,,,,,,,p,1,0.445,space,0.29,0,3,3,16,1,0_dist_green/trial17.png,,,1,0,greenverival,p,65,27,M,2021-02-20_12h43.13.739,exp11,2020.2.6,MacIntel,60,,,,,,,,,,,
,,,,,,,,,,,,,,p,1,0.608,space,0.143,0,4,4,72,1,9_dist_green/trial23.png,,,1,9,greenverival,p,65,27,M,2021-02-20_12h43.13.739,exp11,2020.2.6,MacIntel,60,,,,,,,,,,,
,,,,,,,,,,,,,,p,1,0.387,space,0.418,0,5,5,22,1,0_dist_green/trial23.png,,,1,0,greenverival,p,65,27,M,2021-02-20_12h43.13.739,exp11,2020.2.6,MacIntel,60,,,,,,,,,,,
,,,,,,,,,,,,,,a,1,1.377,space,0.372,0,6,6,193,1,0_targ_16_dist_green/trial19.png,,,0,16,greenverival,a,65,27,M,2021-02-20_12h43.13.739,exp11,2020.2.6,MacIntel,60,,,,,,,,,,,
,,,,,,,,,,,,,,a,1,0.76,space,0.244,0,7,7,177,1,0_targ_16_dist_green/trial3.png,,,0,16,greenverival,a,65,27,M,2021-02-20_12h43.13.739,exp11,2020.2.6,MacIntel,60,,,,,,,,,,,
,,,,,,,,,,,,,,p,0,0.702,space,0.64,0,8,8,135,1,0_targ_4_dist_green/trial11.png,,,0,4,greenverival,a,65,27,M,2021-02-20_12h43.13.739,exp11,2020.2.6,MacIntel,60,,,,,,,,,,,
,,,,,,,,,,,,,,a,1,0.651,space,0.222,0,9,9,113,1,0_targ_1_dist_green/trial14.png,,,0,1,greenverival,a,65,27,M,2021-02-20_12h43.13.739,exp11,2020.2.6,MacIntel,60,,,,,,,,,,,
,,,,,,,,,,,,,,p,1,0.771,space,0.22,0,10,10,78,1,15_dist_green/trial4.png,,,1,15,greenverival,p,65,27,M,2021-02-20_12h43.13.739,exp11,2020.2.6,MacIntel,60,,,,,,,,,,,
,,,,,,,,,,,,,,a,1,0.533,space,0.323,0,11,11,127,1,0_targ_4_dist_green/trial3.png,,,0,4,greenverival,a,65,27,M,2021-02-20_12h43.13.739,exp11,2020.2.6,MacIntel,60,,,,,,,,,,,
,,,,,,,,,,,,,,a,1,0.711,space,0.238,0,12,12,172,1,0_targ_10_dist_green/trial23.png,,,0,10,greenverival,a,65,27,M,2021-02-20_12h43.13.739,exp11,2020.2.6,MacIntel,60,,,,,,,,,,,
,,,,,,,,,,,,,,a,1,0.558,space,0.172,0,13,13,137,1,0_targ_4_dist_green/trial13.png,,,0,4,greenverival,a,65,27,M,2021-02-20_12h43.13.739,exp11,2020.2.6,MacIntel,60,,,,,,,,,,,
,,,,,,,,,,,,,,p,1,0.599,space,0.155,0,14,14,92,1,15_dist_green/trial18.png,,,1,15,greenverival,p,65,27,M,2021-02-20_12h43.13.739,exp11,2020.2.6,MacIntel,60,,,,,,,,,,,
,,,,,,,,,,,,,,p,1,0.578,space,0.143,0,15,15,57,1,9_dist_green/trial8.png,,,1,9,greenverival,p,65,27,M,2021-02-20_12h43.13.739,exp11,2020.2.6,MacIntel,60,,,,,,,,,,,
,,,,,,,,,,,,,,a,1,0.762,space,0.256,0,16,16,168,1,0_targ_10_dist_green/trial19.png,,,0,10,greenverival,a,65,27,M,2021-02-20_12h43.13.739,exp11,2020.2.6,MacIntel,60,,,,,,,,,,,
,,,,,,,,,,,,,,a,1,0.555,space,0.157,0,17,17,143,1,0_targ_4_dist_green/trial19.png,,,0,4,greenverival,a,65,27,M,2021-02-20_12h43.13.739,exp11,2020.2.6,MacIntel,60,,,,,,,,,,,
,,,,,,,,,,,,,,p,1,0.585,space,0.156,0,18,18,13,1,0_dist_green/trial14.png,,,1,0,greenverival,p,65,27,M,2021-02-20_12h43.13.739,exp11,2020.2.6,MacIntel,60,,,,,,,,,,,
,,,,,,,,,,,,,,a,1,0.626,space,0.223,0,19,19,122,1,0_targ_1_dist_green/trial23.png,,,0,1,greenverival,a,65,27,M,2021-02-20_12h43.13.739,exp11,2020.2.6,MacIntel,60,,,,,,,,,,,
,,,,,,,,,,,,,,a,1,1.111,space,0.209,0,20,20,134,1,0_targ_4_dist_green/trial10.png,,,0,4,greenverival,a,65,27,M,2021-02-20_12h43.13.739,exp11,2020.2.6,MacIntel,60,,,,,,,,,,,
,,,,,,,,,,,,,,a,1,0.618,space,0.39,0,21,21,109,1,0_targ_1_dist_green/trial10.png,,,0,1,greenverival,a,65,27,M,2021-02-20_12h43.13.739,exp11,2020.2.6,MacIntel,60,,,,,,,,,,,
,,,,,,,,,,,,,,p,1,0.783,space,0.327,0,22,22,45,1,3_dist_green/trial21.png,,,1,3,greenverival,p,65,27,M,2021-02-20_12h43.13.739,exp11,2020.2.6,MacIntel,60,,,,,,,,,,,
,,,,,,,,,,,,,,p,1,0.928,space,0.24,0,23,23,91,1,15_dist_green/trial17.png,,,1,15,greenverival,p,65,27,M,2021-02-20_12h43.13.739,exp11,2020.2.6,MacIntel,60,,,,,,,,,,,
,,,,,,,,,,,,,,a,1,0.962,space,0.209,0,24,24,196,1,0_targ_16_dist_green/trial22.png,,,0,16,greenverival,a,65,27,M,2021-02-20_12h43.13.739,exp11,2020.2.6,MacIntel,60,,,,,,,,,,,
,,,,,,,,,,,,,,p,1,1.351,space,0.165,0,25,25,93,1,15_dist_green/trial19.png,,,1,15,greenverival,p,65,27,M,2021-02-20_12h43.13.739,exp11,2020.2.6,MacIntel,60,,,,,,,,,,,
,,,,,,,,,,,,,,a,1,0.744,space,0.172,0,26,26,151,1,0_targ_10_dist_green/trial2.png,,,0,10,greenverival,a,65,27,M,2021-02-20_12h43.13.739,exp11,2020.2.6,MacIntel,60,,,,,,,,,,,
,,,,,,,,,,,,,,p,1,0.578,space,0.16,0,27,27,88,1,15_dist_green/trial14.png,,,1,15,greenverival,p,65,27,M,2021-02-20_12h43.13.739,exp11,2020.2.6,MacIntel,60,,,,,,,,,,,
,,,,,,,,,,,,,,p,1,0.426,space,0.188,0,28,28,19,1,0_dist_green/trial20.png,,,1,0,greenverival,p,65,27,M,2021-02-20_12h43.13.739,exp11,2020.2.6,MacIntel,60,,,,,,,,,,,
,,,,,,,,,,,,,,p,1,0.492,space,0.178,0,29,29,41,1,3_dist_green/trial17.png,,,1,3,greenverival,p,65,27,M,2021-02-20_12h43.13.739,exp11,2020.2.6,MacIntel,60,,,,,,,,,,,
,,,,,,,,,,,,,,p,1,0.653,space,0.154,0,30,30,79,1,15_dist_green/trial5.png,,,1,15,greenverival,p,65,27,M,2021-02-20_12h43.13.739,exp11,2020.2.6,MacIntel,60,,,,,,,,,,,
,,,,,,,,,,,,,,a,1,0.703,space,0.201,0,31,31,194,1,0_targ_16_dist_green/trial20.png,,,0,16,greenverival,a,65,27,M,2021-02-20_12h43.13.739,exp11,2020.2.6,MacIntel,60,,,,,,,,,,,
,,,,,,,,,,,,,,a,1,0.531,space,0.188,0,32,32,183,1,0_targ_16_dist_green/trial9.png,,,0,16,greenverival,a,65,27,M,2021-02-20_12h43.13.739,exp11,2020.2.6,MacIntel,60,,,,,,,,,,,
,,,,,,,,,,,,,,p,1,0.534,space,0.155,0,33,33,56,1,9_dist_green/trial7.png,,,1,9,greenverival,p,65,27,M,2021-02-20_12h43.13.739,exp11,2020.2.6,MacIntel,60,,,,,,,,,,,
,,,,,,,,,,,,,,a,1,0.611,space,0.183,0,34,34,149,1,0_targ_4_dist_green/trial25.png,,,0,4,greenverival,a,65,27,M,2021-02-20_12h43.13.739,exp11,2020.2.6,MacIntel,60,,,,,,,,,,,
,,,,,,,,,,,,,,a,1,0.825,space,0.163,0,35,35,117,1,0_targ_1_dist_green/trial18.png,,,0,1,greenverival,a,65,27,M,2021-02-20_12h43.13.739,exp11,2020.2.6,MacIntel,60,,,,,,,,,,,
,,,,,,,,,,,,,,p,1,0.731,space,0.138,0,36,36,58,1,9_dist_green/trial9.png,,,1,9,greenverival,p,65,27,M,2021-02-20_12h43.13.739,exp11,2020.2.6,MacIntel,60,,,,,,,,,,,
,,,,,,,,,,,,,,p,1,0.461,space,0.197,0,37,37,71,1,9_dist_green/trial22.png,,,1,9,greenverival,p,65,27,M,2021-02-20_12h43.13.739,exp11,2020.2.6,MacIntel,60,,,,,,,,,,,
,,,,,,,,,,,,,,p,1,0.41,space,0.321,0,38,38,5,1,0_dist_green/trial6.png,,,1,0,greenverival,p,65,27,M,2021-02-20_12h43.13.739,exp11,2020.2.6,MacIntel,60,,,,,,,,,,,
,,,,,,,,,,,,,,p,1,0.529,space,0.341,0,39,39,75,1,15_dist_green/trial1.png,,,1,15,greenverival,p,65,27,M,2021-02-20_12h43.13.739,exp11,2020.2.6,MacIntel,60,,,,,,,,,,,
,,,,,,,,,,,,,,p,1,0.459,space,0.215,0,40,40,11,1,0_dist_green/trial12.png,,,1,0,greenverival,p,65,27,M,2021-02-20_12h43.13.739,exp11,2020.2.6,MacIntel,60,,,,,,,,,,,
,,,,,,,,,,,,,,p,1,0.555,space,0.154,0,41,41,98,1,15_dist_green/trial24.png,,,1,15,greenverival,p,65,27,M,2021-02-20_12h43.13.739,exp11,2020.2.6,MacIntel,60,,,,,,,,,,,
,,,,,,,,,,,,,,a,1,0.795,space,0.307,0,42,42,123,1,0_targ_1_dist_green/trial24.png,,,0,1,greenverival,a,65,27,M,2021-02-20_12h43.13.739,exp11,2020.2.6,MacIntel,60,,,,,,,,,,,
,,,,,,,,,,,,,,a,1,0.899,space,0.239,0,43,43,176,1,0_targ_16_dist_green/trial2.png,,,0,16,greenverival,a,65,27,M,2021-02-20_12h43.13.739,exp11,2020.2.6,MacIntel,60,,,,,,,,,,,
,,,,,,,,,,,,,,a,1,0.609,space,0.189,0,44,44,140,1,0_targ_4_dist_green/trial6.png,,,0,4,greenverival,a,65,27,M,2021-02-20_12h43.13.739,exp11,2020.2.6,MacIntel,60,,,,,,,,,,,
,,,,,,,,,,,,,,p,1,0.526,space,0.128,0,45,45,14,1,0_dist_green/trial15.png,,,1,0,greenverival,p,65,27,M,2021-02-20_12h43.13.739,exp11,2020.2.6,MacIntel,60,,,,,,,,,,,
,,,,,,,,,,,,,,a,1,0.676,space,0.17,0,46,46,156,1,0_targ_10_dist_green/trial7.png,,,0,10,greenverival,a,65,27,M,2021-02-20_12h43.13.739,exp11,2020.2.6,MacIntel,60,,,,,,,,,,,
,,,,,,,,,,,,,,p,1,0.521,space,0.136,0,47,47,12,1,0_dist_green/trial13.png,,,1,0,greenverival,p,65,27,M,2021-02-20_12h43.13.739,exp11,2020.2.6,MacIntel,60,,,,,,,,,,,
,,,,,,,,,,,,,,a,1,0.814,space,0.119,0,48,48,119,1,0_targ_1_dist_green/trial20.png,,,0,1,greenverival,a,65,27,M,2021-02-20_12h43.13.739,exp11,2020.2.6,MacIntel,60,,,,,,,,,,,
,,,,,,,,,,,,,,p,1,0.509,space,0.155,0,49,49,1,1,0_dist_green/trial2.png,,,1,0,greenverival,p,65,27,M,2021-02-20_12h43.13.739,exp11,2020.2.6,MacIntel,60,,,,,,,,,,,
,,,,,,,,,,,,,,p,1,0.713,space,0.155,0,50,50,69,1,9_dist_green/trial20.png,,,1,9,greenverival,p,65,27,M,2021-02-20_12h43.13.739,exp11,2020.2.6,MacIntel,60,,,,,,,,,,,
,,,,,,,,,,,,,,a,1,1.125,space,0.264,0,51,51,184,1,0_targ_16_dist_green/trial10.png,,,0,16,greenverival,a,65,27,M,2021-02-20_12h43.13.739,exp11,2020.2.6,MacIntel,60,,,,,,,,,,,
,,,,,,,,,,,,,,p,1,0.727,space,0.158,0,52,52,94,1,15_dist_green/trial20.png,,,1,15,greenverival,p,65,27,M,2021-02-20_12h43.13.739,exp11,2020.2.6,MacIntel,60,,,,,,,,,,,
,,,,,,,,,,,,,,a,1,0.652,space,0.168,0,53,53,160,1,0_targ_10_dist_green/trial11.png,,,0,10,greenverival,a,65,27,M,2021-02-20_12h43.13.739,exp11,2020.2.6,MacIntel,60,,,,,,,,,,,
,,,,,,,,,,,,,,a,1,0.664,space,0.129,0,54,54,101,1,0_targ_1_dist_green/trial2.png,,,0,1,greenverival,a,65,27,M,2021-02-20_12h43.13.739,exp11,2020.2.6,MacIntel,60,,,,,,,,,,,
,,,,,,,,,,,,,,p,1,0.581,space,0.122,0,55,55,47,1,3_dist_green/trial23.png,,,1,3,greenverival,p,65,27,M,2021-02-20_12h43.13.739,exp11,2020.2.6,MacIntel,60,,,,,,,,,,,
,,,,,,,,,,,,,,p,1,1.032,space,0.138,0,56,56,52,1,9_dist_green/trial3.png,,,1,9,greenverival,p,65,27,M,2021-02-20_12h43.13.739,exp11,2020.2.6,MacIntel,60,,,,,,,,,,,
,,,,,,,,,,,,,,a,1,0.663,space,0.136,0,57,57,167,1,0_targ_10_dist_green/trial18.png,,,0,10,greenverival,a,65,27,M,2021-02-20_12h43.13.739,exp11,2020.2.6,MacIntel,60,,,,,,,,,,,
,,,,,,,,,,,,,,p,1,0.626,space,0.106,0,58,58,0,1,0_dist_green/trial1.png,,,1,0,greenverival,p,65,27,M,2021-02-20_12h43.13.739,exp11,2020.2.6,MacIntel,60,,,,,,,,,,,
,,,,,,,,,,,,,,a,1,0.631,space,0.155,0,59,59,108,1,0_targ_1_dist_green/trial9.png,,,0,1,greenverival,a,65,27,M,2021-02-20_12h43.13.739,exp11,2020.2.6,MacIntel,60,,,,,,,,,,,
,,,,,,,,,,,,,,a,1,1.447,space,0.273,0,60,60,103,1,0_targ_1_dist_green/trial4.png,,,0,1,greenverival,a,65,27,M,2021-02-20_12h43.13.739,exp11,2020.2.6,MacIntel,60,,,,,,,,,,,
,,,,,,,,,,,,,,p,1,0.558,space,0.135,0,61,61,87,1,15_dist_green/trial13.png,,,1,15,greenverival,p,65,27,M,2021-02-20_12h43.13.739,exp11,2020.2.6,MacIntel,60,,,,,,,,,,,
,,,,,,,,,,,,,,p,1,0.574,space,0.12,0,62,62,33,1,3_dist_green/trial9.png,,,1,3,greenverival,p,65,27,M,2021-02-20_12h43.13.739,exp11,2020.2.6,MacIntel,60,,,,,,,,,,,
,,,,,,,,,,,,,,a,1,0.649,space,0.124,0,63,63,114,1,0_targ_1_dist_green/trial15.png,,,0,1,greenverival,a,65,27,M,2021-02-20_12h43.13.739,exp11,2020.2.6,MacIntel,60,,,,,,,,,,,
,,,,,,,,,,,,,,a,1,0.6,space,0.204,0,64,64,100,1,0_targ_1_dist_green/trial1.png,,,0,1,greenverival,a,65,27,M,2021-02-20_12h43.13.739,exp11,2020.2.6,MacIntel,60,,,,,,,,,,,
,,,,,,,,,,,,,,a,1,0.801,space,0.12,0,65,65,154,1,0_targ_10_dist_green/trial5.png,,,0,10,greenverival,a,65,27,M,2021-02-20_12h43.13.739,exp11,2020.2.6,MacIntel,60,,,,,,,,,,,
,,,,,,,,,,,,,,p,1,0.7,space,0.09,0,66,66,84,1,15_dist_green/trial10.png,,,1,15,greenverival,p,65,27,M,2021-02-20_12h43.13.739,exp11,2020.2.6,MacIntel,60,,,,,,,,,,,
,,,,,,,,,,,,,,a,1,0.794,space,0.103,0,67,67,148,1,0_targ_4_dist_green/trial24.png,,,0,4,greenverival,a,65,27,M,2021-02-20_12h43.13.739,exp11,2020.2.6,MacIntel,60,,,,,,,,,,,
,,,,,,,,,,,,,,p,1,0.689,space,0.089,0,68,68,36,1,3_dist_green/trial12.png,,,1,3,greenverival,p,65,27,M,2021-02-20_12h43.13.739,exp11,2020.2.6,MacIntel,60,,,,,,,,,,,
,,,,,,,,,,,,,,p,1,0.711,space,0.106,0,69,69,66,1,9_dist_green/trial17.png,,,1,9,greenverival,p,65,27,M,2021-02-20_12h43.13.739,exp11,2020.2.6,MacIntel,60,,,,,,,,,,,
,,,,,,,,,,,,,,a,1,0.577,space,0.064,0,70,70,125,1,0_targ_4_dist_green/trial1.png,,,0,4,greenverival,a,65,27,M,2021-02-20_12h43.13.739,exp11,2020.2.6,MacIntel,60,,,,,,,,,,,
,,,,,,,,,,,,,,a,1,0.776,space,0.104,0,71,71,180,1,0_targ_16_dist_green/trial6.png,,,0,16,greenverival,a,65,27,M,2021-02-20_12h43.13.739,exp11,2020.2.6,MacIntel,60,,,,,,,,,,,
,,,,,,,,,,,,,,p,1,0.65,space,0.12,0,72,72,43,1,3_dist_green/trial19.png,,,1,3,greenverival,p,65,27,M,2021-02-20_12h43.13.739,exp11,2020.2.6,MacIntel,60,,,,,,,,,,,
,,,,,,,,,,,,,,a,1,0.844,space,0.107,0,73,73,175,1,0_targ_16_dist_green/trial1.png,,,0,16,greenverival,a,65,27,M,2021-02-20_12h43.13.739,exp11,2020.2.6,MacIntel,60,,,,,,,,,,,
,,,,,,,,,,,,,,p,1,0.766,space,0.106,0,74,74,90,1,15_dist_green/trial16.png,,,1,15,greenverival,p,65,27,M,2021-02-20_12h43.13.739,exp11,2020.2.6,MacIntel,60,,,,,,,,,,,
,,,,,,,,,,,,,,p,1,0.658,space,0.153,0,75,75,82,1,15_dist_green/trial8.png,,,1,15,greenverival,p,65,27,M,2021-02-20_12h43.13.739,exp11,2020.2.6,MacIntel,60,,,,,,,,,,,
,,,,,,,,,,,,,,a,1,0.565,space,0.153,0,76,76,126,1,0_targ_4_dist_green/trial2.png,,,0,4,greenverival,a,65,27,M,2021-02-20_12h43.13.739,exp11,2020.2.6,MacIntel,60,,,,,,,,,,,
,,,,,,,,,,,,,,p,1,0.625,space,0.157,0,77,77,8,1,0_dist_green/trial9.png,,,1,0,greenverival,p,65,27,M,2021-02-20_12h43.13.739,exp11,2020.2.6,MacIntel,60,,,,,,,,,,,
,,,,,,,,,,,,,,a,1,0.727,space,0.039,0,78,78,189,1,0_targ_16_dist_green/trial15.png,,,0,16,greenverival,a,65,27,M,2021-02-20_12h43.13.739,exp11,2020.2.6,MacIntel,60,,,,,,,,,,,
,,,,,,,,,,,,,,p,1,0.93,space,0.152,0,79,79,73,1,9_dist_green/trial24.png,,,1,9,greenverival,p,65,27,M,2021-02-20_12h43.13.739,exp11,2020.2.6,MacIntel,60,,,,,,,,,,,
,,,,,,,,,,,,,,p,1,1.213,space,0.127,0,80,80,51,1,9_dist_green/trial2.png,,,1,9,greenverival,p,65,27,M,2021-02-20_12h43.13.739,exp11,2020.2.6,MacIntel,60,,,,,,,,,,,
,,,,,,,,,,,,,,a,1,0.664,space,0.19,0,81,81,166,1,0_targ_10_dist_green/trial17.png,,,0,10,greenverival,a,65,27,M,2021-02-20_12h43.13.739,exp11,2020.2.6,MacIntel,60,,,,,,,,,,,
,,,,,,,,,,,,,,p,1,0.525,space,0.156,0,82,82,15,1,0_dist_green/trial16.png,,,1,0,greenverival,p,65,27,M,2021-02-20_12h43.13.739,exp11,2020.2.6,MacIntel,60,,,,,,,,,,,
,,,,,,,,,,,,,,p,1,0.642,space,0.138,0,83,83,39,1,3_dist_green/trial15.png,,,1,3,greenverival,p,65,27,M,2021-02-20_12h43.13.739,exp11,2020.2.6,MacIntel,60,,,,,,,,,,,
,,,,,,,,,,,,,,p,1,0.608,space,0.136,0,84,84,80,1,15_dist_green/trial6.png,,,1,15,greenverival,p,65,27,M,2021-02-20_12h43.13.739,exp11,2020.2.6,MacIntel,60,,,,,,,,,,,
,,,,,,,,,,,,,,a,1,0.61,space,0.153,0,85,85,116,1,0_targ_1_dist_green/trial17.png,,,0,1,greenverival,a,65,27,M,2021-02-20_12h43.13.739,exp11,2020.2.6,MacIntel,60,,,,,,,,,,,
,,,,,,,,,,,,,,a,1,0.725,space,0.089,0,86,86,179,1,0_targ_16_dist_green/trial5.png,,,0,16,greenverival,a,65,27,M,2021-02-20_12h43.13.739,exp11,2020.2.6,MacIntel,60,,,,,,,,,,,
,,,,,,,,,,,,,,a,1,0.507,space,0.089,0,87,87,111,1,0_targ_1_dist_green/trial12.png,,,0,1,greenverival,a,65,27,M,2021-02-20_12h43.13.739,exp11,2020.2.6,MacIntel,60,,,,,,,,,,,
,,,,,,,,,,,,,,p,1,0.747,space,0.105,0,88,88,83,1,15_dist_green/trial9.png,,,1,15,greenverival,p,65,27,M,2021-02-20_12h43.13.739,exp11,2020.2.6,MacIntel,60,,,,,,,,,,,
,,,,,,,,,,,,,,p,1,0.912,space,0.089,0,89,89,6,1,0_dist_green/trial7.png,,,1,0,greenverival,p,65,27,M,2021-02-20_12h43.13.739,exp11,2020.2.6,MacIntel,60,,,,,,,,,,,
,,,,,,,,,,,,,,a,1,0.591,space,0.07,0,90,90,139,1,0_targ_4_dist_green/trial15.png,,,0,4,greenverival,a,65,27,M,2021-02-20_12h43.13.739,exp11,2020.2.6,MacIntel,60,,,,,,,,,,,
,,,,,,,,,,,,,,p,1,0.545,space,0.094,0,91,91,60,1,9_dist_green/trial11.png,,,1,9,greenverival,p,65,27,M,2021-02-20_12h43.13.739,exp11,2020.2.6,MacIntel,60,,,,,,,,,,,
,,,,,,,,,,,,,,p,1,0.647,space,0.139,0,92,92,37,1,3_dist_green/trial13.png,,,1,3,greenverival,p,65,27,M,2021-02-20_12h43.13.739,exp11,2020.2.6,MacIntel,60,,,,,,,,,,,
,,,,,,,,,,,,,,p,1,0.444,space,0.098,0,93,93,23,1,0_dist_green/trial24.png,,,1,0,greenverival,p,65,27,M,2021-02-20_12h43.13.739,exp11,2020.2.6,MacIntel,60,,,,,,,,,,,
,,,,,,,,,,,,,,a,1,0.658,space,0.075,0,94,94,144,1,0_targ_4_dist_green/trial20.png,,,0,4,greenverival,a,65,27,M,2021-02-20_12h43.13.739,exp11,2020.2.6,MacIntel,60,,,,,,,,,,,
,,,,,,,,,,,,,,a,1,0.628,space,0.088,0,95,95,136,1,0_targ_4_dist_green/trial12.png,,,0,4,greenverival,a,65,27,M,2021-02-20_12h43.13.739,exp11,2020.2.6,MacIntel,60,,,,,,,,,,,
,,,,,,,,,,,,,,a,1,0.627,space,0.098,0,96,96,121,1,0_targ_1_dist_green/trial22.png,,,0,1,greenverival,a,65,27,M,2021-02-20_12h43.13.739,exp11,2020.2.6,MacIntel,60,,,,,,,,,,,
,,,,,,,,,,,,,,p,1,0.972,space,0.106,0,97,97,70,1,9_dist_green/trial21.png,,,1,9,greenverival,p,65,27,M,2021-02-20_12h43.13.739,exp11,2020.2.6,MacIntel,60,,,,,,,,,,,
,,,,,,,,,,,,,,a,1,0.682,space,0.056,0,98,98,107,1,0_targ_1_dist_green/trial8.png,,,0,1,greenverival,a,65,27,M,2021-02-20_12h43.13.739,exp11,2020.2.6,MacIntel,60,,,,,,,,,,,
,,,,,,,,,,,,,,p,1,0.815,space,0.073,0,99,99,86,1,15_dist_green/trial12.png,,,1,15,greenverival,p,65,27,M,2021-02-20_12h43.13.739,exp11,2020.2.6,MacIntel,60,,,,,,,,,,,
,,,,,,,,,,,,,,a,1,0.444,space,0.055,0,100,100,105,1,0_targ_1_dist_green/trial6.png,,,0,1,greenverival,a,65,27,M,2021-02-20_12h43.13.739,exp11,2020.2.6,MacIntel,60,,,,,,,,,,,
,,,,,,,,,,,,,,p,1,0.644,space,0.121,0,101,101,25,1,3_dist_green/trial1.png,,,1,3,greenverival,p,65,27,M,2021-02-20_12h43.13.739,exp11,2020.2.6,MacIntel,60,,,,,,,,,,,
,,,,,,,,,,,,,,p,1,0.676,space,0.069,0,102,102,44,1,3_dist_green/trial20.png,,,1,3,greenverival,p,65,27,M,2021-02-20_12h43.13.739,exp11,2020.2.6,MacIntel,60,,,,,,,,,,,
,,,,,,,,,,,,,,p,1,0.698,space,0.052,0,103,103,81,1,15_dist_green/trial7.png,,,1,15,greenverival,p,65,27,M,2021-02-20_12h43.13.739,exp11,2020.2.6,MacIntel,60,,,,,,,,,,,
,,,,,,,,,,,,,,a,0,0.761,space,0.24,0,104,104,50,1,9_dist_green/trial1.png,,,1,9,greenverival,p,65,27,M,2021-02-20_12h43.13.739,exp11,2020.2.6,MacIntel,60,,,,,,,,,,,
,,,,,,,,,,,,,,a,1,0.691,space,0.116,0,105,105,197,1,0_targ_16_dist_green/trial23.png,,,0,16,greenverival,a,65,27,M,2021-02-20_12h43.13.739,exp11,2020.2.6,MacIntel,60,,,,,,,,,,,
,,,,,,,,,,,,,,a,1,0.565,space,0.139,0,106,106,102,1,0_targ_1_dist_green/trial3.png,,,0,1,greenverival,a,65,27,M,2021-02-20_12h43.13.739,exp11,2020.2.6,MacIntel,60,,,,,,,,,,,
,,,,,,,,,,,,,,p,1,0.517,space,0.13,0,107,107,55,1,9_dist_green/trial6.png,,,1,9,greenverival,p,65,27,M,2021-02-20_12h43.13.739,exp11,2020.2.6,MacIntel,60,,,,,,,,,,,
,,,,,,,,,,,,,,a,1,0.602,space,1.08,0,108,108,190,1,0_targ_16_dist_green/trial16.png,,,0,16,greenverival,a,65,27,M,2021-02-20_12h43.13.739,exp11,2020.2.6,MacIntel,60,,,,,,,,,,,
,,,,,,,,,,,,,,a,1,0.585,space,0.063,0,109,109,130,1,0_targ_4_dist_green/trial6.png,,,0,4,greenverival,a,65,27,M,2021-02-20_12h43.13.739,exp11,2020.2.6,MacIntel,60,,,,,,,,,,,
,,,,,,,,,,,,,,p,1,0.649,space,0.136,0,110,110,68,1,9_dist_green/trial19.png,,,1,9,greenverival,p,65,27,M,2021-02-20_12h43.13.739,exp11,2020.2.6,MacIntel,60,,,,,,,,,,,
,,,,,,,,,,,,,,a,1,0.709,space,0.071,0,111,111,198,1,0_targ_16_dist_green/trial24.png,,,0,16,greenverival,a,65,27,M,2021-02-20_12h43.13.739,exp11,2020.2.6,MacIntel,60,,,,,,,,,,,
,,,,,,,,,,,,,,p,1,0.613,space,0.096,0,112,112,4,1,0_dist_green/trial5.png,,,1,0,greenverival,p,65,27,M,2021-02-20_12h43.13.739,exp11,2020.2.6,MacIntel,60,,,,,,,,,,,
,,,,,,,,,,,,,,p,1,0.643,space,0.08,0,113,113,7,1,0_dist_green/trial8.png,,,1,0,greenverival,p,65,27,M,2021-02-20_12h43.13.739,exp11,2020.2.6,MacIntel,60,,,,,,,,,,,
,,,,,,,,,,,,,,p,1,0.626,space,0.139,0,114,114,99,1,15_dist_green/trial25.png,,,1,15,greenverival,p,65,27,M,2021-02-20_12h43.13.739,exp11,2020.2.6,MacIntel,60,,,,,,,,,,,
,,,,,,,,,,,,,,a,1,0.926,space,0.052,0,115,115,171,1,0_targ_10_dist_green/trial22.png,,,0,10,greenverival,a,65,27,M,2021-02-20_12h43.13.739,exp11,2020.2.6,MacIntel,60,,,,,,,,,,,
,,,,,,,,,,,,,,p,1,0.527,space,0.105,0,116,116,49,1,3_dist_green/trial25.png,,,1,3,greenverival,p,65,27,M,2021-02-20_12h43.13.739,exp11,2020.2.6,MacIntel,60,,,,,,,,,,,
,,,,,,,,,,,,,,a,1,0.543,space,0.942,0,117,117,169,1,0_targ_10_dist_green/trial20.png,,,0,10,greenverival,a,65,27,M,2021-02-20_12h43.13.739,exp11,2020.2.6,MacIntel,60,,,,,,,,,,,
,,,,,,,,,,,,,,p,1,0.97,space,0.116,0,118,118,97,1,15_dist_green/trial23.png,,,1,15,greenverival,p,65,27,M,2021-02-20_12h43.13.739,exp11,2020.2.6,MacIntel,60,,,,,,,,,,,
,,,,,,,,,,,,,,a,1,0.588,space,0.07,0,119,119,161,1,0_targ_10_dist_green/trial12.png,,,0,10,greenverival,a,65,27,M,2021-02-20_12h43.13.739,exp11,2020.2.6,MacIntel,60,,,,,,,,,,,
,,,,,,,,,,,,,,a,1,0.528,space,0.113,0,120,120,104,1,0_targ_1_dist_green/trial5.png,,,0,1,greenverival,a,65,27,M,2021-02-20_12h43.13.739,exp11,2020.2.6,MacIntel,60,,,,,,,,,,,
,,,,,,,,,,,,,,a,1,0.511,space,0.07,0,121,121,132,1,0_targ_4_dist_green/trial8.png,,,0,4,greenverival,a,65,27,M,2021-02-20_12h43.13.739,exp11,2020.2.6,MacIntel,60,,,,,,,,,,,
,,,,,,,,,,,,,,p,1,0.741,space,0.139,0,122,122,31,1,3_dist_green/trial7.png,,,1,3,greenverival,p,65,27,M,2021-02-20_12h43.13.739,exp11,2020.2.6,MacIntel,60,,,,,,,,,,,
,,,,,,,,,,,,,,a,0,0.463,space,0.299,0,123,123,28,1,3_dist_green/trial4.png,,,1,3,greenverival,p,65,27,M,2021-02-20_12h43.13.739,exp11,2020.2.6,MacIntel,60,,,,,,,,,,,
,,,,,,,,,,,,,,a,1,0.645,space,0.121,0,124,124,182,1,0_targ_16_dist_green/trial8.png,,,0,16,greenverival,a,65,27,M,2021-02-20_12h43.13.739,exp11,2020.2.6,MacIntel,60,,,,,,,,,,,
,,,,,,,,,,,,,,a,1,0.464,space,0.081,0,125,125,157,1,0_targ_10_dist_green/trial8.png,,,0,10,greenverival,a,65,27,M,2021-02-20_12h43.13.739,exp11,2020.2.6,MacIntel,60,,,,,,,,,,,
,,,,,,,,,,,,,,p,1,0.578,space,0.103,0,126,126,67,1,9_dist_green/trial18.png,,,1,9,greenverival,p,65,27,M,2021-02-20_12h43.13.739,exp11,2020.2.6,MacIntel,60,,,,,,,,,,,
,,,,,,,,,,,,,,a,1,0.516,space,0.088,0,127,127,174,1,0_targ_10_dist_green/trial25.png,,,0,10,greenverival,a,65,27,M,2021-02-20_12h43.13.739,exp11,2020.2.6,MacIntel,60,,,,,,,,,,,
,,,,,,,,,,,,,,a,1,0.608,space,0.03,0,128,128,170,1,0_targ_10_dist_green/trial21.png,,,0,10,greenverival,a,65,27,M,2021-02-20_12h43.13.739,exp11,2020.2.6,MacIntel,60,,,,,,,,,,,
,,,,,,,,,,,,,,p,1,0.559,space,0.139,0,129,129,85,1,15_dist_green/trial11.png,,,1,15,greenverival,p,65,27,M,2021-02-20_12h43.13.739,exp11,2020.2.6,MacIntel,60,,,,,,,,,,,
,,,,,,,,,,,,,,a,1,0.444,space,0.024,0,130,130,131,1,0_targ_4_dist_green/trial7.png,,,0,4,greenverival,a,65,27,M,2021-02-20_12h43.13.739,exp11,2020.2.6,MacIntel,60,,,,,,,,,,,
,,,,,,,,,,,,,,p,1,0.626,space,0.213,0,131,131,27,1,3_dist_green/trial3.png,,,1,3,greenverival,p,65,27,M,2021-02-20_12h43.13.739,exp11,2020.2.6,MacIntel,60,,,,,,,,,,,
,,,,,,,,,,,,,,p,1,0.649,space,0.056,0,132,132,32,1,3_dist_green/trial8.png,,,1,3,greenverival,p,65,27,M,2021-02-20_12h43.13.739,exp11,2020.2.6,MacIntel,60,,,,,,,,,,,
,,,,,,,,,,,,,,p,1,1.051,space,0.137,0,133,133,40,1,3_dist_green/trial16.png,,,1,3,greenverival,p,65,27,M,2021-02-20_12h43.13.739,exp11,2020.2.6,MacIntel,60,,,,,,,,,,,
,,,,,,,,,,,,,,p,1,0.591,space,0.128,0,134,134,48,1,3_dist_green/trial24.png,,,1,3,greenverival,p,65,27,M,2021-02-20_12h43.13.739,exp11,2020.2.6,MacIntel,60,,,,,,,,,,,
,,,,,,,,,,,,,,a,0,0.649,space,0.97,0,135,135,34,1,3_dist_green/trial10.png,,,1,3,greenverival,p,65,27,M,2021-02-20_12h43.13.739,exp11,2020.2.6,MacIntel,60,,,,,,,,,,,
,,,,,,,,,,,,,,a,1,0.732,space,0.17,0,136,136,162,1,0_targ_10_dist_green/trial13.png,,,0,10,greenverival,a,65,27,M,2021-02-20_12h43.13.739,exp11,2020.2.6,MacIntel,60,,,,,,,,,,,
,,,,,,,,,,,,,,p,1,0.677,space,0.137,0,137,137,65,1,9_dist_green/trial16.png,,,1,9,greenverival,p,65,27,M,2021-02-20_12h43.13.739,exp11,2020.2.6,MacIntel,60,,,,,,,,,,,
,,,,,,,,,,,,,,p,1,0.545,space,0.191,0,138,138,63,1,9_dist_green/trial14.png,,,1,9,greenverival,p,65,27,M,2021-02-20_12h43.13.739,exp11,2020.2.6,MacIntel,60,,,,,,,,,,,
,,,,,,,,,,,,,,a,1,0.6,space,0.223,0,139,139,188,1,0_targ_16_dist_green/trial14.png,,,0,16,greenverival,a,65,27,M,2021-02-20_12h43.13.739,exp11,2020.2.6,MacIntel,60,,,,,,,,,,,
,,,,,,,,,,,,,,a,1,0.662,space,0.083,0,140,140,153,1,0_targ_10_dist_green/trial4.png,,,0,10,greenverival,a,65,27,M,2021-02-20_12h43.13.739,exp11,2020.2.6,MacIntel,60,,,,,,,,,,,
,,,,,,,,,,,,,,p,1,0.602,space,0.118,0,141,141,3,1,0_dist_green/trial4.png,,,1,0,greenverival,p,65,27,M,2021-02-20_12h43.13.739,exp11,2020.2.6,MacIntel,60,,,,,,,,,,,
,,,,,,,,,,,,,,p,1,0.442,space,0.105,0,142,142,54,1,9_dist_green/trial5.png,,,1,9,greenverival,p,65,27,M,2021-02-20_12h43.13.739,exp11,2020.2.6,MacIntel,60,,,,,,,,,,,
,,,,,,,,,,,,,,a,1,0.573,space,0.086,0,143,143,158,1,0_targ_10_dist_green/trial9.png,,,0,10,greenverival,a,65,27,M,2021-02-20_12h43.13.739,exp11,2020.2.6,MacIntel,60,,,,,,,,,,,
,,,,,,,,,,,,,,a,1,0.707,space,0.11,0,144,144,195,1,0_targ_16_dist_green/trial21.png,,,0,16,greenverival,a,65,27,M,2021-02-20_12h43.13.739,exp11,2020.2.6,MacIntel,60,,,,,,,,,,,
,,,,,,,,,,,,,,a,1,0.563,space,0.061,0,145,145,155,1,0_targ_10_dist_green/trial6.png,,,0,10,greenverival,a,65,27,M,2021-02-20_12h43.13.739,exp11,2020.2.6,MacIntel,60,,,,,,,,,,,
,,,,,,,,,,,,,,p,1,0.611,space,0.153,0,146,146,2,1,0_dist_green/trial3.png,,,1,0,greenverival,p,65,27,M,2021-02-20_12h43.13.739,exp11,2020.2.6,MacIntel,60,,,,,,,,,,,
,,,,,,,,,,,,,,p,1,0.855,space,0.036,0,147,147,95,1,15_dist_green/trial21.png,,,1,15,greenverival,p,65,27,M,2021-02-20_12h43.13.739,exp11,2020.2.6,MacIntel,60,,,,,,,,,,,
,,,,,,,,,,,,,,p,1,0.778,space,0.142,0,148,148,46,1,3_dist_green/trial22.png,,,1,3,greenverival,p,65,27,M,2021-02-20_12h43.13.739,exp11,2020.2.6,MacIntel,60,,,,,,,,,,,
,,,,,,,,,,,,,,a,1,0.712,space,0.139,0,149,149,185,1,0_targ_16_dist_green/trial11.png,,,0,16,greenverival,a,65,27,M,2021-02-20_12h43.13.739,exp11,2020.2.6,MacIntel,60,,,,,,,,,,,
,,,,,,,,,,,,,,a,1,0.793,space,0.085,0,150,150,142,1,0_targ_4_dist_green/trial18.png,,,0,4,greenverival,a,65,27,M,2021-02-20_12h43.13.739,exp11,2020.2.6,MacIntel,60,,,,,,,,,,,
,,,,,,,,,,,,,,a,1,0.515,space,0.087,0,151,151,165,1,0_targ_10_dist_green/trial16.png,,,0,10,greenverival,a,65,27,M,2021-02-20_12h43.13.739,exp11,2020.2.6,MacIntel,60,,,,,,,,,,,
,,,,,,,,,,,,,,p,1,0.465,space,0.097,0,152,152,21,1,0_dist_green/trial22.png,,,1,0,greenverival,p,65,27,M,2021-02-20_12h43.13.739,exp11,2020.2.6,MacIntel,60,,,,,,,,,,,
,,,,,,,,,,,,,,p,1,0.52,space,0.09,0,153,153,42,1,3_dist_green/trial18.png,,,1,3,greenverival,p,65,27,M,2021-02-20_12h43.13.739,exp11,2020.2.6,MacIntel,60,,,,,,,,,,,
,,,,,,,,,,,,,,p,1,0.709,space,0.074,0,154,154,74,1,9_dist_green/trial25.png,,,1,9,greenverival,p,65,27,M,2021-02-20_12h43.13.739,exp11,2020.2.6,MacIntel,60,,,,,,,,,,,
,,,,,,,,,,,,,,p,1,0.658,space,0.09,0,155,155,62,1,9_dist_green/trial13.png,,,1,9,greenverival,p,65,27,M,2021-02-20_12h43.13.739,exp11,2020.2.6,MacIntel,60,,,,,,,,,,,
,,,,,,,,,,,,,,a,1,0.433,space,0.124,0,156,156,115,1,0_targ_1_dist_green/trial6.png,,,0,1,greenverival,a,65,27,M,2021-02-20_12h43.13.739,exp11,2020.2.6,MacIntel,60,,,,,,,,,,,
,,,,,,,,,,,,,,a,1,0.675,space,0.056,0,157,157,192,1,0_targ_16_dist_green/trial18.png,,,0,16,greenverival,a,65,27,M,2021-02-20_12h43.13.739,exp11,2020.2.6,MacIntel,60,,,,,,,,,,,
,,,,,,,,,,,,,,p,1,0.595,space,0.107,0,158,158,29,1,3_dist_green/trial5.png,,,1,3,greenverival,p,65,27,M,2021-02-20_12h43.13.739,exp11,2020.2.6,MacIntel,60,,,,,,,,,,,
,,,,,,,,,,,,,,a,1,0.727,space,0.105,0,159,159,118,1,0_targ_1_dist_green/trial19.png,,,0,1,greenverival,a,65,27,M,2021-02-20_12h43.13.739,exp11,2020.2.6,MacIntel,60,,,,,,,,,,,
,,,,,,,,,,,,,,a,1,0.627,space,0.055,0,160,160,164,1,0_targ_10_dist_green/trial15.png,,,0,10,greenverival,a,65,27,M,2021-02-20_12h43.13.739,exp11,2020.2.6,MacIntel,60,,,,,,,,,,,
,,,,,,,,,,,,,,p,1,0.649,space,0.08,0,161,161,26,1,3_dist_green/trial2.png,,,1,3,greenverival,p,65,27,M,2021-02-20_12h43.13.739,exp11,2020.2.6,MacIntel,60,,,,,,,,,,,
,,,,,,,,,,,,,,a,1,0.777,space,0.073,0,162,162,146,1,0_targ_4_dist_green/trial22.png,,,0,4,greenverival,a,65,27,M,2021-02-20_12h43.13.739,exp11,2020.2.6,MacIntel,60,,,,,,,,,,,
,,,,,,,,,,,,,,p,1,0.692,space,0.089,0,163,163,64,1,9_dist_green/trial15.png,,,1,9,greenverival,p,65,27,M,2021-02-20_12h43.13.739,exp11,2020.2.6,MacIntel,60,,,,,,,,,,,
,,,,,,,,,,,,,,a,1,0.474,space,0.043,0,164,164,106,1,0_targ_1_dist_green/trial7.png,,,0,1,greenverival,a,65,27,M,2021-02-20_12h43.13.739,exp11,2020.2.6,MacIntel,60,,,,,,,,,,,
,,,,,,,,,,,,,,a,1,0.678,space,0.07,0,165,165,178,1,0_targ_16_dist_green/trial4.png,,,0,16,greenverival,a,65,27,M,2021-02-20_12h43.13.739,exp11,2020.2.6,MacIntel,60,,,,,,,,,,,
,,,,,,,,,,,,,,p,1,0.845,space,0.11,0,166,166,59,1,9_dist_green/trial10.png,,,1,9,greenverival,p,65,27,M,2021-02-20_12h43.13.739,exp11,2020.2.6,MacIntel,60,,,,,,,,,,,
,,,,,,,,,,,,,,p,1,0.866,space,0.336,0,167,167,9,1,0_dist_green/trial10.png,,,1,0,greenverival,p,65,27,M,2021-02-20_12h43.13.739,exp11,2020.2.6,MacIntel,60,,,,,,,,,,,
,,,,,,,,,,,,,,a,1,0.728,space,0.072,0,168,168,141,1,0_targ_4_dist_green/trial17.png,,,0,4,greenverival,a,65,27,M,2021-02-20_12h43.13.739,exp11,2020.2.6,MacIntel,60,,,,,,,,,,,
,,,,,,,,,,,,,,a,1,1.168,space,0.106,0,169,169,129,1,0_targ_4_dist_green/trial5.png,,,0,4,greenverival,a,65,27,M,2021-02-20_12h43.13.739,exp11,2020.2.6,MacIntel,60,,,,,,,,,,,
,,,,,,,,,,,,,,a,1,0.55,space,0.079,0,170,170,147,1,0_targ_4_dist_green/trial23.png,,,0,4,greenverival,a,65,27,M,2021-02-20_12h43.13.739,exp11,2020.2.6,MacIntel,60,,,,,,,,,,,
,,,,,,,,,,,,,,a,1,0.562,space,0.077,0,171,171,150,1,0_targ_10_dist_green/trial1.png,,,0,10,greenverival,a,65,27,M,2021-02-20_12h43.13.739,exp11,2020.2.6,MacIntel,60,,,,,,,,,,,
,,,,,,,,,,,,,,a,1,1.062,space,0.111,0,172,172,163,1,0_targ_10_dist_green/trial14.png,,,0,10,greenverival,a,65,27,M,2021-02-20_12h43.13.739,exp11,2020.2.6,MacIntel,60,,,,,,,,,,,
,,,,,,,,,,,,,,p,1,0.746,space,0.126,0,173,173,18,1,0_dist_green/trial19.png,,,1,0,greenverival,p,65,27,M,2021-02-20_12h43.13.739,exp11,2020.2.6,MacIntel,60,,,,,,,,,,,
,,,,,,,,,,,,,,a,1,0.542,space,0.013,0,174,174,112,1,0_targ_1_dist_green/trial13.png,,,0,1,greenverival,a,65,27,M,2021-02-20_12h43.13.739,exp11,2020.2.6,MacIntel,60,,,,,,,,,,,
,,,,,,,,,,,,,,a,1,0.726,space,0.135,0,175,175,128,1,0_targ_4_dist_green/trial4.png,,,0,4,greenverival,a,65,27,M,2021-02-20_12h43.13.739,exp11,2020.2.6,MacIntel,60,,,,,,,,,,,
,,,,,,,,,,,,,,p,1,0.596,space,0.262,0,176,176,35,1,3_dist_green/trial11.png,,,1,3,greenverival,p,65,27,M,2021-02-20_12h43.13.739,exp11,2020.2.6,MacIntel,60,,,,,,,,,,,
,,,,,,,,,,,,,,a,1,0.431,space,0.103,0,177,177,120,1,0_targ_1_dist_green/trial21.png,,,0,1,greenverival,a,65,27,M,2021-02-20_12h43.13.739,exp11,2020.2.6,MacIntel,60,,,,,,,,,,,
,,,,,,,,,,,,,,p,1,0.715,space,0.162,0,178,178,24,1,0_dist_green/trial25.png,,,1,0,greenverival,p,65,27,M,2021-02-20_12h43.13.739,exp11,2020.2.6,MacIntel,60,,,,,,,,,,,
,,,,,,,,,,,,,,a,1,0.524,space,0.077,0,179,179,191,1,0_targ_16_dist_green/trial17.png,,,0,16,greenverival,a,65,27,M,2021-02-20_12h43.13.739,exp11,2020.2.6,MacIntel,60,,,,,,,,,,,
,,,,,,,,,,,,,,p,1,0.592,space,0.129,0,180,180,76,1,15_dist_green/trial2.png,,,1,15,greenverival,p,65,27,M,2021-02-20_12h43.13.739,exp11,2020.2.6,MacIntel,60,,,,,,,,,,,
,,,,,,,,,,,,,,a,1,0.407,space,0.077,0,181,181,138,1,0_targ_4_dist_green/trial14.png,,,0,4,greenverival,a,65,27,M,2021-02-20_12h43.13.739,exp11,2020.2.6,MacIntel,60,,,,,,,,,,,
,,,,,,,,,,,,,,a,1,0.759,space,0.055,0,182,182,186,1,0_targ_16_dist_green/trial12.png,,,0,16,greenverival,a,65,27,M,2021-02-20_12h43.13.739,exp11,2020.2.6,MacIntel,60,,,,,,,,,,,
,,,,,,,,,,,,,,p,1,0.736,space,0.139,0,183,183,30,1,3_dist_green/trial6.png,,,1,3,greenverival,p,65,27,M,2021-02-20_12h43.13.739,exp11,2020.2.6,MacIntel,60,,,,,,,,,,,
,,,,,,,,,,,,,,p,1,0.693,space,0.11,0,184,184,10,1,0_dist_green/trial11.png,,,1,0,greenverival,p,65,27,M,2021-02-20_12h43.13.739,exp11,2020.2.6,MacIntel,60,,,,,,,,,,,
,,,,,,,,,,,,,,a,1,1.008,space,0.097,0,185,185,199,1,0_targ_16_dist_green/trial25.png,,,0,16,greenverival,a,65,27,M,2021-02-20_12h43.13.739,exp11,2020.2.6,MacIntel,60,,,,,,,,,,,
,,,,,,,,,,,,,,a,1,0.492,space,0.077,0,186,186,133,1,0_targ_4_dist_green/trial9.png,,,0,4,greenverival,a,65,27,M,2021-02-20_12h43.13.739,exp11,2020.2.6,MacIntel,60,,,,,,,,,,,
,,,,,,,,,,,,,,p,1,0.644,space,0.125,0,187,187,77,1,15_dist_green/trial3.png,,,1,15,greenverival,p,65,27,M,2021-02-20_12h43.13.739,exp11,2020.2.6,MacIntel,60,,,,,,,,,,,
,,,,,,,,,,,,,,a,0,0.46,space,0.397,0,188,188,89,1,15_dist_green/trial15.png,,,1,15,greenverival,p,65,27,M,2021-02-20_12h43.13.739,exp11,2020.2.6,MacIntel,60,,,,,,,,,,,
,,,,,,,,,,,,,,a,1,0.028,space,0.84,0,189,189,124,1,0_targ_1_dist_green/trial25.png,,,0,1,greenverival,a,65,27,M,2021-02-20_12h43.13.739,exp11,2020.2.6,MacIntel,60,,,,,,,,,,,
,,,,,,,,,,,,,,a,1,0.584,space,0.105,0,190,190,173,1,0_targ_10_dist_green/trial24.png,,,0,10,greenverival,a,65,27,M,2021-02-20_12h43.13.739,exp11,2020.2.6,MacIntel,60,,,,,,,,,,,
,,,,,,,,,,,,,,p,1,0.66,space,0.111,0,191,191,96,1,15_dist_green/trial22.png,,,1,15,greenverival,p,65,27,M,2021-02-20_12h43.13.739,exp11,2020.2.6,MacIntel,60,,,,,,,,,,,
,,,,,,,,,,,,,,a,1,0.494,space,0.131,0,192,192,145,1,0_targ_4_dist_green/trial21.png,,,0,4,greenverival,a,65,27,M,2021-02-20_12h43.13.739,exp11,2020.2.6,MacIntel,60,,,,,,,,,,,
,,,,,,,,,,,,,,a,1,0.51,space,0.12,0,193,193,152,1,0_targ_10_dist_green/trial3.png,,,0,10,greenverival,a,65,27,M,2021-02-20_12h43.13.739,exp11,2020.2.6,MacIntel,60,,,,,,,,,,,
,,,,,,,,,,,,,,a,1,0.633,space,0.088,0,194,194,159,1,0_targ_10_dist_green/trial10.png,,,0,10,greenverival,a,65,27,M,2021-02-20_12h43.13.739,exp11,2020.2.6,MacIntel,60,,,,,,,,,,,
,,,,,,,,,,,,,,a,1,0.602,space,0.139,0,195,195,110,1,0_targ_1_dist_green/trial11.png,,,0,1,greenverival,a,65,27,M,2021-02-20_12h43.13.739,exp11,2020.2.6,MacIntel,60,,,,,,,,,,,
,,,,,,,,,,,,,,p,1,0.792,space,0.141,0,196,196,20,1,0_dist_green/trial21.png,,,1,0,greenverival,p,65,27,M,2021-02-20_12h43.13.739,exp11,2020.2.6,MacIntel,60,,,,,,,,,,,
,,,,,,,,,,,,,,a,1,0.728,space,0.104,0,197,197,181,1,0_targ_16_dist_green/trial7.png,,,0,16,greenverival,a,65,27,M,2021-02-20_12h43.13.739,exp11,2020.2.6,MacIntel,60,,,,,,,,,,,
,,,,,,,,,,,,,,p,1,0.863,space,0.107,0,198,198,53,1,9_dist_green/trial4.png,,,1,9,greenverival,p,65,27,M,2021-02-20_12h43.13.739,exp11,2020.2.6,MacIntel,60,,,,,,,,,,,
,,,,,,,,,,,,,,a,1,0.863,space,0.438,0,199,199,187,1,0_targ_16_dist_green/trial13.png,,,0,16,greenverival,a,65,27,M,2021-02-20_12h43.13.739,exp11,2020.2.6,MacIntel,60,,,,,,,,,,,
,,,,,,,,,,,,,,,,,,,,,,,,,,,,,,,65,27,M,2021-02-20_12h43.13.739,exp11,2020.2.6,MacIntel,60,0,1,1,0,1,conGreen.xlsx,green vertical,Look for green vertical bar (target) and indicate if it is present or absent in the array. If green vertical target is present press 'p' and if absent press 'a'. Press SPACE to start.,,,
