key_resp_6.keys,key_resp_6.rt,key_resp_7.keys,key_resp_7.rt,key_resp_8.keys,key_resp_8.rt,key_resp_10.keys,key_resp_10.rt,key_resp_9.keys,key_resp_9.rt,key_resp_3.keys,key_resp_3.rt,key_resp_5.keys,key_resp_5.rt,key_resp.keys,key_resp.corr,key_resp.rt,key_resp_4.keys,key_resp_4.rt,trials.thisRepN,trials.thisTrialN,trials.thisN,trials.thisIndex,trials.ran,ImageFile,tarPos,tarSize,targPres,numDist,targetName,correctAns,participant,age,sex,date,expName,psychopyVersion,OS,frameRate,trials_2.thisRepN,trials_2.thisTrialN,trials_2.thisN,trials_2.thisIndex,trials_2.ran,condsFile,targName,instructionText,colTarget,sizeTarg,posit
space,0.848,space,0.335,space,0.405,space,0.343,space,0.525,space,27.44,space,7.284,a,1,0.771,space,4.785,0,0,0,119,1,0_targ_1_dist_red/trial20.png,,,0,1,redHorizontal,a,68,23,M,2021-02-25_21h00.11.728,exp11,2020.2.6,MacIntel,60,,,,,,,,,,,
,,,,,,,,,,,,,,p,1,0.428,space,0.748,0,1,1,0,1,0_dist_red/trial1.png,,,1,0,redHorizontal,p,68,23,M,2021-02-25_21h00.11.728,exp11,2020.2.6,MacIntel,60,,,,,,,,,,,
,,,,,,,,,,,,,,p,1,0.823,space,0.759,0,2,2,25,1,3_dist_red/trial1.png,,,1,3,redHorizontal,p,68,23,M,2021-02-25_21h00.11.728,exp11,2020.2.6,MacIntel,60,,,,,,,,,,,
,,,,,,,,,,,,,,p,1,0.517,space,0.373,0,3,3,61,1,9_dist_red/trial12.png,,,1,9,redHorizontal,p,68,23,M,2021-02-25_21h00.11.728,exp11,2020.2.6,MacIntel,60,,,,,,,,,,,
,,,,,,,,,,,,,,p,0,0.513,space,2.963,0,4,4,130,1,0_targ_4_dist_red/trial6.png,,,0,4,redHorizontal,a,68,23,M,2021-02-25_21h00.11.728,exp11,2020.2.6,MacIntel,60,,,,,,,,,,,
,,,,,,,,,,,,,,a,1,0.793,space,0.449,0,5,5,175,1,0_targ_16_dist_red/trial1.png,,,0,16,redHorizontal,a,68,23,M,2021-02-25_21h00.11.728,exp11,2020.2.6,MacIntel,60,,,,,,,,,,,
,,,,,,,,,,,,,,a,1,0.726,space,0.29,0,6,6,122,1,0_targ_1_dist_red/trial23.png,,,0,1,redHorizontal,a,68,23,M,2021-02-25_21h00.11.728,exp11,2020.2.6,MacIntel,60,,,,,,,,,,,
,,,,,,,,,,,,,,p,1,0.65,space,0.271,0,7,7,43,1,3_dist_red/trial19.png,,,1,3,redHorizontal,p,68,23,M,2021-02-25_21h00.11.728,exp11,2020.2.6,MacIntel,60,,,,,,,,,,,
,,,,,,,,,,,,,,a,1,0.661,space,0.157,0,8,8,134,1,0_targ_4_dist_red/trial10.png,,,0,4,redHorizontal,a,68,23,M,2021-02-25_21h00.11.728,exp11,2020.2.6,MacIntel,60,,,,,,,,,,,
,,,,,,,,,,,,,,a,1,0.827,space,0.431,0,9,9,128,1,0_targ_4_dist_red/trial4.png,,,0,4,redHorizontal,a,68,23,M,2021-02-25_21h00.11.728,exp11,2020.2.6,MacIntel,60,,,,,,,,,,,
,,,,,,,,,,,,,,a,1,0.646,space,0.141,0,10,10,109,1,0_targ_1_dist_red/trial10.png,,,0,1,redHorizontal,a,68,23,M,2021-02-25_21h00.11.728,exp11,2020.2.6,MacIntel,60,,,,,,,,,,,
,,,,,,,,,,,,,,a,1,0.694,space,0.11,0,11,11,188,1,0_targ_16_dist_red/trial14.png,,,0,16,redHorizontal,a,68,23,M,2021-02-25_21h00.11.728,exp11,2020.2.6,MacIntel,60,,,,,,,,,,,
,,,,,,,,,,,,,,p,1,0.711,space,0.092,0,12,12,49,1,3_dist_red/trial25.png,,,1,3,redHorizontal,p,68,23,M,2021-02-25_21h00.11.728,exp11,2020.2.6,MacIntel,60,,,,,,,,,,,
,,,,,,,,,,,,,,a,1,0.662,space,0.073,0,13,13,137,1,0_targ_4_dist_red/trial13.png,,,0,4,redHorizontal,a,68,23,M,2021-02-25_21h00.11.728,exp11,2020.2.6,MacIntel,60,,,,,,,,,,,
,,,,,,,,,,,,,,p,1,1.133,space,0.089,0,14,14,82,1,15_dist_red/trial8.png,,,1,15,redHorizontal,p,68,23,M,2021-02-25_21h00.11.728,exp11,2020.2.6,MacIntel,60,,,,,,,,,,,
,,,,,,,,,,,,,,a,1,1.251,space,0.138,0,15,15,159,1,0_targ_10_dist_red/trial10.png,,,0,10,redHorizontal,a,68,23,M,2021-02-25_21h00.11.728,exp11,2020.2.6,MacIntel,60,,,,,,,,,,,
,,,,,,,,,,,,,,a,1,0.854,space,0.071,0,16,16,101,1,0_targ_1_dist_red/trial2.png,,,0,1,redHorizontal,a,68,23,M,2021-02-25_21h00.11.728,exp11,2020.2.6,MacIntel,60,,,,,,,,,,,
,,,,,,,,,,,,,,a,1,0.541,space,0.091,0,17,17,148,1,0_targ_4_dist_red/trial24.png,,,0,4,redHorizontal,a,68,23,M,2021-02-25_21h00.11.728,exp11,2020.2.6,MacIntel,60,,,,,,,,,,,
,,,,,,,,,,,,,,a,1,0.599,space,0.086,0,18,18,181,1,0_targ_16_dist_red/trial7.png,,,0,16,redHorizontal,a,68,23,M,2021-02-25_21h00.11.728,exp11,2020.2.6,MacIntel,60,,,,,,,,,,,
,,,,,,,,,,,,,,a,1,0.826,space,0.062,0,19,19,170,1,0_targ_10_dist_red/trial21.png,,,0,10,redHorizontal,a,68,23,M,2021-02-25_21h00.11.728,exp11,2020.2.6,MacIntel,60,,,,,,,,,,,
,,,,,,,,,,,,,,a,1,0.625,space,0.056,0,20,20,151,1,0_targ_10_dist_red/trial2.png,,,0,10,redHorizontal,a,68,23,M,2021-02-25_21h00.11.728,exp11,2020.2.6,MacIntel,60,,,,,,,,,,,
,,,,,,,,,,,,,,a,1,0.579,space,0.069,0,21,21,190,1,0_targ_16_dist_red/trial16.png,,,0,16,redHorizontal,a,68,23,M,2021-02-25_21h00.11.728,exp11,2020.2.6,MacIntel,60,,,,,,,,,,,
,,,,,,,,,,,,,,p,1,0.655,space,0.206,0,22,22,77,1,15_dist_red/trial3.png,,,1,15,redHorizontal,p,68,23,M,2021-02-25_21h00.11.728,exp11,2020.2.6,MacIntel,60,,,,,,,,,,,
,,,,,,,,,,,,,,a,1,0.561,space,0.09,0,23,23,129,1,0_targ_4_dist_red/trial5.png,,,0,4,redHorizontal,a,68,23,M,2021-02-25_21h00.11.728,exp11,2020.2.6,MacIntel,60,,,,,,,,,,,
,,,,,,,,,,,,,,p,1,0.642,space,0.072,0,24,24,47,1,3_dist_red/trial23.png,,,1,3,redHorizontal,p,68,23,M,2021-02-25_21h00.11.728,exp11,2020.2.6,MacIntel,60,,,,,,,,,,,
,,,,,,,,,,,,,,a,0,0.729,space,0.321,0,25,25,80,1,15_dist_red/trial6.png,,,1,15,redHorizontal,p,68,23,M,2021-02-25_21h00.11.728,exp11,2020.2.6,MacIntel,60,,,,,,,,,,,
,,,,,,,,,,,,,,a,1,0.909,space,0.045,0,26,26,179,1,0_targ_16_dist_red/trial5.png,,,0,16,redHorizontal,a,68,23,M,2021-02-25_21h00.11.728,exp11,2020.2.6,MacIntel,60,,,,,,,,,,,
,,,,,,,,,,,,,,p,1,1.948,space,0.061,0,27,27,36,1,3_dist_red/trial12.png,,,1,3,redHorizontal,p,68,23,M,2021-02-25_21h00.11.728,exp11,2020.2.6,MacIntel,60,,,,,,,,,,,
,,,,,,,,,,,,,,a,0,0.928,space,2.148,0,28,28,70,1,9_dist_red/trial21.png,,,1,9,redHorizontal,p,68,23,M,2021-02-25_21h00.11.728,exp11,2020.2.6,MacIntel,60,,,,,,,,,,,
,,,,,,,,,,,,,,a,1,0.783,space,0.065,0,29,29,180,1,0_targ_16_dist_red/trial6.png,,,0,16,redHorizontal,a,68,23,M,2021-02-25_21h00.11.728,exp11,2020.2.6,MacIntel,60,,,,,,,,,,,
,,,,,,,,,,,,,,p,1,0.926,space,0.039,0,30,30,7,1,0_dist_red/trial8.png,,,1,0,redHorizontal,p,68,23,M,2021-02-25_21h00.11.728,exp11,2020.2.6,MacIntel,60,,,,,,,,,,,
,,,,,,,,,,,,,,p,1,0.925,space,0.053,0,31,31,93,1,15_dist_red/trial19.png,,,1,15,redHorizontal,p,68,23,M,2021-02-25_21h00.11.728,exp11,2020.2.6,MacIntel,60,,,,,,,,,,,
,,,,,,,,,,,,,,a,0,0.849,space,1.174,0,32,32,59,1,9_dist_red/trial10.png,,,1,9,redHorizontal,p,68,23,M,2021-02-25_21h00.11.728,exp11,2020.2.6,MacIntel,60,,,,,,,,,,,
,,,,,,,,,,,,,,p,1,0.924,space,0.026,0,33,33,85,1,15_dist_red/trial11.png,,,1,15,redHorizontal,p,68,23,M,2021-02-25_21h00.11.728,exp11,2020.2.6,MacIntel,60,,,,,,,,,,,
,,,,,,,,,,,,,,a,1,0.928,space,0.08,0,34,34,164,1,0_targ_10_dist_red/trial15.png,,,0,10,redHorizontal,a,68,23,M,2021-02-25_21h00.11.728,exp11,2020.2.6,MacIntel,60,,,,,,,,,,,
,,,,,,,,,,,,,,a,1,0.591,space,0.072,0,35,35,142,1,0_targ_4_dist_red/trial18.png,,,0,4,redHorizontal,a,68,23,M,2021-02-25_21h00.11.728,exp11,2020.2.6,MacIntel,60,,,,,,,,,,,
,,,,,,,,,,,,,,a,1,0.61,space,0.056,0,36,36,136,1,0_targ_4_dist_red/trial12.png,,,0,4,redHorizontal,a,68,23,M,2021-02-25_21h00.11.728,exp11,2020.2.6,MacIntel,60,,,,,,,,,,,
,,,,,,,,,,,,,,a,0,0.724,space,0.338,0,37,37,12,1,0_dist_red/trial13.png,,,1,0,redHorizontal,p,68,23,M,2021-02-25_21h00.11.728,exp11,2020.2.6,MacIntel,60,,,,,,,,,,,
,,,,,,,,,,,,,,a,1,0.693,space,0.086,0,38,38,107,1,0_targ_1_dist_red/trial8.png,,,0,1,redHorizontal,a,68,23,M,2021-02-25_21h00.11.728,exp11,2020.2.6,MacIntel,60,,,,,,,,,,,
,,,,,,,,,,,,,,a,1,0.895,space,0.035,0,39,39,149,1,0_targ_4_dist_red/trial25.png,,,0,4,redHorizontal,a,68,23,M,2021-02-25_21h00.11.728,exp11,2020.2.6,MacIntel,60,,,,,,,,,,,
,,,,,,,,,,,,,,p,1,0.782,space,0.026,0,40,40,69,1,9_dist_red/trial20.png,,,1,9,redHorizontal,p,68,23,M,2021-02-25_21h00.11.728,exp11,2020.2.6,MacIntel,60,,,,,,,,,,,
,,,,,,,,,,,,,,p,1,0.648,space,0.019,0,41,41,4,1,0_dist_red/trial5.png,,,1,0,redHorizontal,p,68,23,M,2021-02-25_21h00.11.728,exp11,2020.2.6,MacIntel,60,,,,,,,,,,,
,,,,,,,,,,,,,,a,1,0.642,space,0.059,0,42,42,166,1,0_targ_10_dist_red/trial17.png,,,0,10,redHorizontal,a,68,23,M,2021-02-25_21h00.11.728,exp11,2020.2.6,MacIntel,60,,,,,,,,,,,
,,,,,,,,,,,,,,a,1,0.525,space,0.076,0,43,43,103,1,0_targ_1_dist_red/trial4.png,,,0,1,redHorizontal,a,68,23,M,2021-02-25_21h00.11.728,exp11,2020.2.6,MacIntel,60,,,,,,,,,,,
,,,,,,,,,,,,,,a,1,0.534,space,0.058,0,44,44,191,1,0_targ_16_dist_red/trial17.png,,,0,16,redHorizontal,a,68,23,M,2021-02-25_21h00.11.728,exp11,2020.2.6,MacIntel,60,,,,,,,,,,,
,,,,,,,,,,,,,,p,1,0.675,space,0.021,0,45,45,53,1,9_dist_red/trial4.png,,,1,9,redHorizontal,p,68,23,M,2021-02-25_21h00.11.728,exp11,2020.2.6,MacIntel,60,,,,,,,,,,,
,,,,,,,,,,,,,,p,1,0.652,space,0.023,0,46,46,42,1,3_dist_red/trial18.png,,,1,3,redHorizontal,p,68,23,M,2021-02-25_21h00.11.728,exp11,2020.2.6,MacIntel,60,,,,,,,,,,,
,,,,,,,,,,,,,,a,1,0.627,space,0.072,0,47,47,132,1,0_targ_4_dist_red/trial8.png,,,0,4,redHorizontal,a,68,23,M,2021-02-25_21h00.11.728,exp11,2020.2.6,MacIntel,60,,,,,,,,,,,
,,,,,,,,,,,,,,a,1,0.812,space,0.035,0,48,48,197,1,0_targ_16_dist_red/trial23.png,,,0,16,redHorizontal,a,68,23,M,2021-02-25_21h00.11.728,exp11,2020.2.6,MacIntel,60,,,,,,,,,,,
,,,,,,,,,,,,,,a,1,0.931,space,0.029,0,49,49,125,1,0_targ_4_dist_red/trial1.png,,,0,4,redHorizontal,a,68,23,M,2021-02-25_21h00.11.728,exp11,2020.2.6,MacIntel,60,,,,,,,,,,,
,,,,,,,,,,,,,,a,0,0.82,space,0.556,0,50,50,94,1,15_dist_red/trial20.png,,,1,15,redHorizontal,p,68,23,M,2021-02-25_21h00.11.728,exp11,2020.2.6,MacIntel,60,,,,,,,,,,,
,,,,,,,,,,,,,,p,1,0.684,space,0.016,0,51,51,20,1,0_dist_red/trial21.png,,,1,0,redHorizontal,p,68,23,M,2021-02-25_21h00.11.728,exp11,2020.2.6,MacIntel,60,,,,,,,,,,,
,,,,,,,,,,,,,,a,1,0.926,space,0.038,0,52,52,187,1,0_targ_16_dist_red/trial13.png,,,0,16,redHorizontal,a,68,23,M,2021-02-25_21h00.11.728,exp11,2020.2.6,MacIntel,60,,,,,,,,,,,
,,,,,,,,,,,,,,a,1,0.583,space,0.072,0,53,53,104,1,0_targ_1_dist_red/trial5.png,,,0,1,redHorizontal,a,68,23,M,2021-02-25_21h00.11.728,exp11,2020.2.6,MacIntel,60,,,,,,,,,,,
,,,,,,,,,,,,,,a,1,0.575,space,0.047,0,54,54,184,1,0_targ_16_dist_red/trial10.png,,,0,16,redHorizontal,a,68,23,M,2021-02-25_21h00.11.728,exp11,2020.2.6,MacIntel,60,,,,,,,,,,,
,,,,,,,,,,,,,,a,1,0.668,space,0.054,0,55,55,138,1,0_targ_4_dist_red/trial14.png,,,0,4,redHorizontal,a,68,23,M,2021-02-25_21h00.11.728,exp11,2020.2.6,MacIntel,60,,,,,,,,,,,
,,,,,,,,,,,,,,a,1,0.757,space,0.022,0,56,56,183,1,0_targ_16_dist_red/trial9.png,,,0,16,redHorizontal,a,68,23,M,2021-02-25_21h00.11.728,exp11,2020.2.6,MacIntel,60,,,,,,,,,,,
,,,,,,,,,,,,,,p,1,0.595,space,0.022,0,57,57,29,1,3_dist_red/trial5.png,,,1,3,redHorizontal,p,68,23,M,2021-02-25_21h00.11.728,exp11,2020.2.6,MacIntel,60,,,,,,,,,,,
,,,,,,,,,,,,,,a,0,0.492,space,0.411,0,58,58,31,1,3_dist_red/trial7.png,,,1,3,redHorizontal,p,68,23,M,2021-02-25_21h00.11.728,exp11,2020.2.6,MacIntel,60,,,,,,,,,,,
,,,,,,,,,,,,,,p,1,0.629,space,0.019,0,59,59,96,1,15_dist_red/trial22.png,,,1,15,redHorizontal,p,68,23,M,2021-02-25_21h00.11.728,exp11,2020.2.6,MacIntel,60,,,,,,,,,,,
,,,,,,,,,,,,,,p,1,0.527,space,0.037,0,60,60,44,1,3_dist_red/trial20.png,,,1,3,redHorizontal,p,68,23,M,2021-02-25_21h00.11.728,exp11,2020.2.6,MacIntel,60,,,,,,,,,,,
,,,,,,,,,,,,,,p,1,0.792,space,0.014,0,61,61,26,1,3_dist_red/trial2.png,,,1,3,redHorizontal,p,68,23,M,2021-02-25_21h00.11.728,exp11,2020.2.6,MacIntel,60,,,,,,,,,,,
,,,,,,,,,,,,,,a,1,0.755,space,0.04,0,62,62,177,1,0_targ_16_dist_red/trial3.png,,,0,16,redHorizontal,a,68,23,M,2021-02-25_21h00.11.728,exp11,2020.2.6,MacIntel,60,,,,,,,,,,,
,,,,,,,,,,,,,,p,1,0.56,space,0.106,0,63,63,48,1,3_dist_red/trial24.png,,,1,3,redHorizontal,p,68,23,M,2021-02-25_21h00.11.728,exp11,2020.2.6,MacIntel,60,,,,,,,,,,,
,,,,,,,,,,,,,,p,1,1.128,space,0.039,0,64,64,32,1,3_dist_red/trial8.png,,,1,3,redHorizontal,p,68,23,M,2021-02-25_21h00.11.728,exp11,2020.2.6,MacIntel,60,,,,,,,,,,,
,,,,,,,,,,,,,,a,0,0.81,space,0.222,0,65,65,68,1,9_dist_red/trial19.png,,,1,9,redHorizontal,p,68,23,M,2021-02-25_21h00.11.728,exp11,2020.2.6,MacIntel,60,,,,,,,,,,,
,,,,,,,,,,,,,,a,1,1.886,space,0.026,0,66,66,155,1,0_targ_10_dist_red/trial6.png,,,0,10,redHorizontal,a,68,23,M,2021-02-25_21h00.11.728,exp11,2020.2.6,MacIntel,60,,,,,,,,,,,
,,,,,,,,,,,,,,a,1,0.658,space,0.043,0,67,67,157,1,0_targ_10_dist_red/trial8.png,,,0,10,redHorizontal,a,68,23,M,2021-02-25_21h00.11.728,exp11,2020.2.6,MacIntel,60,,,,,,,,,,,
,,,,,,,,,,,,,,a,1,0.613,space,0.053,0,68,68,162,1,0_targ_10_dist_red/trial13.png,,,0,10,redHorizontal,a,68,23,M,2021-02-25_21h00.11.728,exp11,2020.2.6,MacIntel,60,,,,,,,,,,,
,,,,,,,,,,,,,,p,1,0.575,space,0.072,0,69,69,18,1,0_dist_red/trial19.png,,,1,0,redHorizontal,p,68,23,M,2021-02-25_21h00.11.728,exp11,2020.2.6,MacIntel,60,,,,,,,,,,,
,,,,,,,,,,,,,,a,1,0.645,space,0.057,0,70,70,131,1,0_targ_4_dist_red/trial7.png,,,0,4,redHorizontal,a,68,23,M,2021-02-25_21h00.11.728,exp11,2020.2.6,MacIntel,60,,,,,,,,,,,
,,,,,,,,,,,,,,a,1,0.69,space,0.025,0,71,71,126,1,0_targ_4_dist_red/trial2.png,,,0,4,redHorizontal,a,68,23,M,2021-02-25_21h00.11.728,exp11,2020.2.6,MacIntel,60,,,,,,,,,,,
,,,,,,,,,,,,,,a,1,0.562,space,0.042,0,72,72,108,1,0_targ_1_dist_red/trial9.png,,,0,1,redHorizontal,a,68,23,M,2021-02-25_21h00.11.728,exp11,2020.2.6,MacIntel,60,,,,,,,,,,,
,,,,,,,,,,,,,,p,1,0.696,space,0.044,0,73,73,56,1,9_dist_red/trial7.png,,,1,9,redHorizontal,p,68,23,M,2021-02-25_21h00.11.728,exp11,2020.2.6,MacIntel,60,,,,,,,,,,,
,,,,,,,,,,,,,,a,1,0.692,space,0.02,0,74,74,145,1,0_targ_4_dist_red/trial21.png,,,0,4,redHorizontal,a,68,23,M,2021-02-25_21h00.11.728,exp11,2020.2.6,MacIntel,60,,,,,,,,,,,
,,,,,,,,,,,,,,a,1,0.595,space,0.06,0,75,75,168,1,0_targ_10_dist_red/trial19.png,,,0,10,redHorizontal,a,68,23,M,2021-02-25_21h00.11.728,exp11,2020.2.6,MacIntel,60,,,,,,,,,,,
,,,,,,,,,,,,,,a,1,0.627,space,0.044,0,76,76,161,1,0_targ_10_dist_red/trial12.png,,,0,10,redHorizontal,a,68,23,M,2021-02-25_21h00.11.728,exp11,2020.2.6,MacIntel,60,,,,,,,,,,,
,,,,,,,,,,,,,,a,1,0.461,space,0.037,0,77,77,110,1,0_targ_1_dist_red/trial11.png,,,0,1,redHorizontal,a,68,23,M,2021-02-25_21h00.11.728,exp11,2020.2.6,MacIntel,60,,,,,,,,,,,
,,,,,,,,,,,,,,a,0,0.414,space,0.136,0,78,78,6,1,0_dist_red/trial7.png,,,1,0,redHorizontal,p,68,23,M,2021-02-25_21h00.11.728,exp11,2020.2.6,MacIntel,60,,,,,,,,,,,
,,,,,,,,,,,,,,a,1,0.554,space,0.015,0,79,79,146,1,0_targ_4_dist_red/trial22.png,,,0,4,redHorizontal,a,68,23,M,2021-02-25_21h00.11.728,exp11,2020.2.6,MacIntel,60,,,,,,,,,,,
,,,,,,,,,,,,,,a,1,0.549,space,0.02,0,80,80,176,1,0_targ_16_dist_red/trial2.png,,,0,16,redHorizontal,a,68,23,M,2021-02-25_21h00.11.728,exp11,2020.2.6,MacIntel,60,,,,,,,,,,,
,,,,,,,,,,,,,,p,1,0.745,space,0.024,0,81,81,38,1,3_dist_red/trial14.png,,,1,3,redHorizontal,p,68,23,M,2021-02-25_21h00.11.728,exp11,2020.2.6,MacIntel,60,,,,,,,,,,,
,,,,,,,,,,,,,,a,1,1.498,space,0.038,0,82,82,118,1,0_targ_1_dist_red/trial19.png,,,0,1,redHorizontal,a,68,23,M,2021-02-25_21h00.11.728,exp11,2020.2.6,MacIntel,60,,,,,,,,,,,
,,,,,,,,,,,,,,a,1,0.662,space,0.023,0,83,83,186,1,0_targ_16_dist_red/trial12.png,,,0,16,redHorizontal,a,68,23,M,2021-02-25_21h00.11.728,exp11,2020.2.6,MacIntel,60,,,,,,,,,,,
,,,,,,,,,,,,,,p,1,0.658,space,0.023,0,84,84,37,1,3_dist_red/trial13.png,,,1,3,redHorizontal,p,68,23,M,2021-02-25_21h00.11.728,exp11,2020.2.6,MacIntel,60,,,,,,,,,,,
,,,,,,,,,,,,,,a,1,0.552,space,0.062,0,85,85,193,1,0_targ_16_dist_red/trial19.png,,,0,16,redHorizontal,a,68,23,M,2021-02-25_21h00.11.728,exp11,2020.2.6,MacIntel,60,,,,,,,,,,,
,,,,,,,,,,,,,,p,1,0.646,space,0.04,0,86,86,16,1,0_dist_red/trial17.png,,,1,0,redHorizontal,p,68,23,M,2021-02-25_21h00.11.728,exp11,2020.2.6,MacIntel,60,,,,,,,,,,,
,,,,,,,,,,,,,,p,1,0.544,space,0.053,0,87,87,9,1,0_dist_red/trial10.png,,,1,0,redHorizontal,p,68,23,M,2021-02-25_21h00.11.728,exp11,2020.2.6,MacIntel,60,,,,,,,,,,,
,,,,,,,,,,,,,,a,1,0.621,space,0.042,0,88,88,171,1,0_targ_10_dist_red/trial22.png,,,0,10,redHorizontal,a,68,23,M,2021-02-25_21h00.11.728,exp11,2020.2.6,MacIntel,60,,,,,,,,,,,
,,,,,,,,,,,,,,p,1,0.598,space,0.038,0,89,89,35,1,3_dist_red/trial11.png,,,1,3,redHorizontal,p,68,23,M,2021-02-25_21h00.11.728,exp11,2020.2.6,MacIntel,60,,,,,,,,,,,
,,,,,,,,,,,,,,a,1,0.445,space,0.061,0,90,90,102,1,0_targ_1_dist_red/trial3.png,,,0,1,redHorizontal,a,68,23,M,2021-02-25_21h00.11.728,exp11,2020.2.6,MacIntel,60,,,,,,,,,,,
,,,,,,,,,,,,,,p,1,0.782,space,0.043,0,91,91,78,1,15_dist_red/trial4.png,,,1,15,redHorizontal,p,68,23,M,2021-02-25_21h00.11.728,exp11,2020.2.6,MacIntel,60,,,,,,,,,,,
,,,,,,,,,,,,,,p,1,0.685,space,0.002,0,92,92,97,1,15_dist_red/trial23.png,,,1,15,redHorizontal,p,68,23,M,2021-02-25_21h00.11.728,exp11,2020.2.6,MacIntel,60,,,,,,,,,,,
,,,,,,,,,,,,,,a,1,0.726,space,0.023,0,93,93,105,1,0_targ_1_dist_red/trial6.png,,,0,1,redHorizontal,a,68,23,M,2021-02-25_21h00.11.728,exp11,2020.2.6,MacIntel,60,,,,,,,,,,,
,,,,,,,,,,,,,,p,1,0.641,space,0.019,0,94,94,72,1,9_dist_red/trial23.png,,,1,9,redHorizontal,p,68,23,M,2021-02-25_21h00.11.728,exp11,2020.2.6,MacIntel,60,,,,,,,,,,,
,,,,,,,,,,,,,,a,1,0.792,space,0.021,0,95,95,154,1,0_targ_10_dist_red/trial5.png,,,0,10,redHorizontal,a,68,23,M,2021-02-25_21h00.11.728,exp11,2020.2.6,MacIntel,60,,,,,,,,,,,
,,,,,,,,,,,,,,p,1,0.635,space,0.014,0,96,96,62,1,9_dist_red/trial13.png,,,1,9,redHorizontal,p,68,23,M,2021-02-25_21h00.11.728,exp11,2020.2.6,MacIntel,60,,,,,,,,,,,
,,,,,,,,,,,,,,a,1,0.699,space,0.039,0,97,97,178,1,0_targ_16_dist_red/trial4.png,,,0,16,redHorizontal,a,68,23,M,2021-02-25_21h00.11.728,exp11,2020.2.6,MacIntel,60,,,,,,,,,,,
,,,,,,,,,,,,,,a,1,0.693,space,0.494,0,98,98,160,1,0_targ_10_dist_red/trial11.png,,,0,10,redHorizontal,a,68,23,M,2021-02-25_21h00.11.728,exp11,2020.2.6,MacIntel,60,,,,,,,,,,,
,,,,,,,,,,,,,,p,1,0.678,space,0.021,0,99,99,87,1,15_dist_red/trial13.png,,,1,15,redHorizontal,p,68,23,M,2021-02-25_21h00.11.728,exp11,2020.2.6,MacIntel,60,,,,,,,,,,,
,,,,,,,,,,,,,,p,1,0.62,space,0.024,0,100,100,57,1,9_dist_red/trial8.png,,,1,9,redHorizontal,p,68,23,M,2021-02-25_21h00.11.728,exp11,2020.2.6,MacIntel,60,,,,,,,,,,,
,,,,,,,,,,,,,,p,1,0.53,space,0.022,0,101,101,64,1,9_dist_red/trial15.png,,,1,9,redHorizontal,p,68,23,M,2021-02-25_21h00.11.728,exp11,2020.2.6,MacIntel,60,,,,,,,,,,,
,,,,,,,,,,,,,,a,1,1.079,space,0.008,0,102,102,165,1,0_targ_10_dist_red/trial16.png,,,0,10,redHorizontal,a,68,23,M,2021-02-25_21h00.11.728,exp11,2020.2.6,MacIntel,60,,,,,,,,,,,
,,,,,,,,,,,,,,a,1,0.843,space,0.024,0,103,103,163,1,0_targ_10_dist_red/trial14.png,,,0,10,redHorizontal,a,68,23,M,2021-02-25_21h00.11.728,exp11,2020.2.6,MacIntel,60,,,,,,,,,,,
,,,,,,,,,,,,,,a,1,0.811,space,0.009,0,104,104,141,1,0_targ_4_dist_red/trial17.png,,,0,4,redHorizontal,a,68,23,M,2021-02-25_21h00.11.728,exp11,2020.2.6,MacIntel,60,,,,,,,,,,,
,,,,,,,,,,,,,,a,0,0.528,space,0.445,0,105,105,90,1,15_dist_red/trial16.png,,,1,15,redHorizontal,p,68,23,M,2021-02-25_21h00.11.728,exp11,2020.2.6,MacIntel,60,,,,,,,,,,,
,,,,,,,,,,,,,,a,1,0.944,space,1.393,0,106,106,150,1,0_targ_10_dist_red/trial1.png,,,0,10,redHorizontal,a,68,23,M,2021-02-25_21h00.11.728,exp11,2020.2.6,MacIntel,60,,,,,,,,,,,
,,,,,,,,,,,,,,p,1,0.557,space,0.037,0,107,107,13,1,0_dist_red/trial14.png,,,1,0,redHorizontal,p,68,23,M,2021-02-25_21h00.11.728,exp11,2020.2.6,MacIntel,60,,,,,,,,,,,
,,,,,,,,,,,,,,a,1,0.711,space,0.028,0,108,108,135,1,0_targ_4_dist_red/trial11.png,,,0,4,redHorizontal,a,68,23,M,2021-02-25_21h00.11.728,exp11,2020.2.6,MacIntel,60,,,,,,,,,,,
,,,,,,,,,,,,,,p,1,1.517,space,0.044,0,109,109,14,1,0_dist_red/trial15.png,,,1,0,redHorizontal,p,68,23,M,2021-02-25_21h00.11.728,exp11,2020.2.6,MacIntel,60,,,,,,,,,,,
,,,,,,,,,,,,,,p,1,0.713,space,0.021,0,110,110,76,1,15_dist_red/trial2.png,,,1,15,redHorizontal,p,68,23,M,2021-02-25_21h00.11.728,exp11,2020.2.6,MacIntel,60,,,,,,,,,,,
,,,,,,,,,,,,,,p,1,0.76,space,0.024,0,111,111,51,1,9_dist_red/trial2.png,,,1,9,redHorizontal,p,68,23,M,2021-02-25_21h00.11.728,exp11,2020.2.6,MacIntel,60,,,,,,,,,,,
,,,,,,,,,,,,,,p,1,0.836,space,0.023,0,112,112,21,1,0_dist_red/trial22.png,,,1,0,redHorizontal,p,68,23,M,2021-02-25_21h00.11.728,exp11,2020.2.6,MacIntel,60,,,,,,,,,,,
,,,,,,,,,,,,,,p,1,1.123,space,0.003,0,113,113,98,1,15_dist_red/trial24.png,,,1,15,redHorizontal,p,68,23,M,2021-02-25_21h00.11.728,exp11,2020.2.6,MacIntel,60,,,,,,,,,,,
,,,,,,,,,,,,,,p,1,0.763,space,0.012,0,114,114,40,1,3_dist_red/trial16.png,,,1,3,redHorizontal,p,68,23,M,2021-02-25_21h00.11.728,exp11,2020.2.6,MacIntel,60,,,,,,,,,,,
,,,,,,,,,,,,,,p,1,0.569,space,0.034,0,115,115,41,1,3_dist_red/trial17.png,,,1,3,redHorizontal,p,68,23,M,2021-02-25_21h00.11.728,exp11,2020.2.6,MacIntel,60,,,,,,,,,,,
,,,,,,,,,,,,,,p,1,0.576,space,0.012,0,116,116,24,1,0_dist_red/trial25.png,,,1,0,redHorizontal,p,68,23,M,2021-02-25_21h00.11.728,exp11,2020.2.6,MacIntel,60,,,,,,,,,,,
,,,,,,,,,,,,,,p,1,0.775,space,0.005,0,117,117,86,1,15_dist_red/trial12.png,,,1,15,redHorizontal,p,68,23,M,2021-02-25_21h00.11.728,exp11,2020.2.6,MacIntel,60,,,,,,,,,,,
,,,,,,,,,,,,,,p,1,0.671,space,0.011,0,118,118,39,1,3_dist_red/trial15.png,,,1,3,redHorizontal,p,68,23,M,2021-02-25_21h00.11.728,exp11,2020.2.6,MacIntel,60,,,,,,,,,,,
,,,,,,,,,,,,,,p,1,0.561,space,0.009,0,119,119,1,1,0_dist_red/trial2.png,,,1,0,redHorizontal,p,68,23,M,2021-02-25_21h00.11.728,exp11,2020.2.6,MacIntel,60,,,,,,,,,,,
,,,,,,,,,,,,,,a,1,1.245,space,0.026,0,120,120,112,1,0_targ_1_dist_red/trial13.png,,,0,1,redHorizontal,a,68,23,M,2021-02-25_21h00.11.728,exp11,2020.2.6,MacIntel,60,,,,,,,,,,,
,,,,,,,,,,,,,,a,1,1.267,space,0.034,0,121,121,195,1,0_targ_16_dist_red/trial21.png,,,0,16,redHorizontal,a,68,23,M,2021-02-25_21h00.11.728,exp11,2020.2.6,MacIntel,60,,,,,,,,,,,
,,,,,,,,,,,,,,p,1,0.659,space,0.052,0,122,122,83,1,15_dist_red/trial9.png,,,1,15,redHorizontal,p,68,23,M,2021-02-25_21h00.11.728,exp11,2020.2.6,MacIntel,60,,,,,,,,,,,
,,,,,,,,,,,,,,p,1,0.907,space,1.347,0,123,123,74,1,9_dist_red/trial25.png,,,1,9,redHorizontal,p,68,23,M,2021-02-25_21h00.11.728,exp11,2020.2.6,MacIntel,60,,,,,,,,,,,
,,,,,,,,,,,,,,a,1,0.799,space,0.023,0,124,124,158,1,0_targ_10_dist_red/trial9.png,,,0,10,redHorizontal,a,68,23,M,2021-02-25_21h00.11.728,exp11,2020.2.6,MacIntel,60,,,,,,,,,,,
,,,,,,,,,,,,,,a,1,0.839,space,0.089,0,125,125,115,1,0_targ_1_dist_red/trial6.png,,,0,1,redHorizontal,a,68,23,M,2021-02-25_21h00.11.728,exp11,2020.2.6,MacIntel,60,,,,,,,,,,,
,,,,,,,,,,,,,,a,1,0.842,space,0.042,0,126,126,196,1,0_targ_16_dist_red/trial22.png,,,0,16,redHorizontal,a,68,23,M,2021-02-25_21h00.11.728,exp11,2020.2.6,MacIntel,60,,,,,,,,,,,
,,,,,,,,,,,,,,p,1,0.762,space,0.045,0,127,127,52,1,9_dist_red/trial3.png,,,1,9,redHorizontal,p,68,23,M,2021-02-25_21h00.11.728,exp11,2020.2.6,MacIntel,60,,,,,,,,,,,
,,,,,,,,,,,,,,p,1,1.012,space,0.048,0,128,128,84,1,15_dist_red/trial10.png,,,1,15,redHorizontal,p,68,23,M,2021-02-25_21h00.11.728,exp11,2020.2.6,MacIntel,60,,,,,,,,,,,
,,,,,,,,,,,,,,p,1,0.844,space,0.005,0,129,129,50,1,9_dist_red/trial1.png,,,1,9,redHorizontal,p,68,23,M,2021-02-25_21h00.11.728,exp11,2020.2.6,MacIntel,60,,,,,,,,,,,
,,,,,,,,,,,,,,p,1,0.749,space,0.037,0,130,130,11,1,0_dist_red/trial12.png,,,1,0,redHorizontal,p,68,23,M,2021-02-25_21h00.11.728,exp11,2020.2.6,MacIntel,60,,,,,,,,,,,
,,,,,,,,,,,,,,a,1,0.694,space,0.036,0,131,131,100,1,0_targ_1_dist_red/trial1.png,,,0,1,redHorizontal,a,68,23,M,2021-02-25_21h00.11.728,exp11,2020.2.6,MacIntel,60,,,,,,,,,,,
,,,,,,,,,,,,,,p,1,0.658,space,0.039,0,132,132,27,1,3_dist_red/trial3.png,,,1,3,redHorizontal,p,68,23,M,2021-02-25_21h00.11.728,exp11,2020.2.6,MacIntel,60,,,,,,,,,,,
,,,,,,,,,,,,,,a,1,0.66,space,0.037,0,133,133,185,1,0_targ_16_dist_red/trial11.png,,,0,16,redHorizontal,a,68,23,M,2021-02-25_21h00.11.728,exp11,2020.2.6,MacIntel,60,,,,,,,,,,,
,,,,,,,,,,,,,,a,1,0.564,space,0.07,0,134,134,133,1,0_targ_4_dist_red/trial9.png,,,0,4,redHorizontal,a,68,23,M,2021-02-25_21h00.11.728,exp11,2020.2.6,MacIntel,60,,,,,,,,,,,
,,,,,,,,,,,,,,p,1,0.544,space,0.056,0,135,135,23,1,0_dist_red/trial24.png,,,1,0,redHorizontal,p,68,23,M,2021-02-25_21h00.11.728,exp11,2020.2.6,MacIntel,60,,,,,,,,,,,
,,,,,,,,,,,,,,p,1,0.778,space,0.063,0,136,136,58,1,9_dist_red/trial9.png,,,1,9,redHorizontal,p,68,23,M,2021-02-25_21h00.11.728,exp11,2020.2.6,MacIntel,60,,,,,,,,,,,
,,,,,,,,,,,,,,p,1,0.508,space,0.071,0,137,137,33,1,3_dist_red/trial9.png,,,1,3,redHorizontal,p,68,23,M,2021-02-25_21h00.11.728,exp11,2020.2.6,MacIntel,60,,,,,,,,,,,
,,,,,,,,,,,,,,p,1,0.681,space,0.003,0,138,138,60,1,9_dist_red/trial11.png,,,1,9,redHorizontal,p,68,23,M,2021-02-25_21h00.11.728,exp11,2020.2.6,MacIntel,60,,,,,,,,,,,
,,,,,,,,,,,,,,a,1,0.982,space,0.053,0,139,139,147,1,0_targ_4_dist_red/trial23.png,,,0,4,redHorizontal,a,68,23,M,2021-02-25_21h00.11.728,exp11,2020.2.6,MacIntel,60,,,,,,,,,,,
,,,,,,,,,,,,,,a,1,0.746,space,0.057,0,140,140,152,1,0_targ_10_dist_red/trial3.png,,,0,10,redHorizontal,a,68,23,M,2021-02-25_21h00.11.728,exp11,2020.2.6,MacIntel,60,,,,,,,,,,,
,,,,,,,,,,,,,,p,1,0.708,space,0.043,0,141,141,89,1,15_dist_red/trial15.png,,,1,15,redHorizontal,p,68,23,M,2021-02-25_21h00.11.728,exp11,2020.2.6,MacIntel,60,,,,,,,,,,,
,,,,,,,,,,,,,,a,1,0.659,space,0.027,0,142,142,143,1,0_targ_4_dist_red/trial19.png,,,0,4,redHorizontal,a,68,23,M,2021-02-25_21h00.11.728,exp11,2020.2.6,MacIntel,60,,,,,,,,,,,
,,,,,,,,,,,,,,p,1,0.668,space,0.061,0,143,143,2,1,0_dist_red/trial3.png,,,1,0,redHorizontal,p,68,23,M,2021-02-25_21h00.11.728,exp11,2020.2.6,MacIntel,60,,,,,,,,,,,
,,,,,,,,,,,,,,p,1,0.547,space,0.123,0,144,144,22,1,0_dist_red/trial23.png,,,1,0,redHorizontal,p,68,23,M,2021-02-25_21h00.11.728,exp11,2020.2.6,MacIntel,60,,,,,,,,,,,
,,,,,,,,,,,,,,a,1,0.835,space,0.037,0,145,145,198,1,0_targ_16_dist_red/trial24.png,,,0,16,redHorizontal,a,68,23,M,2021-02-25_21h00.11.728,exp11,2020.2.6,MacIntel,60,,,,,,,,,,,
,,,,,,,,,,,,,,p,1,0.709,space,0.053,0,146,146,65,1,9_dist_red/trial16.png,,,1,9,redHorizontal,p,68,23,M,2021-02-25_21h00.11.728,exp11,2020.2.6,MacIntel,60,,,,,,,,,,,
,,,,,,,,,,,,,,a,1,0.625,space,0.072,0,147,147,192,1,0_targ_16_dist_red/trial18.png,,,0,16,redHorizontal,a,68,23,M,2021-02-25_21h00.11.728,exp11,2020.2.6,MacIntel,60,,,,,,,,,,,
,,,,,,,,,,,,,,a,0,0.673,space,0.172,0,148,148,95,1,15_dist_red/trial21.png,,,1,15,redHorizontal,p,68,23,M,2021-02-25_21h00.11.728,exp11,2020.2.6,MacIntel,60,,,,,,,,,,,
,,,,,,,,,,,,,,a,1,0.676,space,0.016,0,149,149,167,1,0_targ_10_dist_red/trial18.png,,,0,10,redHorizontal,a,68,23,M,2021-02-25_21h00.11.728,exp11,2020.2.6,MacIntel,60,,,,,,,,,,,
,,,,,,,,,,,,,,a,1,1.037,space,0.051,0,150,150,123,1,0_targ_1_dist_red/trial24.png,,,0,1,redHorizontal,a,68,23,M,2021-02-25_21h00.11.728,exp11,2020.2.6,MacIntel,60,,,,,,,,,,,
,,,,,,,,,,,,,,a,1,0.908,space,0.015,0,151,151,174,1,0_targ_10_dist_red/trial25.png,,,0,10,redHorizontal,a,68,23,M,2021-02-25_21h00.11.728,exp11,2020.2.6,MacIntel,60,,,,,,,,,,,
,,,,,,,,,,,,,,a,1,0.875,space,0.02,0,152,152,120,1,0_targ_1_dist_red/trial21.png,,,0,1,redHorizontal,a,68,23,M,2021-02-25_21h00.11.728,exp11,2020.2.6,MacIntel,60,,,,,,,,,,,
,,,,,,,,,,,,,,a,1,0.498,space,0.053,0,153,153,124,1,0_targ_1_dist_red/trial25.png,,,0,1,redHorizontal,a,68,23,M,2021-02-25_21h00.11.728,exp11,2020.2.6,MacIntel,60,,,,,,,,,,,
,,,,,,,,,,,,,,a,1,0.459,space,0.073,0,154,154,121,1,0_targ_1_dist_red/trial22.png,,,0,1,redHorizontal,a,68,23,M,2021-02-25_21h00.11.728,exp11,2020.2.6,MacIntel,60,,,,,,,,,,,
,,,,,,,,,,,,,,a,0,0.974,space,0.436,0,155,155,79,1,15_dist_red/trial5.png,,,1,15,redHorizontal,p,68,23,M,2021-02-25_21h00.11.728,exp11,2020.2.6,MacIntel,60,,,,,,,,,,,
,,,,,,,,,,,,,,a,1,0.626,space,2.072,0,156,156,153,1,0_targ_10_dist_red/trial4.png,,,0,10,redHorizontal,a,68,23,M,2021-02-25_21h00.11.728,exp11,2020.2.6,MacIntel,60,,,,,,,,,,,
,,,,,,,,,,,,,,p,1,0.675,space,0.017,0,157,157,28,1,3_dist_red/trial4.png,,,1,3,redHorizontal,p,68,23,M,2021-02-25_21h00.11.728,exp11,2020.2.6,MacIntel,60,,,,,,,,,,,
,,,,,,,,,,,,,,p,1,0.557,space,0.039,0,158,158,88,1,15_dist_red/trial14.png,,,1,15,redHorizontal,p,68,23,M,2021-02-25_21h00.11.728,exp11,2020.2.6,MacIntel,60,,,,,,,,,,,
,,,,,,,,,,,,,,a,1,0.644,space,0.021,0,159,159,116,1,0_targ_1_dist_red/trial17.png,,,0,1,redHorizontal,a,68,23,M,2021-02-25_21h00.11.728,exp11,2020.2.6,MacIntel,60,,,,,,,,,,,
,,,,,,,,,,,,,,a,1,0.717,space,0.024,0,160,160,194,1,0_targ_16_dist_red/trial20.png,,,0,16,redHorizontal,a,68,23,M,2021-02-25_21h00.11.728,exp11,2020.2.6,MacIntel,60,,,,,,,,,,,
,,,,,,,,,,,,,,p,1,0.546,space,0.03,0,161,161,3,1,0_dist_red/trial4.png,,,1,0,redHorizontal,p,68,23,M,2021-02-25_21h00.11.728,exp11,2020.2.6,MacIntel,60,,,,,,,,,,,
,,,,,,,,,,,,,,a,1,0.892,space,0.013,0,162,162,113,1,0_targ_1_dist_red/trial14.png,,,0,1,redHorizontal,a,68,23,M,2021-02-25_21h00.11.728,exp11,2020.2.6,MacIntel,60,,,,,,,,,,,
,,,,,,,,,,,,,,p,1,0.61,space,0.039,0,163,163,67,1,9_dist_red/trial18.png,,,1,9,redHorizontal,p,68,23,M,2021-02-25_21h00.11.728,exp11,2020.2.6,MacIntel,60,,,,,,,,,,,
,,,,,,,,,,,,,,a,1,0.728,space,0.036,0,164,164,127,1,0_targ_4_dist_red/trial3.png,,,0,4,redHorizontal,a,68,23,M,2021-02-25_21h00.11.728,exp11,2020.2.6,MacIntel,60,,,,,,,,,,,
,,,,,,,,,,,,,,p,1,0.763,space,0.055,0,165,165,34,1,3_dist_red/trial10.png,,,1,3,redHorizontal,p,68,23,M,2021-02-25_21h00.11.728,exp11,2020.2.6,MacIntel,60,,,,,,,,,,,
,,,,,,,,,,,,,,a,1,0.674,space,0.038,0,166,166,156,1,0_targ_10_dist_red/trial7.png,,,0,10,redHorizontal,a,68,23,M,2021-02-25_21h00.11.728,exp11,2020.2.6,MacIntel,60,,,,,,,,,,,
,,,,,,,,,,,,,,a,1,0.958,space,0.018,0,167,167,182,1,0_targ_16_dist_red/trial8.png,,,0,16,redHorizontal,a,68,23,M,2021-02-25_21h00.11.728,exp11,2020.2.6,MacIntel,60,,,,,,,,,,,
,,,,,,,,,,,,,,a,1,0.543,space,0.039,0,168,168,139,1,0_targ_4_dist_red/trial15.png,,,0,4,redHorizontal,a,68,23,M,2021-02-25_21h00.11.728,exp11,2020.2.6,MacIntel,60,,,,,,,,,,,
,,,,,,,,,,,,,,p,1,0.678,space,0.068,0,169,169,81,1,15_dist_red/trial7.png,,,1,15,redHorizontal,p,68,23,M,2021-02-25_21h00.11.728,exp11,2020.2.6,MacIntel,60,,,,,,,,,,,
,,,,,,,,,,,,,,a,1,0.593,space,0.056,0,170,170,189,1,0_targ_16_dist_red/trial15.png,,,0,16,redHorizontal,a,68,23,M,2021-02-25_21h00.11.728,exp11,2020.2.6,MacIntel,60,,,,,,,,,,,
,,,,,,,,,,,,,,a,1,0.562,space,0.054,0,171,171,173,1,0_targ_10_dist_red/trial24.png,,,0,10,redHorizontal,a,68,23,M,2021-02-25_21h00.11.728,exp11,2020.2.6,MacIntel,60,,,,,,,,,,,
,,,,,,,,,,,,,,p,1,0.762,space,0.048,0,172,172,91,1,15_dist_red/trial17.png,,,1,15,redHorizontal,p,68,23,M,2021-02-25_21h00.11.728,exp11,2020.2.6,MacIntel,60,,,,,,,,,,,
,,,,,,,,,,,,,,p,1,0.676,space,0.059,0,173,173,92,1,15_dist_red/trial18.png,,,1,15,redHorizontal,p,68,23,M,2021-02-25_21h00.11.728,exp11,2020.2.6,MacIntel,60,,,,,,,,,,,
,,,,,,,,,,,,,,a,1,0.838,space,0.037,0,174,174,169,1,0_targ_10_dist_red/trial20.png,,,0,10,redHorizontal,a,68,23,M,2021-02-25_21h00.11.728,exp11,2020.2.6,MacIntel,60,,,,,,,,,,,
,,,,,,,,,,,,,,p,1,0.799,space,0.112,0,175,175,55,1,9_dist_red/trial6.png,,,1,9,redHorizontal,p,68,23,M,2021-02-25_21h00.11.728,exp11,2020.2.6,MacIntel,60,,,,,,,,,,,
,,,,,,,,,,,,,,p,1,0.778,space,0.052,0,176,176,99,1,15_dist_red/trial25.png,,,1,15,redHorizontal,p,68,23,M,2021-02-25_21h00.11.728,exp11,2020.2.6,MacIntel,60,,,,,,,,,,,
,,,,,,,,,,,,,,p,1,0.646,space,0.043,0,177,177,46,1,3_dist_red/trial22.png,,,1,3,redHorizontal,p,68,23,M,2021-02-25_21h00.11.728,exp11,2020.2.6,MacIntel,60,,,,,,,,,,,
,,,,,,,,,,,,,,p,1,0.726,space,0.003,0,178,178,30,1,3_dist_red/trial6.png,,,1,3,redHorizontal,p,68,23,M,2021-02-25_21h00.11.728,exp11,2020.2.6,MacIntel,60,,,,,,,,,,,
,,,,,,,,,,,,,,p,1,0.545,space,0.039,0,179,179,63,1,9_dist_red/trial14.png,,,1,9,redHorizontal,p,68,23,M,2021-02-25_21h00.11.728,exp11,2020.2.6,MacIntel,60,,,,,,,,,,,
,,,,,,,,,,,,,,p,1,0.466,space,0.048,0,180,180,17,1,0_dist_red/trial18.png,,,1,0,redHorizontal,p,68,23,M,2021-02-25_21h00.11.728,exp11,2020.2.6,MacIntel,60,,,,,,,,,,,
,,,,,,,,,,,,,,a,1,1.014,space,0.673,0,181,181,114,1,0_targ_1_dist_red/trial15.png,,,0,1,redHorizontal,a,68,23,M,2021-02-25_21h00.11.728,exp11,2020.2.6,MacIntel,60,,,,,,,,,,,
,,,,,,,,,,,,,,a,0,0.759,space,0.23,0,182,182,8,1,0_dist_red/trial9.png,,,1,0,redHorizontal,p,68,23,M,2021-02-25_21h00.11.728,exp11,2020.2.6,MacIntel,60,,,,,,,,,,,
,,,,,,,,,,,,,,p,1,0.731,space,0.019,0,183,183,75,1,15_dist_red/trial1.png,,,1,15,redHorizontal,p,68,23,M,2021-02-25_21h00.11.728,exp11,2020.2.6,MacIntel,60,,,,,,,,,,,
,,,,,,,,,,,,,,p,1,0.666,space,0.058,0,184,184,10,1,0_dist_red/trial11.png,,,1,0,redHorizontal,p,68,23,M,2021-02-25_21h00.11.728,exp11,2020.2.6,MacIntel,60,,,,,,,,,,,
,,,,,,,,,,,,,,a,1,0.691,space,0.023,0,185,185,199,1,0_targ_16_dist_red/trial25.png,,,0,16,redHorizontal,a,68,23,M,2021-02-25_21h00.11.728,exp11,2020.2.6,MacIntel,60,,,,,,,,,,,
,,,,,,,,,,,,,,a,1,0.485,space,0.043,0,186,186,117,1,0_targ_1_dist_red/trial18.png,,,0,1,redHorizontal,a,68,23,M,2021-02-25_21h00.11.728,exp11,2020.2.6,MacIntel,60,,,,,,,,,,,
,,,,,,,,,,,,,,p,1,0.898,space,0.021,0,187,187,54,1,9_dist_red/trial5.png,,,1,9,redHorizontal,p,68,23,M,2021-02-25_21h00.11.728,exp11,2020.2.6,MacIntel,60,,,,,,,,,,,
,,,,,,,,,,,,,,p,1,0.696,space,0.094,0,188,188,45,1,3_dist_red/trial21.png,,,1,3,redHorizontal,p,68,23,M,2021-02-25_21h00.11.728,exp11,2020.2.6,MacIntel,60,,,,,,,,,,,
,,,,,,,,,,,,,,p,1,0.477,space,0.038,0,189,189,15,1,0_dist_red/trial16.png,,,1,0,redHorizontal,p,68,23,M,2021-02-25_21h00.11.728,exp11,2020.2.6,MacIntel,60,,,,,,,,,,,
,,,,,,,,,,,,,,a,1,0.608,space,0.022,0,190,190,144,1,0_targ_4_dist_red/trial20.png,,,0,4,redHorizontal,a,68,23,M,2021-02-25_21h00.11.728,exp11,2020.2.6,MacIntel,60,,,,,,,,,,,
,,,,,,,,,,,,,,a,1,0.538,space,0.057,0,191,191,106,1,0_targ_1_dist_red/trial7.png,,,0,1,redHorizontal,a,68,23,M,2021-02-25_21h00.11.728,exp11,2020.2.6,MacIntel,60,,,,,,,,,,,
,,,,,,,,,,,,,,p,1,0.779,space,0.028,0,192,192,73,1,9_dist_red/trial24.png,,,1,9,redHorizontal,p,68,23,M,2021-02-25_21h00.11.728,exp11,2020.2.6,MacIntel,60,,,,,,,,,,,
,,,,,,,,,,,,,,p,1,0.792,space,0.085,0,193,193,66,1,9_dist_red/trial17.png,,,1,9,redHorizontal,p,68,23,M,2021-02-25_21h00.11.728,exp11,2020.2.6,MacIntel,60,,,,,,,,,,,
,,,,,,,,,,,,,,p,1,0.673,space,0.819,0,194,194,71,1,9_dist_red/trial22.png,,,1,9,redHorizontal,p,68,23,M,2021-02-25_21h00.11.728,exp11,2020.2.6,MacIntel,60,,,,,,,,,,,
,,,,,,,,,,,,,,a,1,0.64,space,0.025,0,195,195,172,1,0_targ_10_dist_red/trial23.png,,,0,10,redHorizontal,a,68,23,M,2021-02-25_21h00.11.728,exp11,2020.2.6,MacIntel,60,,,,,,,,,,,
,,,,,,,,,,,,,,p,1,0.583,space,0.055,0,196,196,19,1,0_dist_red/trial20.png,,,1,0,redHorizontal,p,68,23,M,2021-02-25_21h00.11.728,exp11,2020.2.6,MacIntel,60,,,,,,,,,,,
,,,,,,,,,,,,,,a,1,0.657,space,0.021,0,197,197,140,1,0_targ_4_dist_red/trial6.png,,,0,4,redHorizontal,a,68,23,M,2021-02-25_21h00.11.728,exp11,2020.2.6,MacIntel,60,,,,,,,,,,,
,,,,,,,,,,,,,,p,1,0.53,space,0.048,0,198,198,5,1,0_dist_red/trial6.png,,,1,0,redHorizontal,p,68,23,M,2021-02-25_21h00.11.728,exp11,2020.2.6,MacIntel,60,,,,,,,,,,,
,,,,,,,,,,,,,,a,1,1.444,space,0.026,0,199,199,111,1,0_targ_1_dist_red/trial12.png,,,0,1,redHorizontal,a,68,23,M,2021-02-25_21h00.11.728,exp11,2020.2.6,MacIntel,60,,,,,,,,,,,
,,,,,,,,,,,,,,,,,,,,,,,,,,,,,,,68,23,M,2021-02-25_21h00.11.728,exp11,2020.2.6,MacIntel,60,0,0,0,1,1,conRed.xlsx,red horizontal,Look for red horizontal bar (target) and indicate if it is present or absent in the array. If red horizontal target is present press 'p' and if absent press 'a'. Press SPACE to start.,,,
,,,,,,,,,,space,5.12,space,3.943,a,1,0.921,space,0.04,0,0,0,116,1,0_targ_1_dist_green/trial17.png,,,0,1,greenverival,a,68,23,M,2021-02-25_21h00.11.728,exp11,2020.2.6,MacIntel,60,,,,,,,,,,,
,,,,,,,,,,,,,,a,1,1.263,space,0.023,0,1,1,164,1,0_targ_10_dist_green/trial15.png,,,0,10,greenverival,a,68,23,M,2021-02-25_21h00.11.728,exp11,2020.2.6,MacIntel,60,,,,,,,,,,,
,,,,,,,,,,,,,,p,1,0.923,space,0.022,0,2,2,81,1,15_dist_green/trial7.png,,,1,15,greenverival,p,68,23,M,2021-02-25_21h00.11.728,exp11,2020.2.6,MacIntel,60,,,,,,,,,,,
,,,,,,,,,,,,,,p,1,0.896,space,0.002,0,3,3,89,1,15_dist_green/trial15.png,,,1,15,greenverival,p,68,23,M,2021-02-25_21h00.11.728,exp11,2020.2.6,MacIntel,60,,,,,,,,,,,
,,,,,,,,,,,,,,p,1,0.747,space,0.02,0,4,4,74,1,9_dist_green/trial25.png,,,1,9,greenverival,p,68,23,M,2021-02-25_21h00.11.728,exp11,2020.2.6,MacIntel,60,,,,,,,,,,,
,,,,,,,,,,,,,,p,1,0.61,space,0.023,0,5,5,27,1,3_dist_green/trial3.png,,,1,3,greenverival,p,68,23,M,2021-02-25_21h00.11.728,exp11,2020.2.6,MacIntel,60,,,,,,,,,,,
,,,,,,,,,,,,,,p,1,0.699,space,0.04,0,6,6,70,1,9_dist_green/trial21.png,,,1,9,greenverival,p,68,23,M,2021-02-25_21h00.11.728,exp11,2020.2.6,MacIntel,60,,,,,,,,,,,
,,,,,,,,,,,,,,a,1,0.691,space,0.026,0,7,7,115,1,0_targ_1_dist_green/trial6.png,,,0,1,greenverival,a,68,23,M,2021-02-25_21h00.11.728,exp11,2020.2.6,MacIntel,60,,,,,,,,,,,
,,,,,,,,,,,,,,p,1,0.911,space,0.04,0,8,8,76,1,15_dist_green/trial2.png,,,1,15,greenverival,p,68,23,M,2021-02-25_21h00.11.728,exp11,2020.2.6,MacIntel,60,,,,,,,,,,,
,,,,,,,,,,,,,,a,1,1.293,space,0.036,0,9,9,102,1,0_targ_1_dist_green/trial3.png,,,0,1,greenverival,a,68,23,M,2021-02-25_21h00.11.728,exp11,2020.2.6,MacIntel,60,,,,,,,,,,,
,,,,,,,,,,,,,,p,1,0.74,space,0.029,0,10,10,96,1,15_dist_green/trial22.png,,,1,15,greenverival,p,68,23,M,2021-02-25_21h00.11.728,exp11,2020.2.6,MacIntel,60,,,,,,,,,,,
,,,,,,,,,,,,,,p,1,0.658,space,0.053,0,11,11,41,1,3_dist_green/trial17.png,,,1,3,greenverival,p,68,23,M,2021-02-25_21h00.11.728,exp11,2020.2.6,MacIntel,60,,,,,,,,,,,
,,,,,,,,,,,,,,a,1,0.844,space,0.072,0,12,12,162,1,0_targ_10_dist_green/trial13.png,,,0,10,greenverival,a,68,23,M,2021-02-25_21h00.11.728,exp11,2020.2.6,MacIntel,60,,,,,,,,,,,
,,,,,,,,,,,,,,a,1,0.649,space,0.053,0,13,13,160,1,0_targ_10_dist_green/trial11.png,,,0,10,greenverival,a,68,23,M,2021-02-25_21h00.11.728,exp11,2020.2.6,MacIntel,60,,,,,,,,,,,
,,,,,,,,,,,,,,p,1,0.677,space,0.038,0,14,14,83,1,15_dist_green/trial9.png,,,1,15,greenverival,p,68,23,M,2021-02-25_21h00.11.728,exp11,2020.2.6,MacIntel,60,,,,,,,,,,,
,,,,,,,,,,,,,,a,1,0.634,space,0.072,0,15,15,147,1,0_targ_4_dist_green/trial23.png,,,0,4,greenverival,a,68,23,M,2021-02-25_21h00.11.728,exp11,2020.2.6,MacIntel,60,,,,,,,,,,,
,,,,,,,,,,,,,,a,1,0.567,space,0.074,0,16,16,148,1,0_targ_4_dist_green/trial24.png,,,0,4,greenverival,a,68,23,M,2021-02-25_21h00.11.728,exp11,2020.2.6,MacIntel,60,,,,,,,,,,,
,,,,,,,,,,,,,,a,1,0.848,space,0.025,0,17,17,177,1,0_targ_16_dist_green/trial3.png,,,0,16,greenverival,a,68,23,M,2021-02-25_21h00.11.728,exp11,2020.2.6,MacIntel,60,,,,,,,,,,,
,,,,,,,,,,,,,,a,1,0.76,space,0.03,0,18,18,150,1,0_targ_10_dist_green/trial1.png,,,0,10,greenverival,a,68,23,M,2021-02-25_21h00.11.728,exp11,2020.2.6,MacIntel,60,,,,,,,,,,,
,,,,,,,,,,,,,,a,1,0.893,space,0.036,0,19,19,103,1,0_targ_1_dist_green/trial4.png,,,0,1,greenverival,a,68,23,M,2021-02-25_21h00.11.728,exp11,2020.2.6,MacIntel,60,,,,,,,,,,,
,,,,,,,,,,,,,,a,0,0.86,space,0.289,0,20,20,30,1,3_dist_green/trial6.png,,,1,3,greenverival,p,68,23,M,2021-02-25_21h00.11.728,exp11,2020.2.6,MacIntel,60,,,,,,,,,,,
,,,,,,,,,,,,,,a,1,0.728,space,0.006,0,21,21,142,1,0_targ_4_dist_green/trial18.png,,,0,4,greenverival,a,68,23,M,2021-02-25_21h00.11.728,exp11,2020.2.6,MacIntel,60,,,,,,,,,,,
,,,,,,,,,,,,,,a,1,0.781,space,0.028,0,22,22,172,1,0_targ_10_dist_green/trial23.png,,,0,10,greenverival,a,68,23,M,2021-02-25_21h00.11.728,exp11,2020.2.6,MacIntel,60,,,,,,,,,,,
,,,,,,,,,,,,,,p,1,0.549,space,0.035,0,23,23,39,1,3_dist_green/trial15.png,,,1,3,greenverival,p,68,23,M,2021-02-25_21h00.11.728,exp11,2020.2.6,MacIntel,60,,,,,,,,,,,
,,,,,,,,,,,,,,p,1,0.615,space,0.055,0,24,24,35,1,3_dist_green/trial11.png,,,1,3,greenverival,p,68,23,M,2021-02-25_21h00.11.728,exp11,2020.2.6,MacIntel,60,,,,,,,,,,,
,,,,,,,,,,,,,,p,1,1.079,space,0.038,0,25,25,55,1,9_dist_green/trial6.png,,,1,9,greenverival,p,68,23,M,2021-02-25_21h00.11.728,exp11,2020.2.6,MacIntel,60,,,,,,,,,,,
,,,,,,,,,,,,,,p,1,0.588,space,0.592,0,26,26,57,1,9_dist_green/trial8.png,,,1,9,greenverival,p,68,23,M,2021-02-25_21h00.11.728,exp11,2020.2.6,MacIntel,60,,,,,,,,,,,
,,,,,,,,,,,,,,a,1,0.763,space,0.055,0,27,27,155,1,0_targ_10_dist_green/trial6.png,,,0,10,greenverival,a,68,23,M,2021-02-25_21h00.11.728,exp11,2020.2.6,MacIntel,60,,,,,,,,,,,
,,,,,,,,,,,,,,p,1,0.611,space,0.047,0,28,28,85,1,15_dist_green/trial11.png,,,1,15,greenverival,p,68,23,M,2021-02-25_21h00.11.728,exp11,2020.2.6,MacIntel,60,,,,,,,,,,,
,,,,,,,,,,,,,,a,1,0.716,space,0.024,0,29,29,190,1,0_targ_16_dist_green/trial16.png,,,0,16,greenverival,a,68,23,M,2021-02-25_21h00.11.728,exp11,2020.2.6,MacIntel,60,,,,,,,,,,,
,,,,,,,,,,,,,,a,0,3.283,space,0.011,0,30,30,16,1,0_dist_green/trial17.png,,,1,0,greenverival,p,68,23,M,2021-02-25_21h00.11.728,exp11,2020.2.6,MacIntel,60,,,,,,,,,,,
,,,,,,,,,,,,,,p,1,0.709,space,0.032,0,31,31,95,1,15_dist_green/trial21.png,,,1,15,greenverival,p,68,23,M,2021-02-25_21h00.11.728,exp11,2020.2.6,MacIntel,60,,,,,,,,,,,
,,,,,,,,,,,,,,p,1,0.508,space,0.03,0,32,32,67,1,9_dist_green/trial18.png,,,1,9,greenverival,p,68,23,M,2021-02-25_21h00.11.728,exp11,2020.2.6,MacIntel,60,,,,,,,,,,,
,,,,,,,,,,,,,,p,1,0.566,space,0.042,0,33,33,66,1,9_dist_green/trial17.png,,,1,9,greenverival,p,68,23,M,2021-02-25_21h00.11.728,exp11,2020.2.6,MacIntel,60,,,,,,,,,,,
,,,,,,,,,,,,,,a,1,1.101,space,0.021,0,34,34,191,1,0_targ_16_dist_green/trial17.png,,,0,16,greenverival,a,68,23,M,2021-02-25_21h00.11.728,exp11,2020.2.6,MacIntel,60,,,,,,,,,,,
,,,,,,,,,,,,,,a,1,0.759,space,0.006,0,35,35,158,1,0_targ_10_dist_green/trial9.png,,,0,10,greenverival,a,68,23,M,2021-02-25_21h00.11.728,exp11,2020.2.6,MacIntel,60,,,,,,,,,,,
,,,,,,,,,,,,,,p,1,0.911,space,0.04,0,36,36,51,1,9_dist_green/trial2.png,,,1,9,greenverival,p,68,23,M,2021-02-25_21h00.11.728,exp11,2020.2.6,MacIntel,60,,,,,,,,,,,
,,,,,,,,,,,,,,a,1,0.677,space,0.029,0,37,37,156,1,0_targ_10_dist_green/trial7.png,,,0,10,greenverival,a,68,23,M,2021-02-25_21h00.11.728,exp11,2020.2.6,MacIntel,60,,,,,,,,,,,
,,,,,,,,,,,,,,a,1,1.608,space,0.003,0,38,38,117,1,0_targ_1_dist_green/trial18.png,,,0,1,greenverival,a,68,23,M,2021-02-25_21h00.11.728,exp11,2020.2.6,MacIntel,60,,,,,,,,,,,
,,,,,,,,,,,,,,p,1,0.96,space,0.021,0,39,39,49,1,3_dist_green/trial25.png,,,1,3,greenverival,p,68,23,M,2021-02-25_21h00.11.728,exp11,2020.2.6,MacIntel,60,,,,,,,,,,,
,,,,,,,,,,,,,,p,1,0.576,space,0.591,0,40,40,68,1,9_dist_green/trial19.png,,,1,9,greenverival,p,68,23,M,2021-02-25_21h00.11.728,exp11,2020.2.6,MacIntel,60,,,,,,,,,,,
,,,,,,,,,,,,,,a,1,1.005,space,0.148,0,41,41,105,1,0_targ_1_dist_green/trial6.png,,,0,1,greenverival,a,68,23,M,2021-02-25_21h00.11.728,exp11,2020.2.6,MacIntel,60,,,,,,,,,,,
,,,,,,,,,,,,,,p,1,0.941,space,0.072,0,42,42,91,1,15_dist_green/trial17.png,,,1,15,greenverival,p,68,23,M,2021-02-25_21h00.11.728,exp11,2020.2.6,MacIntel,60,,,,,,,,,,,
,,,,,,,,,,,,,,p,1,0.628,space,0.042,0,43,43,52,1,9_dist_green/trial3.png,,,1,9,greenverival,p,68,23,M,2021-02-25_21h00.11.728,exp11,2020.2.6,MacIntel,60,,,,,,,,,,,
,,,,,,,,,,,,,,a,1,0.845,space,0.029,0,44,44,174,1,0_targ_10_dist_green/trial25.png,,,0,10,greenverival,a,68,23,M,2021-02-25_21h00.11.728,exp11,2020.2.6,MacIntel,60,,,,,,,,,,,
,,,,,,,,,,,,,,a,1,0.743,space,0.15,0,45,45,123,1,0_targ_1_dist_green/trial24.png,,,0,1,greenverival,a,68,23,M,2021-02-25_21h00.11.728,exp11,2020.2.6,MacIntel,60,,,,,,,,,,,
,,,,,,,,,,,,,,a,0,0.845,space,0.008,0,46,46,79,1,15_dist_green/trial5.png,,,1,15,greenverival,p,68,23,M,2021-02-25_21h00.11.728,exp11,2020.2.6,MacIntel,60,,,,,,,,,,,
,,,,,,,,,,,,,,a,1,1.55,space,0.069,0,47,47,173,1,0_targ_10_dist_green/trial24.png,,,0,10,greenverival,a,68,23,M,2021-02-25_21h00.11.728,exp11,2020.2.6,MacIntel,60,,,,,,,,,,,
,,,,,,,,,,,,,,a,1,0.61,space,0.058,0,48,48,104,1,0_targ_1_dist_green/trial5.png,,,0,1,greenverival,a,68,23,M,2021-02-25_21h00.11.728,exp11,2020.2.6,MacIntel,60,,,,,,,,,,,
,,,,,,,,,,,,,,a,1,1.184,space,0.068,0,49,49,184,1,0_targ_16_dist_green/trial10.png,,,0,16,greenverival,a,68,23,M,2021-02-25_21h00.11.728,exp11,2020.2.6,MacIntel,60,,,,,,,,,,,
,,,,,,,,,,,,,,p,1,0.843,space,0.094,0,50,50,82,1,15_dist_green/trial8.png,,,1,15,greenverival,p,68,23,M,2021-02-25_21h00.11.728,exp11,2020.2.6,MacIntel,60,,,,,,,,,,,
,,,,,,,,,,,,,,a,1,1.512,space,0.046,0,51,51,111,1,0_targ_1_dist_green/trial12.png,,,0,1,greenverival,a,68,23,M,2021-02-25_21h00.11.728,exp11,2020.2.6,MacIntel,60,,,,,,,,,,,
,,,,,,,,,,,,,,a,1,1.312,space,0.473,0,52,52,180,1,0_targ_16_dist_green/trial6.png,,,0,16,greenverival,a,68,23,M,2021-02-25_21h00.11.728,exp11,2020.2.6,MacIntel,60,,,,,,,,,,,
,,,,,,,,,,,,,,p,1,0.731,space,0.043,0,53,53,90,1,15_dist_green/trial16.png,,,1,15,greenverival,p,68,23,M,2021-02-25_21h00.11.728,exp11,2020.2.6,MacIntel,60,,,,,,,,,,,
,,,,,,,,,,,,,,a,1,4.412,space,0.788,0,54,54,189,1,0_targ_16_dist_green/trial15.png,,,0,16,greenverival,a,68,23,M,2021-02-25_21h00.11.728,exp11,2020.2.6,MacIntel,60,,,,,,,,,,,
,,,,,,,,,,,,,,a,1,0.712,space,0.036,0,55,55,101,1,0_targ_1_dist_green/trial2.png,,,0,1,greenverival,a,68,23,M,2021-02-25_21h00.11.728,exp11,2020.2.6,MacIntel,60,,,,,,,,,,,
,,,,,,,,,,,,,,p,1,1.839,space,0.018,0,56,56,23,1,0_dist_green/trial24.png,,,1,0,greenverival,p,68,23,M,2021-02-25_21h00.11.728,exp11,2020.2.6,MacIntel,60,,,,,,,,,,,
,,,,,,,,,,,,,,a,1,0.849,space,0.032,0,57,57,149,1,0_targ_4_dist_green/trial25.png,,,0,4,greenverival,a,68,23,M,2021-02-25_21h00.11.728,exp11,2020.2.6,MacIntel,60,,,,,,,,,,,
,,,,,,,,,,,,,,a,1,0.706,space,0.005,0,58,58,178,1,0_targ_16_dist_green/trial4.png,,,0,16,greenverival,a,68,23,M,2021-02-25_21h00.11.728,exp11,2020.2.6,MacIntel,60,,,,,,,,,,,
,,,,,,,,,,,,,,p,1,0.612,space,0.009,0,59,59,99,1,15_dist_green/trial25.png,,,1,15,greenverival,p,68,23,M,2021-02-25_21h00.11.728,exp11,2020.2.6,MacIntel,60,,,,,,,,,,,
,,,,,,,,,,,,,,a,1,0.694,space,0.053,0,60,60,125,1,0_targ_4_dist_green/trial1.png,,,0,4,greenverival,a,68,23,M,2021-02-25_21h00.11.728,exp11,2020.2.6,MacIntel,60,,,,,,,,,,,
,,,,,,,,,,,,,,a,1,0.885,space,0.046,0,61,61,176,1,0_targ_16_dist_green/trial2.png,,,0,16,greenverival,a,68,23,M,2021-02-25_21h00.11.728,exp11,2020.2.6,MacIntel,60,,,,,,,,,,,
,,,,,,,,,,,,,,a,1,0.56,space,0.032,0,62,62,139,1,0_targ_4_dist_green/trial15.png,,,0,4,greenverival,a,68,23,M,2021-02-25_21h00.11.728,exp11,2020.2.6,MacIntel,60,,,,,,,,,,,
,,,,,,,,,,,,,,a,0,0.457,space,0.21,0,63,63,7,1,0_dist_green/trial8.png,,,1,0,greenverival,p,68,23,M,2021-02-25_21h00.11.728,exp11,2020.2.6,MacIntel,60,,,,,,,,,,,
,,,,,,,,,,,,,,a,1,0.552,space,0.015,0,64,64,140,1,0_targ_4_dist_green/trial6.png,,,0,4,greenverival,a,68,23,M,2021-02-25_21h00.11.728,exp11,2020.2.6,MacIntel,60,,,,,,,,,,,
,,,,,,,,,,,,,,a,1,0.561,space,0.023,0,65,65,127,1,0_targ_4_dist_green/trial3.png,,,0,4,greenverival,a,68,23,M,2021-02-25_21h00.11.728,exp11,2020.2.6,MacIntel,60,,,,,,,,,,,
,,,,,,,,,,,,,,p,1,0.678,space,0.041,0,66,66,36,1,3_dist_green/trial12.png,,,1,3,greenverival,p,68,23,M,2021-02-25_21h00.11.728,exp11,2020.2.6,MacIntel,60,,,,,,,,,,,
,,,,,,,,,,,,,,a,1,0.643,space,0.052,0,67,67,153,1,0_targ_10_dist_green/trial4.png,,,0,10,greenverival,a,68,23,M,2021-02-25_21h00.11.728,exp11,2020.2.6,MacIntel,60,,,,,,,,,,,
,,,,,,,,,,,,,,a,1,0.464,space,0.085,0,68,68,129,1,0_targ_4_dist_green/trial5.png,,,0,4,greenverival,a,68,23,M,2021-02-25_21h00.11.728,exp11,2020.2.6,MacIntel,60,,,,,,,,,,,
,,,,,,,,,,,,,,a,1,0.822,space,0.024,0,69,69,192,1,0_targ_16_dist_green/trial18.png,,,0,16,greenverival,a,68,23,M,2021-02-25_21h00.11.728,exp11,2020.2.6,MacIntel,60,,,,,,,,,,,
,,,,,,,,,,,,,,p,1,0.794,space,0.073,0,70,70,14,1,0_dist_green/trial15.png,,,1,0,greenverival,p,68,23,M,2021-02-25_21h00.11.728,exp11,2020.2.6,MacIntel,60,,,,,,,,,,,
,,,,,,,,,,,,,,p,1,0.695,space,0.058,0,71,71,4,1,0_dist_green/trial5.png,,,1,0,greenverival,p,68,23,M,2021-02-25_21h00.11.728,exp11,2020.2.6,MacIntel,60,,,,,,,,,,,
,,,,,,,,,,,,,,a,1,0.695,space,0.021,0,72,72,175,1,0_targ_16_dist_green/trial1.png,,,0,16,greenverival,a,68,23,M,2021-02-25_21h00.11.728,exp11,2020.2.6,MacIntel,60,,,,,,,,,,,
,,,,,,,,,,,,,,p,1,0.623,space,0.14,0,73,73,12,1,0_dist_green/trial13.png,,,1,0,greenverival,p,68,23,M,2021-02-25_21h00.11.728,exp11,2020.2.6,MacIntel,60,,,,,,,,,,,
,,,,,,,,,,,,,,p,1,0.512,space,0.024,0,74,74,88,1,15_dist_green/trial14.png,,,1,15,greenverival,p,68,23,M,2021-02-25_21h00.11.728,exp11,2020.2.6,MacIntel,60,,,,,,,,,,,
,,,,,,,,,,,,,,p,1,0.506,space,0.003,0,75,75,0,1,0_dist_green/trial1.png,,,1,0,greenverival,p,68,23,M,2021-02-25_21h00.11.728,exp11,2020.2.6,MacIntel,60,,,,,,,,,,,
,,,,,,,,,,,,,,a,1,0.725,space,0.023,0,76,76,154,1,0_targ_10_dist_green/trial5.png,,,0,10,greenverival,a,68,23,M,2021-02-25_21h00.11.728,exp11,2020.2.6,MacIntel,60,,,,,,,,,,,
,,,,,,,,,,,,,,a,1,0.593,space,0.056,0,77,77,182,1,0_targ_16_dist_green/trial8.png,,,0,16,greenverival,a,68,23,M,2021-02-25_21h00.11.728,exp11,2020.2.6,MacIntel,60,,,,,,,,,,,
,,,,,,,,,,,,,,a,1,0.785,space,0.027,0,78,78,137,1,0_targ_4_dist_green/trial13.png,,,0,4,greenverival,a,68,23,M,2021-02-25_21h00.11.728,exp11,2020.2.6,MacIntel,60,,,,,,,,,,,
,,,,,,,,,,,,,,a,0,0.872,space,0.072,0,79,79,53,1,9_dist_green/trial4.png,,,1,9,greenverival,p,68,23,M,2021-02-25_21h00.11.728,exp11,2020.2.6,MacIntel,60,,,,,,,,,,,
,,,,,,,,,,,,,,a,0,0.875,space,0.624,0,80,80,50,1,9_dist_green/trial1.png,,,1,9,greenverival,p,68,23,M,2021-02-25_21h00.11.728,exp11,2020.2.6,MacIntel,60,,,,,,,,,,,
,,,,,,,,,,,,,,a,1,1.242,space,0.014,0,81,81,130,1,0_targ_4_dist_green/trial6.png,,,0,4,greenverival,a,68,23,M,2021-02-25_21h00.11.728,exp11,2020.2.6,MacIntel,60,,,,,,,,,,,
,,,,,,,,,,,,,,p,1,0.58,space,0.039,0,82,82,40,1,3_dist_green/trial16.png,,,1,3,greenverival,p,68,23,M,2021-02-25_21h00.11.728,exp11,2020.2.6,MacIntel,60,,,,,,,,,,,
,,,,,,,,,,,,,,p,1,0.582,space,0.021,0,83,83,34,1,3_dist_green/trial10.png,,,1,3,greenverival,p,68,23,M,2021-02-25_21h00.11.728,exp11,2020.2.6,MacIntel,60,,,,,,,,,,,
,,,,,,,,,,,,,,p,1,0.412,space,0.028,0,84,84,21,1,0_dist_green/trial22.png,,,1,0,greenverival,p,68,23,M,2021-02-25_21h00.11.728,exp11,2020.2.6,MacIntel,60,,,,,,,,,,,
,,,,,,,,,,,,,,p,1,0.379,space,0.036,0,85,85,9,1,0_dist_green/trial10.png,,,1,0,greenverival,p,68,23,M,2021-02-25_21h00.11.728,exp11,2020.2.6,MacIntel,60,,,,,,,,,,,
,,,,,,,,,,,,,,a,1,0.761,space,0.02,0,86,86,151,1,0_targ_10_dist_green/trial2.png,,,0,10,greenverival,a,68,23,M,2021-02-25_21h00.11.728,exp11,2020.2.6,MacIntel,60,,,,,,,,,,,
,,,,,,,,,,,,,,p,1,0.827,space,0.007,0,87,87,6,1,0_dist_green/trial7.png,,,1,0,greenverival,p,68,23,M,2021-02-25_21h00.11.728,exp11,2020.2.6,MacIntel,60,,,,,,,,,,,
,,,,,,,,,,,,,,a,1,0.828,space,0.558,0,88,88,161,1,0_targ_10_dist_green/trial12.png,,,0,10,greenverival,a,68,23,M,2021-02-25_21h00.11.728,exp11,2020.2.6,MacIntel,60,,,,,,,,,,,
,,,,,,,,,,,,,,a,1,1.834,space,0.06,0,89,89,110,1,0_targ_1_dist_green/trial11.png,,,0,1,greenverival,a,68,23,M,2021-02-25_21h00.11.728,exp11,2020.2.6,MacIntel,60,,,,,,,,,,,
,,,,,,,,,,,,,,a,1,0.678,space,0.056,0,90,90,135,1,0_targ_4_dist_green/trial11.png,,,0,4,greenverival,a,68,23,M,2021-02-25_21h00.11.728,exp11,2020.2.6,MacIntel,60,,,,,,,,,,,
,,,,,,,,,,,,,,p,1,0.741,space,0.017,0,91,91,61,1,9_dist_green/trial12.png,,,1,9,greenverival,p,68,23,M,2021-02-25_21h00.11.728,exp11,2020.2.6,MacIntel,60,,,,,,,,,,,
,,,,,,,,,,,,,,p,1,0.447,space,0.044,0,92,92,22,1,0_dist_green/trial23.png,,,1,0,greenverival,p,68,23,M,2021-02-25_21h00.11.728,exp11,2020.2.6,MacIntel,60,,,,,,,,,,,
,,,,,,,,,,,,,,a,1,0.745,space,0.056,0,93,93,169,1,0_targ_10_dist_green/trial20.png,,,0,10,greenverival,a,68,23,M,2021-02-25_21h00.11.728,exp11,2020.2.6,MacIntel,60,,,,,,,,,,,
,,,,,,,,,,,,,,a,1,0.709,space,0.039,0,94,94,118,1,0_targ_1_dist_green/trial19.png,,,0,1,greenverival,a,68,23,M,2021-02-25_21h00.11.728,exp11,2020.2.6,MacIntel,60,,,,,,,,,,,
,,,,,,,,,,,,,,a,1,0.55,space,0.034,0,95,95,132,1,0_targ_4_dist_green/trial8.png,,,0,4,greenverival,a,68,23,M,2021-02-25_21h00.11.728,exp11,2020.2.6,MacIntel,60,,,,,,,,,,,
,,,,,,,,,,,,,,a,1,0.893,space,0.04,0,96,96,198,1,0_targ_16_dist_green/trial24.png,,,0,16,greenverival,a,68,23,M,2021-02-25_21h00.11.728,exp11,2020.2.6,MacIntel,60,,,,,,,,,,,
,,,,,,,,,,,,,,a,1,0.635,space,0.003,0,97,97,193,1,0_targ_16_dist_green/trial19.png,,,0,16,greenverival,a,68,23,M,2021-02-25_21h00.11.728,exp11,2020.2.6,MacIntel,60,,,,,,,,,,,
,,,,,,,,,,,,,,a,1,0.635,space,0.048,0,98,98,195,1,0_targ_16_dist_green/trial21.png,,,0,16,greenverival,a,68,23,M,2021-02-25_21h00.11.728,exp11,2020.2.6,MacIntel,60,,,,,,,,,,,
,,,,,,,,,,,,,,p,1,0.632,space,0.036,0,99,99,80,1,15_dist_green/trial6.png,,,1,15,greenverival,p,68,23,M,2021-02-25_21h00.11.728,exp11,2020.2.6,MacIntel,60,,,,,,,,,,,
,,,,,,,,,,,,,,p,1,0.697,space,0.543,0,100,100,60,1,9_dist_green/trial11.png,,,1,9,greenverival,p,68,23,M,2021-02-25_21h00.11.728,exp11,2020.2.6,MacIntel,60,,,,,,,,,,,
,,,,,,,,,,,,,,p,1,0.512,space,0.028,0,101,101,48,1,3_dist_green/trial24.png,,,1,3,greenverival,p,68,23,M,2021-02-25_21h00.11.728,exp11,2020.2.6,MacIntel,60,,,,,,,,,,,
,,,,,,,,,,,,,,a,1,0.727,space,0.071,0,102,102,108,1,0_targ_1_dist_green/trial9.png,,,0,1,greenverival,a,68,23,M,2021-02-25_21h00.11.728,exp11,2020.2.6,MacIntel,60,,,,,,,,,,,
,,,,,,,,,,,,,,a,1,1.441,space,0.021,0,103,103,122,1,0_targ_1_dist_green/trial23.png,,,0,1,greenverival,a,68,23,M,2021-02-25_21h00.11.728,exp11,2020.2.6,MacIntel,60,,,,,,,,,,,
,,,,,,,,,,,,,,a,1,0.466,space,0.073,0,104,104,133,1,0_targ_4_dist_green/trial9.png,,,0,4,greenverival,a,68,23,M,2021-02-25_21h00.11.728,exp11,2020.2.6,MacIntel,60,,,,,,,,,,,
,,,,,,,,,,,,,,a,1,0.443,space,0.121,0,105,105,107,1,0_targ_1_dist_green/trial8.png,,,0,1,greenverival,a,68,23,M,2021-02-25_21h00.11.728,exp11,2020.2.6,MacIntel,60,,,,,,,,,,,
,,,,,,,,,,,,,,a,1,0.524,space,0.037,0,106,106,144,1,0_targ_4_dist_green/trial20.png,,,0,4,greenverival,a,68,23,M,2021-02-25_21h00.11.728,exp11,2020.2.6,MacIntel,60,,,,,,,,,,,
,,,,,,,,,,,,,,a,1,0.562,space,0.057,0,107,107,165,1,0_targ_10_dist_green/trial16.png,,,0,10,greenverival,a,68,23,M,2021-02-25_21h00.11.728,exp11,2020.2.6,MacIntel,60,,,,,,,,,,,
,,,,,,,,,,,,,,p,1,0.617,space,0.068,0,108,108,84,1,15_dist_green/trial10.png,,,1,15,greenverival,p,68,23,M,2021-02-25_21h00.11.728,exp11,2020.2.6,MacIntel,60,,,,,,,,,,,
,,,,,,,,,,,,,,p,1,0.591,space,0.01,0,109,109,86,1,15_dist_green/trial12.png,,,1,15,greenverival,p,68,23,M,2021-02-25_21h00.11.728,exp11,2020.2.6,MacIntel,60,,,,,,,,,,,
,,,,,,,,,,,,,,p,1,0.93,space,0.062,0,110,110,47,1,3_dist_green/trial23.png,,,1,3,greenverival,p,68,23,M,2021-02-25_21h00.11.728,exp11,2020.2.6,MacIntel,60,,,,,,,,,,,
,,,,,,,,,,,,,,p,1,0.729,space,0.07,0,111,111,73,1,9_dist_green/trial24.png,,,1,9,greenverival,p,68,23,M,2021-02-25_21h00.11.728,exp11,2020.2.6,MacIntel,60,,,,,,,,,,,
,,,,,,,,,,,,,,a,1,0.843,space,0.036,0,112,112,196,1,0_targ_16_dist_green/trial22.png,,,0,16,greenverival,a,68,23,M,2021-02-25_21h00.11.728,exp11,2020.2.6,MacIntel,60,,,,,,,,,,,
,,,,,,,,,,,,,,a,1,0.762,space,0.04,0,113,113,183,1,0_targ_16_dist_green/trial9.png,,,0,16,greenverival,a,68,23,M,2021-02-25_21h00.11.728,exp11,2020.2.6,MacIntel,60,,,,,,,,,,,
,,,,,,,,,,,,,,a,1,0.88,space,0.071,0,114,114,143,1,0_targ_4_dist_green/trial19.png,,,0,4,greenverival,a,68,23,M,2021-02-25_21h00.11.728,exp11,2020.2.6,MacIntel,60,,,,,,,,,,,
,,,,,,,,,,,,,,a,1,0.525,space,0.086,0,115,115,146,1,0_targ_4_dist_green/trial22.png,,,0,4,greenverival,a,68,23,M,2021-02-25_21h00.11.728,exp11,2020.2.6,MacIntel,60,,,,,,,,,,,
,,,,,,,,,,,,,,p,1,0.64,space,0.005,0,116,116,25,1,3_dist_green/trial1.png,,,1,3,greenverival,p,68,23,M,2021-02-25_21h00.11.728,exp11,2020.2.6,MacIntel,60,,,,,,,,,,,
,,,,,,,,,,,,,,a,1,0.548,space,0.069,0,117,117,109,1,0_targ_1_dist_green/trial10.png,,,0,1,greenverival,a,68,23,M,2021-02-25_21h00.11.728,exp11,2020.2.6,MacIntel,60,,,,,,,,,,,
,,,,,,,,,,,,,,a,1,0.691,space,0.054,0,118,118,120,1,0_targ_1_dist_green/trial21.png,,,0,1,greenverival,a,68,23,M,2021-02-25_21h00.11.728,exp11,2020.2.6,MacIntel,60,,,,,,,,,,,
,,,,,,,,,,,,,,a,1,0.565,space,0.086,0,119,119,128,1,0_targ_4_dist_green/trial4.png,,,0,4,greenverival,a,68,23,M,2021-02-25_21h00.11.728,exp11,2020.2.6,MacIntel,60,,,,,,,,,,,
,,,,,,,,,,,,,,a,1,0.579,space,0.072,0,120,120,112,1,0_targ_1_dist_green/trial13.png,,,0,1,greenverival,a,68,23,M,2021-02-25_21h00.11.728,exp11,2020.2.6,MacIntel,60,,,,,,,,,,,
,,,,,,,,,,,,,,p,1,0.791,space,0.011,0,121,121,45,1,3_dist_green/trial21.png,,,1,3,greenverival,p,68,23,M,2021-02-25_21h00.11.728,exp11,2020.2.6,MacIntel,60,,,,,,,,,,,
,,,,,,,,,,,,,,p,1,0.752,space,0.036,0,122,122,28,1,3_dist_green/trial4.png,,,1,3,greenverival,p,68,23,M,2021-02-25_21h00.11.728,exp11,2020.2.6,MacIntel,60,,,,,,,,,,,
,,,,,,,,,,,,,,p,1,0.503,space,0.008,0,123,123,5,1,0_dist_green/trial6.png,,,1,0,greenverival,p,68,23,M,2021-02-25_21h00.11.728,exp11,2020.2.6,MacIntel,60,,,,,,,,,,,
,,,,,,,,,,,,,,a,1,0.763,space,0.068,0,124,124,100,1,0_targ_1_dist_green/trial1.png,,,0,1,greenverival,a,68,23,M,2021-02-25_21h00.11.728,exp11,2020.2.6,MacIntel,60,,,,,,,,,,,
,,,,,,,,,,,,,,a,1,0.86,space,0.031,0,125,125,170,1,0_targ_10_dist_green/trial21.png,,,0,10,greenverival,a,68,23,M,2021-02-25_21h00.11.728,exp11,2020.2.6,MacIntel,60,,,,,,,,,,,
,,,,,,,,,,,,,,p,1,0.508,space,0.669,0,126,126,3,1,0_dist_green/trial4.png,,,1,0,greenverival,p,68,23,M,2021-02-25_21h00.11.728,exp11,2020.2.6,MacIntel,60,,,,,,,,,,,
,,,,,,,,,,,,,,p,1,0.577,space,0.073,0,127,127,38,1,3_dist_green/trial14.png,,,1,3,greenverival,p,68,23,M,2021-02-25_21h00.11.728,exp11,2020.2.6,MacIntel,60,,,,,,,,,,,
,,,,,,,,,,,,,,a,1,0.553,space,0.072,0,128,128,152,1,0_targ_10_dist_green/trial3.png,,,0,10,greenverival,a,68,23,M,2021-02-25_21h00.11.728,exp11,2020.2.6,MacIntel,60,,,,,,,,,,,
,,,,,,,,,,,,,,a,1,0.864,space,0.009,0,129,129,199,1,0_targ_16_dist_green/trial25.png,,,0,16,greenverival,a,68,23,M,2021-02-25_21h00.11.728,exp11,2020.2.6,MacIntel,60,,,,,,,,,,,
,,,,,,,,,,,,,,p,1,0.713,space,0.062,0,130,130,72,1,9_dist_green/trial23.png,,,1,9,greenverival,p,68,23,M,2021-02-25_21h00.11.728,exp11,2020.2.6,MacIntel,60,,,,,,,,,,,
,,,,,,,,,,,,,,p,1,0.784,space,0.035,0,131,131,97,1,15_dist_green/trial23.png,,,1,15,greenverival,p,68,23,M,2021-02-25_21h00.11.728,exp11,2020.2.6,MacIntel,60,,,,,,,,,,,
,,,,,,,,,,,,,,a,1,1.021,space,0.068,0,132,132,121,1,0_targ_1_dist_green/trial22.png,,,0,1,greenverival,a,68,23,M,2021-02-25_21h00.11.728,exp11,2020.2.6,MacIntel,60,,,,,,,,,,,
,,,,,,,,,,,,,,a,1,0.509,space,0.06,0,133,133,141,1,0_targ_4_dist_green/trial17.png,,,0,4,greenverival,a,68,23,M,2021-02-25_21h00.11.728,exp11,2020.2.6,MacIntel,60,,,,,,,,,,,
,,,,,,,,,,,,,,a,1,0.817,space,0.029,0,134,134,194,1,0_targ_16_dist_green/trial20.png,,,0,16,greenverival,a,68,23,M,2021-02-25_21h00.11.728,exp11,2020.2.6,MacIntel,60,,,,,,,,,,,
,,,,,,,,,,,,,,a,0,0.72,space,0.609,0,135,135,19,1,0_dist_green/trial20.png,,,1,0,greenverival,p,68,23,M,2021-02-25_21h00.11.728,exp11,2020.2.6,MacIntel,60,,,,,,,,,,,
,,,,,,,,,,,,,,p,1,0.677,space,0.011,0,136,136,98,1,15_dist_green/trial24.png,,,1,15,greenverival,p,68,23,M,2021-02-25_21h00.11.728,exp11,2020.2.6,MacIntel,60,,,,,,,,,,,
,,,,,,,,,,,,,,a,1,0.659,space,0.028,0,137,137,159,1,0_targ_10_dist_green/trial10.png,,,0,10,greenverival,a,68,23,M,2021-02-25_21h00.11.728,exp11,2020.2.6,MacIntel,60,,,,,,,,,,,
,,,,,,,,,,,,,,p,1,0.698,space,0.019,0,138,138,64,1,9_dist_green/trial15.png,,,1,9,greenverival,p,68,23,M,2021-02-25_21h00.11.728,exp11,2020.2.6,MacIntel,60,,,,,,,,,,,
,,,,,,,,,,,,,,a,0,0.508,space,0.068,0,139,139,59,1,9_dist_green/trial10.png,,,1,9,greenverival,p,68,23,M,2021-02-25_21h00.11.728,exp11,2020.2.6,MacIntel,60,,,,,,,,,,,
,,,,,,,,,,,,,,a,1,1.546,space,0.041,0,140,140,197,1,0_targ_16_dist_green/trial23.png,,,0,16,greenverival,a,68,23,M,2021-02-25_21h00.11.728,exp11,2020.2.6,MacIntel,60,,,,,,,,,,,
,,,,,,,,,,,,,,a,1,0.631,space,0.125,0,141,141,145,1,0_targ_4_dist_green/trial21.png,,,0,4,greenverival,a,68,23,M,2021-02-25_21h00.11.728,exp11,2020.2.6,MacIntel,60,,,,,,,,,,,
,,,,,,,,,,,,,,p,1,1.2,space,0.055,0,142,142,58,1,9_dist_green/trial9.png,,,1,9,greenverival,p,68,23,M,2021-02-25_21h00.11.728,exp11,2020.2.6,MacIntel,60,,,,,,,,,,,
,,,,,,,,,,,,,,p,1,0.484,space,0.039,0,143,143,15,1,0_dist_green/trial16.png,,,1,0,greenverival,p,68,23,M,2021-02-25_21h00.11.728,exp11,2020.2.6,MacIntel,60,,,,,,,,,,,
,,,,,,,,,,,,,,a,1,0.83,space,0.072,0,144,144,168,1,0_targ_10_dist_green/trial19.png,,,0,10,greenverival,a,68,23,M,2021-02-25_21h00.11.728,exp11,2020.2.6,MacIntel,60,,,,,,,,,,,
,,,,,,,,,,,,,,a,1,0.746,space,0.737,0,145,145,138,1,0_targ_4_dist_green/trial14.png,,,0,4,greenverival,a,68,23,M,2021-02-25_21h00.11.728,exp11,2020.2.6,MacIntel,60,,,,,,,,,,,
,,,,,,,,,,,,,,p,1,0.559,space,0.028,0,146,146,93,1,15_dist_green/trial19.png,,,1,15,greenverival,p,68,23,M,2021-02-25_21h00.11.728,exp11,2020.2.6,MacIntel,60,,,,,,,,,,,
,,,,,,,,,,,,,,a,1,0.576,space,0.025,0,147,147,113,1,0_targ_1_dist_green/trial14.png,,,0,1,greenverival,a,68,23,M,2021-02-25_21h00.11.728,exp11,2020.2.6,MacIntel,60,,,,,,,,,,,
,,,,,,,,,,,,,,p,1,0.596,space,0.039,0,148,148,33,1,3_dist_green/trial9.png,,,1,3,greenverival,p,68,23,M,2021-02-25_21h00.11.728,exp11,2020.2.6,MacIntel,60,,,,,,,,,,,
,,,,,,,,,,,,,,a,1,0.692,space,0.038,0,149,149,187,1,0_targ_16_dist_green/trial13.png,,,0,16,greenverival,a,68,23,M,2021-02-25_21h00.11.728,exp11,2020.2.6,MacIntel,60,,,,,,,,,,,
,,,,,,,,,,,,,,p,1,0.495,space,0.056,0,150,150,63,1,9_dist_green/trial14.png,,,1,9,greenverival,p,68,23,M,2021-02-25_21h00.11.728,exp11,2020.2.6,MacIntel,60,,,,,,,,,,,
,,,,,,,,,,,,,,a,1,0.547,space,0.054,0,151,151,186,1,0_targ_16_dist_green/trial12.png,,,0,16,greenverival,a,68,23,M,2021-02-25_21h00.11.728,exp11,2020.2.6,MacIntel,60,,,,,,,,,,,
,,,,,,,,,,,,,,p,1,0.942,space,0.059,0,152,152,56,1,9_dist_green/trial7.png,,,1,9,greenverival,p,68,23,M,2021-02-25_21h00.11.728,exp11,2020.2.6,MacIntel,60,,,,,,,,,,,
,,,,,,,,,,,,,,p,1,0.677,space,0.029,0,153,153,42,1,3_dist_green/trial18.png,,,1,3,greenverival,p,68,23,M,2021-02-25_21h00.11.728,exp11,2020.2.6,MacIntel,60,,,,,,,,,,,
,,,,,,,,,,,,,,p,1,0.731,space,0.058,0,154,154,78,1,15_dist_green/trial4.png,,,1,15,greenverival,p,68,23,M,2021-02-25_21h00.11.728,exp11,2020.2.6,MacIntel,60,,,,,,,,,,,
,,,,,,,,,,,,,,p,1,0.493,space,0.045,0,155,155,1,1,0_dist_green/trial2.png,,,1,0,greenverival,p,68,23,M,2021-02-25_21h00.11.728,exp11,2020.2.6,MacIntel,60,,,,,,,,,,,
,,,,,,,,,,,,,,p,1,0.492,space,0.053,0,156,156,92,1,15_dist_green/trial18.png,,,1,15,greenverival,p,68,23,M,2021-02-25_21h00.11.728,exp11,2020.2.6,MacIntel,60,,,,,,,,,,,
,,,,,,,,,,,,,,a,1,0.673,space,0.046,0,157,157,126,1,0_targ_4_dist_green/trial2.png,,,0,4,greenverival,a,68,23,M,2021-02-25_21h00.11.728,exp11,2020.2.6,MacIntel,60,,,,,,,,,,,
,,,,,,,,,,,,,,p,1,0.748,space,0.091,0,158,158,10,1,0_dist_green/trial11.png,,,1,0,greenverival,p,68,23,M,2021-02-25_21h00.11.728,exp11,2020.2.6,MacIntel,60,,,,,,,,,,,
,,,,,,,,,,,,,,p,1,0.886,space,0.057,0,159,159,31,1,3_dist_green/trial7.png,,,1,3,greenverival,p,68,23,M,2021-02-25_21h00.11.728,exp11,2020.2.6,MacIntel,60,,,,,,,,,,,
,,,,,,,,,,,,,,a,1,0.804,space,0.049,0,160,160,124,1,0_targ_1_dist_green/trial25.png,,,0,1,greenverival,a,68,23,M,2021-02-25_21h00.11.728,exp11,2020.2.6,MacIntel,60,,,,,,,,,,,
,,,,,,,,,,,,,,p,1,0.994,space,0.609,0,161,161,17,1,0_dist_green/trial18.png,,,1,0,greenverival,p,68,23,M,2021-02-25_21h00.11.728,exp11,2020.2.6,MacIntel,60,,,,,,,,,,,
,,,,,,,,,,,,,,a,1,0.55,space,0.038,0,162,162,136,1,0_targ_4_dist_green/trial12.png,,,0,4,greenverival,a,68,23,M,2021-02-25_21h00.11.728,exp11,2020.2.6,MacIntel,60,,,,,,,,,,,
,,,,,,,,,,,,,,a,1,0.683,space,0.073,0,163,163,166,1,0_targ_10_dist_green/trial17.png,,,0,10,greenverival,a,68,23,M,2021-02-25_21h00.11.728,exp11,2020.2.6,MacIntel,60,,,,,,,,,,,
,,,,,,,,,,,,,,a,1,0.547,space,0.02,0,164,164,171,1,0_targ_10_dist_green/trial22.png,,,0,10,greenverival,a,68,23,M,2021-02-25_21h00.11.728,exp11,2020.2.6,MacIntel,60,,,,,,,,,,,
,,,,,,,,,,,,,,a,1,0.608,space,0.023,0,165,165,167,1,0_targ_10_dist_green/trial18.png,,,0,10,greenverival,a,68,23,M,2021-02-25_21h00.11.728,exp11,2020.2.6,MacIntel,60,,,,,,,,,,,
,,,,,,,,,,,,,,p,1,0.761,space,0.021,0,166,166,11,1,0_dist_green/trial12.png,,,1,0,greenverival,p,68,23,M,2021-02-25_21h00.11.728,exp11,2020.2.6,MacIntel,60,,,,,,,,,,,
,,,,,,,,,,,,,,a,0,0.866,space,0.43,0,167,167,29,1,3_dist_green/trial5.png,,,1,3,greenverival,p,68,23,M,2021-02-25_21h00.11.728,exp11,2020.2.6,MacIntel,60,,,,,,,,,,,
,,,,,,,,,,,,,,a,1,0.868,space,0.084,0,168,168,119,1,0_targ_1_dist_green/trial20.png,,,0,1,greenverival,a,68,23,M,2021-02-25_21h00.11.728,exp11,2020.2.6,MacIntel,60,,,,,,,,,,,
,,,,,,,,,,,,,,p,1,0.675,space,0.064,0,169,169,44,1,3_dist_green/trial20.png,,,1,3,greenverival,p,68,23,M,2021-02-25_21h00.11.728,exp11,2020.2.6,MacIntel,60,,,,,,,,,,,
,,,,,,,,,,,,,,a,1,0.807,space,0.069,0,170,170,181,1,0_targ_16_dist_green/trial7.png,,,0,16,greenverival,a,68,23,M,2021-02-25_21h00.11.728,exp11,2020.2.6,MacIntel,60,,,,,,,,,,,
,,,,,,,,,,,,,,a,1,0.795,space,0.056,0,171,171,179,1,0_targ_16_dist_green/trial5.png,,,0,16,greenverival,a,68,23,M,2021-02-25_21h00.11.728,exp11,2020.2.6,MacIntel,60,,,,,,,,,,,
,,,,,,,,,,,,,,p,1,0.815,space,0.007,0,172,172,75,1,15_dist_green/trial1.png,,,1,15,greenverival,p,68,23,M,2021-02-25_21h00.11.728,exp11,2020.2.6,MacIntel,60,,,,,,,,,,,
,,,,,,,,,,,,,,p,1,0.601,space,0.02,0,173,173,24,1,0_dist_green/trial25.png,,,1,0,greenverival,p,68,23,M,2021-02-25_21h00.11.728,exp11,2020.2.6,MacIntel,60,,,,,,,,,,,
,,,,,,,,,,,,,,a,1,0.661,space,0.023,0,174,174,185,1,0_targ_16_dist_green/trial11.png,,,0,16,greenverival,a,68,23,M,2021-02-25_21h00.11.728,exp11,2020.2.6,MacIntel,60,,,,,,,,,,,
,,,,,,,,,,,,,,a,1,0.688,space,0.024,0,175,175,106,1,0_targ_1_dist_green/trial7.png,,,0,1,greenverival,a,68,23,M,2021-02-25_21h00.11.728,exp11,2020.2.6,MacIntel,60,,,,,,,,,,,
,,,,,,,,,,,,,,a,1,1.161,space,0.044,0,176,176,188,1,0_targ_16_dist_green/trial14.png,,,0,16,greenverival,a,68,23,M,2021-02-25_21h00.11.728,exp11,2020.2.6,MacIntel,60,,,,,,,,,,,
,,,,,,,,,,,,,,p,1,0.567,space,0.04,0,177,177,87,1,15_dist_green/trial13.png,,,1,15,greenverival,p,68,23,M,2021-02-25_21h00.11.728,exp11,2020.2.6,MacIntel,60,,,,,,,,,,,
,,,,,,,,,,,,,,p,1,0.624,space,0.016,0,178,178,43,1,3_dist_green/trial19.png,,,1,3,greenverival,p,68,23,M,2021-02-25_21h00.11.728,exp11,2020.2.6,MacIntel,60,,,,,,,,,,,
,,,,,,,,,,,,,,p,1,0.557,space,0.008,0,179,179,69,1,9_dist_green/trial20.png,,,1,9,greenverival,p,68,23,M,2021-02-25_21h00.11.728,exp11,2020.2.6,MacIntel,60,,,,,,,,,,,
,,,,,,,,,,,,,,p,1,0.712,space,0.562,0,180,180,18,1,0_dist_green/trial19.png,,,1,0,greenverival,p,68,23,M,2021-02-25_21h00.11.728,exp11,2020.2.6,MacIntel,60,,,,,,,,,,,
,,,,,,,,,,,,,,p,1,0.495,space,0.036,0,181,181,2,1,0_dist_green/trial3.png,,,1,0,greenverival,p,68,23,M,2021-02-25_21h00.11.728,exp11,2020.2.6,MacIntel,60,,,,,,,,,,,
,,,,,,,,,,,,,,a,1,0.495,space,0.07,0,182,182,114,1,0_targ_1_dist_green/trial15.png,,,0,1,greenverival,a,68,23,M,2021-02-25_21h00.11.728,exp11,2020.2.6,MacIntel,60,,,,,,,,,,,
,,,,,,,,,,,,,,p,1,0.542,space,0.003,0,183,183,8,1,0_dist_green/trial9.png,,,1,0,greenverival,p,68,23,M,2021-02-25_21h00.11.728,exp11,2020.2.6,MacIntel,60,,,,,,,,,,,
,,,,,,,,,,,,,,a,1,0.674,space,0.035,0,184,184,157,1,0_targ_10_dist_green/trial8.png,,,0,10,greenverival,a,68,23,M,2021-02-25_21h00.11.728,exp11,2020.2.6,MacIntel,60,,,,,,,,,,,
,,,,,,,,,,,,,,p,1,0.528,space,0.025,0,185,185,26,1,3_dist_green/trial2.png,,,1,3,greenverival,p,68,23,M,2021-02-25_21h00.11.728,exp11,2020.2.6,MacIntel,60,,,,,,,,,,,
,,,,,,,,,,,,,,p,1,0.642,space,0.842,0,186,186,62,1,9_dist_green/trial13.png,,,1,9,greenverival,p,68,23,M,2021-02-25_21h00.11.728,exp11,2020.2.6,MacIntel,60,,,,,,,,,,,
,,,,,,,,,,,,,,p,1,0.458,space,0.042,0,187,187,20,1,0_dist_green/trial21.png,,,1,0,greenverival,p,68,23,M,2021-02-25_21h00.11.728,exp11,2020.2.6,MacIntel,60,,,,,,,,,,,
,,,,,,,,,,,,,,p,1,0.728,space,0.425,0,188,188,94,1,15_dist_green/trial20.png,,,1,15,greenverival,p,68,23,M,2021-02-25_21h00.11.728,exp11,2020.2.6,MacIntel,60,,,,,,,,,,,
,,,,,,,,,,,,,,p,1,0.578,space,0.037,0,189,189,71,1,9_dist_green/trial22.png,,,1,9,greenverival,p,68,23,M,2021-02-25_21h00.11.728,exp11,2020.2.6,MacIntel,60,,,,,,,,,,,
,,,,,,,,,,,,,,a,1,0.625,space,0.021,0,190,190,134,1,0_targ_4_dist_green/trial10.png,,,0,4,greenverival,a,68,23,M,2021-02-25_21h00.11.728,exp11,2020.2.6,MacIntel,60,,,,,,,,,,,
,,,,,,,,,,,,,,a,1,1.408,space,0.386,0,191,191,163,1,0_targ_10_dist_green/trial14.png,,,0,10,greenverival,a,68,23,M,2021-02-25_21h00.11.728,exp11,2020.2.6,MacIntel,60,,,,,,,,,,,
,,,,,,,,,,,,,,a,1,0.714,space,0.322,0,192,192,131,1,0_targ_4_dist_green/trial7.png,,,0,4,greenverival,a,68,23,M,2021-02-25_21h00.11.728,exp11,2020.2.6,MacIntel,60,,,,,,,,,,,
,,,,,,,,,,,,,,p,1,1.346,space,0.359,0,193,193,77,1,15_dist_green/trial3.png,,,1,15,greenverival,p,68,23,M,2021-02-25_21h00.11.728,exp11,2020.2.6,MacIntel,60,,,,,,,,,,,
,,,,,,,,,,,,,,p,1,1.045,space,0.357,0,194,194,65,1,9_dist_green/trial16.png,,,1,9,greenverival,p,68,23,M,2021-02-25_21h00.11.728,exp11,2020.2.6,MacIntel,60,,,,,,,,,,,
,,,,,,,,,,,,,,p,1,0.591,space,0.281,0,195,195,32,1,3_dist_green/trial8.png,,,1,3,greenverival,p,68,23,M,2021-02-25_21h00.11.728,exp11,2020.2.6,MacIntel,60,,,,,,,,,,,
,,,,,,,,,,,,,,p,1,0.685,space,0.088,0,196,196,54,1,9_dist_green/trial5.png,,,1,9,greenverival,p,68,23,M,2021-02-25_21h00.11.728,exp11,2020.2.6,MacIntel,60,,,,,,,,,,,
,,,,,,,,,,,,,,p,1,0.477,space,0.403,0,197,197,13,1,0_dist_green/trial14.png,,,1,0,greenverival,p,68,23,M,2021-02-25_21h00.11.728,exp11,2020.2.6,MacIntel,60,,,,,,,,,,,
,,,,,,,,,,,,,,p,1,0.498,space,0.061,0,198,198,46,1,3_dist_green/trial22.png,,,1,3,greenverival,p,68,23,M,2021-02-25_21h00.11.728,exp11,2020.2.6,MacIntel,60,,,,,,,,,,,
,,,,,,,,,,,,,,p,1,0.409,space,0.042,0,199,199,37,1,3_dist_green/trial13.png,,,1,3,greenverival,p,68,23,M,2021-02-25_21h00.11.728,exp11,2020.2.6,MacIntel,60,,,,,,,,,,,
,,,,,,,,,,,,,,,,,,,,,,,,,,,,,,,68,23,M,2021-02-25_21h00.11.728,exp11,2020.2.6,MacIntel,60,0,1,1,0,1,conGreen.xlsx,green vertical,Look for green vertical bar (target) and indicate if it is present or absent in the array. If green vertical target is present press 'p' and if absent press 'a'. Press SPACE to start.,,,
