key_resp_6.keys,key_resp_6.rt,key_resp_7.keys,key_resp_7.rt,key_resp_8.keys,key_resp_8.rt,key_resp_10.keys,key_resp_10.rt,key_resp_9.keys,key_resp_9.rt,key_resp_3.keys,key_resp_3.rt,key_resp_5.keys,key_resp_5.rt,key_resp.keys,key_resp.corr,key_resp.rt,key_resp_4.keys,key_resp_4.rt,trials.thisRepN,trials.thisTrialN,trials.thisN,trials.thisIndex,trials.ran,ImageFile,tarPos,tarSize,targPres,numDist,targetName,correctAns,participant,age,sex,date,expName,psychopyVersion,OS,frameRate,trials_2.thisRepN,trials_2.thisTrialN,trials_2.thisN,trials_2.thisIndex,trials_2.ran,condsFile,targName,instructionText,colTarget,sizeTarg,posit
space,2.099,space,0.651,space,0.505,space,0.401,space,0.39,space,0.402,space,0.743,a,1,2.105,space,0.416,0,0,0,105,1,0_targ_1_dist_red/trial6.png,,,0,1,redHorizontal,a,69,21,F,2021-02-26_15h07.27.384,exp11,2020.2.6,MacIntel,60,,,,,,,,,,,
,,,,,,,,,,,,,,a,1,1.463,space,0.275,0,1,1,179,1,0_targ_16_dist_red/trial5.png,,,0,16,redHorizontal,a,69,21,F,2021-02-26_15h07.27.384,exp11,2020.2.6,MacIntel,60,,,,,,,,,,,
,,,,,,,,,,,,,,a,1,0.961,space,0.289,0,2,2,190,1,0_targ_16_dist_red/trial16.png,,,0,16,redHorizontal,a,69,21,F,2021-02-26_15h07.27.384,exp11,2020.2.6,MacIntel,60,,,,,,,,,,,
,,,,,,,,,,,,,,p,1,1.073,space,0.427,0,3,3,37,1,3_dist_red/trial13.png,,,1,3,redHorizontal,p,69,21,F,2021-02-26_15h07.27.384,exp11,2020.2.6,MacIntel,60,,,,,,,,,,,
,,,,,,,,,,,,,,p,1,1.212,space,0.243,0,4,4,58,1,9_dist_red/trial9.png,,,1,9,redHorizontal,p,69,21,F,2021-02-26_15h07.27.384,exp11,2020.2.6,MacIntel,60,,,,,,,,,,,
,,,,,,,,,,,,,,a,1,0.976,space,0.212,0,5,5,174,1,0_targ_10_dist_red/trial25.png,,,0,10,redHorizontal,a,69,21,F,2021-02-26_15h07.27.384,exp11,2020.2.6,MacIntel,60,,,,,,,,,,,
,,,,,,,,,,,,,,p,1,1.029,space,0.188,0,6,6,74,1,9_dist_red/trial25.png,,,1,9,redHorizontal,p,69,21,F,2021-02-26_15h07.27.384,exp11,2020.2.6,MacIntel,60,,,,,,,,,,,
,,,,,,,,,,,,,,p,1,0.863,space,0.189,0,7,7,83,1,15_dist_red/trial9.png,,,1,15,redHorizontal,p,69,21,F,2021-02-26_15h07.27.384,exp11,2020.2.6,MacIntel,60,,,,,,,,,,,
,,,,,,,,,,,,,,p,1,0.861,space,0.154,0,8,8,68,1,9_dist_red/trial19.png,,,1,9,redHorizontal,p,69,21,F,2021-02-26_15h07.27.384,exp11,2020.2.6,MacIntel,60,,,,,,,,,,,
,,,,,,,,,,,,,,a,1,1.958,space,0.334,0,9,9,141,1,0_targ_4_dist_red/trial17.png,,,0,4,redHorizontal,a,69,21,F,2021-02-26_15h07.27.384,exp11,2020.2.6,MacIntel,60,,,,,,,,,,,
,,,,,,,,,,,,,,a,1,1.129,space,0.132,0,10,10,164,1,0_targ_10_dist_red/trial15.png,,,0,10,redHorizontal,a,69,21,F,2021-02-26_15h07.27.384,exp11,2020.2.6,MacIntel,60,,,,,,,,,,,
,,,,,,,,,,,,,,a,1,1.079,space,0.149,0,11,11,135,1,0_targ_4_dist_red/trial11.png,,,0,4,redHorizontal,a,69,21,F,2021-02-26_15h07.27.384,exp11,2020.2.6,MacIntel,60,,,,,,,,,,,
,,,,,,,,,,,,,,p,1,0.958,space,0.19,0,12,12,56,1,9_dist_red/trial7.png,,,1,9,redHorizontal,p,69,21,F,2021-02-26_15h07.27.384,exp11,2020.2.6,MacIntel,60,,,,,,,,,,,
,,,,,,,,,,,,,,p,1,0.843,space,0.225,0,13,13,65,1,9_dist_red/trial16.png,,,1,9,redHorizontal,p,69,21,F,2021-02-26_15h07.27.384,exp11,2020.2.6,MacIntel,60,,,,,,,,,,,
,,,,,,,,,,,,,,p,1,0.945,space,0.363,0,14,14,8,1,0_dist_red/trial9.png,,,1,0,redHorizontal,p,69,21,F,2021-02-26_15h07.27.384,exp11,2020.2.6,MacIntel,60,,,,,,,,,,,
,,,,,,,,,,,,,,p,1,0.92,space,0.204,0,15,15,52,1,9_dist_red/trial3.png,,,1,9,redHorizontal,p,69,21,F,2021-02-26_15h07.27.384,exp11,2020.2.6,MacIntel,60,,,,,,,,,,,
,,,,,,,,,,,,,,p,1,0.875,space,0.204,0,16,16,64,1,9_dist_red/trial15.png,,,1,9,redHorizontal,p,69,21,F,2021-02-26_15h07.27.384,exp11,2020.2.6,MacIntel,60,,,,,,,,,,,
,,,,,,,,,,,,,,p,1,1.379,space,0.219,0,17,17,70,1,9_dist_red/trial21.png,,,1,9,redHorizontal,p,69,21,F,2021-02-26_15h07.27.384,exp11,2020.2.6,MacIntel,60,,,,,,,,,,,
,,,,,,,,,,,,,,a,1,1.674,space,0.269,0,18,18,153,1,0_targ_10_dist_red/trial4.png,,,0,10,redHorizontal,a,69,21,F,2021-02-26_15h07.27.384,exp11,2020.2.6,MacIntel,60,,,,,,,,,,,
,,,,,,,,,,,,,,p,0,0.934,space,0.295,0,19,19,146,1,0_targ_4_dist_red/trial22.png,,,0,4,redHorizontal,a,69,21,F,2021-02-26_15h07.27.384,exp11,2020.2.6,MacIntel,60,,,,,,,,,,,
,,,,,,,,,,,,,,p,1,0.712,space,0.17,0,20,20,3,1,0_dist_red/trial4.png,,,1,0,redHorizontal,p,69,21,F,2021-02-26_15h07.27.384,exp11,2020.2.6,MacIntel,60,,,,,,,,,,,
,,,,,,,,,,,,,,p,1,1.125,space,0.223,0,21,21,95,1,15_dist_red/trial21.png,,,1,15,redHorizontal,p,69,21,F,2021-02-26_15h07.27.384,exp11,2020.2.6,MacIntel,60,,,,,,,,,,,
,,,,,,,,,,,,,,p,0,1.135,space,0.353,0,22,22,139,1,0_targ_4_dist_red/trial15.png,,,0,4,redHorizontal,a,69,21,F,2021-02-26_15h07.27.384,exp11,2020.2.6,MacIntel,60,,,,,,,,,,,
,,,,,,,,,,,,,,a,1,2.295,space,0.315,0,23,23,142,1,0_targ_4_dist_red/trial18.png,,,0,4,redHorizontal,a,69,21,F,2021-02-26_15h07.27.384,exp11,2020.2.6,MacIntel,60,,,,,,,,,,,
,,,,,,,,,,,,,,a,1,0.779,space,0.305,0,24,24,150,1,0_targ_10_dist_red/trial1.png,,,0,10,redHorizontal,a,69,21,F,2021-02-26_15h07.27.384,exp11,2020.2.6,MacIntel,60,,,,,,,,,,,
,,,,,,,,,,,,,,a,1,0.744,space,0.203,0,25,25,154,1,0_targ_10_dist_red/trial5.png,,,0,10,redHorizontal,a,69,21,F,2021-02-26_15h07.27.384,exp11,2020.2.6,MacIntel,60,,,,,,,,,,,
,,,,,,,,,,,,,,a,1,1.678,space,0.237,0,26,26,163,1,0_targ_10_dist_red/trial14.png,,,0,10,redHorizontal,a,69,21,F,2021-02-26_15h07.27.384,exp11,2020.2.6,MacIntel,60,,,,,,,,,,,
,,,,,,,,,,,,,,p,1,0.574,space,0.254,0,27,27,24,1,0_dist_red/trial25.png,,,1,0,redHorizontal,p,69,21,F,2021-02-26_15h07.27.384,exp11,2020.2.6,MacIntel,60,,,,,,,,,,,
,,,,,,,,,,,,,,p,1,0.829,space,0.24,0,28,28,53,1,9_dist_red/trial4.png,,,1,9,redHorizontal,p,69,21,F,2021-02-26_15h07.27.384,exp11,2020.2.6,MacIntel,60,,,,,,,,,,,
,,,,,,,,,,,,,,p,0,2.634,space,2.74,0,29,29,184,1,0_targ_16_dist_red/trial10.png,,,0,16,redHorizontal,a,69,21,F,2021-02-26_15h07.27.384,exp11,2020.2.6,MacIntel,60,,,,,,,,,,,
,,,,,,,,,,,,,,p,1,0.917,space,0.214,0,30,30,84,1,15_dist_red/trial10.png,,,1,15,redHorizontal,p,69,21,F,2021-02-26_15h07.27.384,exp11,2020.2.6,MacIntel,60,,,,,,,,,,,
,,,,,,,,,,,,,,p,1,0.662,space,0.22,0,31,31,35,1,3_dist_red/trial11.png,,,1,3,redHorizontal,p,69,21,F,2021-02-26_15h07.27.384,exp11,2020.2.6,MacIntel,60,,,,,,,,,,,
,,,,,,,,,,,,,,a,1,0.659,space,0.207,0,32,32,137,1,0_targ_4_dist_red/trial13.png,,,0,4,redHorizontal,a,69,21,F,2021-02-26_15h07.27.384,exp11,2020.2.6,MacIntel,60,,,,,,,,,,,
,,,,,,,,,,,,,,a,1,1.041,space,0.371,0,33,33,117,1,0_targ_1_dist_red/trial18.png,,,0,1,redHorizontal,a,69,21,F,2021-02-26_15h07.27.384,exp11,2020.2.6,MacIntel,60,,,,,,,,,,,
,,,,,,,,,,,,,,a,1,0.728,space,0.255,0,34,34,198,1,0_targ_16_dist_red/trial24.png,,,0,16,redHorizontal,a,69,21,F,2021-02-26_15h07.27.384,exp11,2020.2.6,MacIntel,60,,,,,,,,,,,
,,,,,,,,,,,,,,a,1,0.625,space,0.212,0,35,35,172,1,0_targ_10_dist_red/trial23.png,,,0,10,redHorizontal,a,69,21,F,2021-02-26_15h07.27.384,exp11,2020.2.6,MacIntel,60,,,,,,,,,,,
,,,,,,,,,,,,,,p,0,0.674,space,1.091,0,36,36,124,1,0_targ_1_dist_red/trial25.png,,,0,1,redHorizontal,a,69,21,F,2021-02-26_15h07.27.384,exp11,2020.2.6,MacIntel,60,,,,,,,,,,,
,,,,,,,,,,,,,,a,0,0.863,space,1.111,0,37,37,33,1,3_dist_red/trial9.png,,,1,3,redHorizontal,p,69,21,F,2021-02-26_15h07.27.384,exp11,2020.2.6,MacIntel,60,,,,,,,,,,,
,,,,,,,,,,,,,,a,1,2.396,space,0.543,0,38,38,136,1,0_targ_4_dist_red/trial12.png,,,0,4,redHorizontal,a,69,21,F,2021-02-26_15h07.27.384,exp11,2020.2.6,MacIntel,60,,,,,,,,,,,
,,,,,,,,,,,,,,a,1,0.678,space,0.391,0,39,39,133,1,0_targ_4_dist_red/trial9.png,,,0,4,redHorizontal,a,69,21,F,2021-02-26_15h07.27.384,exp11,2020.2.6,MacIntel,60,,,,,,,,,,,
,,,,,,,,,,,,,,a,1,0.662,space,0.289,0,40,40,107,1,0_targ_1_dist_red/trial8.png,,,0,1,redHorizontal,a,69,21,F,2021-02-26_15h07.27.384,exp11,2020.2.6,MacIntel,60,,,,,,,,,,,
,,,,,,,,,,,,,,p,1,1.503,space,0.335,0,41,41,76,1,15_dist_red/trial2.png,,,1,15,redHorizontal,p,69,21,F,2021-02-26_15h07.27.384,exp11,2020.2.6,MacIntel,60,,,,,,,,,,,
,,,,,,,,,,,,,,p,1,0.758,space,0.256,0,42,42,81,1,15_dist_red/trial7.png,,,1,15,redHorizontal,p,69,21,F,2021-02-26_15h07.27.384,exp11,2020.2.6,MacIntel,60,,,,,,,,,,,
,,,,,,,,,,,,,,a,1,0.662,space,0.255,0,43,43,111,1,0_targ_1_dist_red/trial12.png,,,0,1,redHorizontal,a,69,21,F,2021-02-26_15h07.27.384,exp11,2020.2.6,MacIntel,60,,,,,,,,,,,
,,,,,,,,,,,,,,p,1,1.099,space,0.271,0,44,44,62,1,9_dist_red/trial13.png,,,1,9,redHorizontal,p,69,21,F,2021-02-26_15h07.27.384,exp11,2020.2.6,MacIntel,60,,,,,,,,,,,
,,,,,,,,,,,,,,a,1,1.373,space,0.237,0,45,45,177,1,0_targ_16_dist_red/trial3.png,,,0,16,redHorizontal,a,69,21,F,2021-02-26_15h07.27.384,exp11,2020.2.6,MacIntel,60,,,,,,,,,,,
,,,,,,,,,,,,,,a,1,0.588,space,0.262,0,46,46,156,1,0_targ_10_dist_red/trial7.png,,,0,10,redHorizontal,a,69,21,F,2021-02-26_15h07.27.384,exp11,2020.2.6,MacIntel,60,,,,,,,,,,,
,,,,,,,,,,,,,,a,1,0.548,space,0.242,0,47,47,132,1,0_targ_4_dist_red/trial8.png,,,0,4,redHorizontal,a,69,21,F,2021-02-26_15h07.27.384,exp11,2020.2.6,MacIntel,60,,,,,,,,,,,
,,,,,,,,,,,,,,p,1,0.733,space,0.248,0,48,48,23,1,0_dist_red/trial24.png,,,1,0,redHorizontal,p,69,21,F,2021-02-26_15h07.27.384,exp11,2020.2.6,MacIntel,60,,,,,,,,,,,
,,,,,,,,,,,,,,p,1,0.68,space,0.219,0,49,49,14,1,0_dist_red/trial15.png,,,1,0,redHorizontal,p,69,21,F,2021-02-26_15h07.27.384,exp11,2020.2.6,MacIntel,60,,,,,,,,,,,
,,,,,,,,,,,,,,a,1,1.459,space,0.253,0,50,50,170,1,0_targ_10_dist_red/trial21.png,,,0,10,redHorizontal,a,69,21,F,2021-02-26_15h07.27.384,exp11,2020.2.6,MacIntel,60,,,,,,,,,,,
,,,,,,,,,,,,,,p,1,0.615,space,0.221,0,51,51,82,1,15_dist_red/trial8.png,,,1,15,redHorizontal,p,69,21,F,2021-02-26_15h07.27.384,exp11,2020.2.6,MacIntel,60,,,,,,,,,,,
,,,,,,,,,,,,,,a,1,0.779,space,0.23,0,52,52,127,1,0_targ_4_dist_red/trial3.png,,,0,4,redHorizontal,a,69,21,F,2021-02-26_15h07.27.384,exp11,2020.2.6,MacIntel,60,,,,,,,,,,,
,,,,,,,,,,,,,,p,1,0.66,space,0.223,0,53,53,43,1,3_dist_red/trial19.png,,,1,3,redHorizontal,p,69,21,F,2021-02-26_15h07.27.384,exp11,2020.2.6,MacIntel,60,,,,,,,,,,,
,,,,,,,,,,,,,,p,1,0.776,space,0.222,0,54,54,39,1,3_dist_red/trial15.png,,,1,3,redHorizontal,p,69,21,F,2021-02-26_15h07.27.384,exp11,2020.2.6,MacIntel,60,,,,,,,,,,,
,,,,,,,,,,,,,,a,1,6.364,space,0.305,0,55,55,161,1,0_targ_10_dist_red/trial12.png,,,0,10,redHorizontal,a,69,21,F,2021-02-26_15h07.27.384,exp11,2020.2.6,MacIntel,60,,,,,,,,,,,
,,,,,,,,,,,,,,p,1,0.549,space,0.231,0,56,56,7,1,0_dist_red/trial8.png,,,1,0,redHorizontal,p,69,21,F,2021-02-26_15h07.27.384,exp11,2020.2.6,MacIntel,60,,,,,,,,,,,
,,,,,,,,,,,,,,p,1,0.893,space,0.238,0,57,57,45,1,3_dist_red/trial21.png,,,1,3,redHorizontal,p,69,21,F,2021-02-26_15h07.27.384,exp11,2020.2.6,MacIntel,60,,,,,,,,,,,
,,,,,,,,,,,,,,a,1,1.144,space,0.221,0,58,58,140,1,0_targ_4_dist_red/trial6.png,,,0,4,redHorizontal,a,69,21,F,2021-02-26_15h07.27.384,exp11,2020.2.6,MacIntel,60,,,,,,,,,,,
,,,,,,,,,,,,,,a,1,0.813,space,0.142,0,59,59,115,1,0_targ_1_dist_red/trial6.png,,,0,1,redHorizontal,a,69,21,F,2021-02-26_15h07.27.384,exp11,2020.2.6,MacIntel,60,,,,,,,,,,,
,,,,,,,,,,,,,,a,1,1.667,space,0.256,0,60,60,155,1,0_targ_10_dist_red/trial6.png,,,0,10,redHorizontal,a,69,21,F,2021-02-26_15h07.27.384,exp11,2020.2.6,MacIntel,60,,,,,,,,,,,
,,,,,,,,,,,,,,p,1,0.662,space,0.22,0,61,61,2,1,0_dist_red/trial3.png,,,1,0,redHorizontal,p,69,21,F,2021-02-26_15h07.27.384,exp11,2020.2.6,MacIntel,60,,,,,,,,,,,
,,,,,,,,,,,,,,p,1,0.825,space,0.195,0,62,62,61,1,9_dist_red/trial12.png,,,1,9,redHorizontal,p,69,21,F,2021-02-26_15h07.27.384,exp11,2020.2.6,MacIntel,60,,,,,,,,,,,
,,,,,,,,,,,,,,a,0,4.397,space,0.606,0,63,63,79,1,15_dist_red/trial5.png,,,1,15,redHorizontal,p,69,21,F,2021-02-26_15h07.27.384,exp11,2020.2.6,MacIntel,60,,,,,,,,,,,
,,,,,,,,,,,,,,p,1,1.175,space,0.284,0,64,64,73,1,9_dist_red/trial24.png,,,1,9,redHorizontal,p,69,21,F,2021-02-26_15h07.27.384,exp11,2020.2.6,MacIntel,60,,,,,,,,,,,
,,,,,,,,,,,,,,a,1,0.944,space,0.545,0,65,65,147,1,0_targ_4_dist_red/trial23.png,,,0,4,redHorizontal,a,69,21,F,2021-02-26_15h07.27.384,exp11,2020.2.6,MacIntel,60,,,,,,,,,,,
,,,,,,,,,,,,,,p,1,0.862,space,0.49,0,66,66,50,1,9_dist_red/trial1.png,,,1,9,redHorizontal,p,69,21,F,2021-02-26_15h07.27.384,exp11,2020.2.6,MacIntel,60,,,,,,,,,,,
,,,,,,,,,,,,,,a,1,0.677,space,0.356,0,67,67,113,1,0_targ_1_dist_red/trial14.png,,,0,1,redHorizontal,a,69,21,F,2021-02-26_15h07.27.384,exp11,2020.2.6,MacIntel,60,,,,,,,,,,,
,,,,,,,,,,,,,,a,1,1.525,space,0.589,0,68,68,175,1,0_targ_16_dist_red/trial1.png,,,0,16,redHorizontal,a,69,21,F,2021-02-26_15h07.27.384,exp11,2020.2.6,MacIntel,60,,,,,,,,,,,
,,,,,,,,,,,,,,a,1,0.662,space,0.312,0,69,69,121,1,0_targ_1_dist_red/trial22.png,,,0,1,redHorizontal,a,69,21,F,2021-02-26_15h07.27.384,exp11,2020.2.6,MacIntel,60,,,,,,,,,,,
,,,,,,,,,,,,,,a,1,0.525,space,0.335,0,70,70,143,1,0_targ_4_dist_red/trial19.png,,,0,4,redHorizontal,a,69,21,F,2021-02-26_15h07.27.384,exp11,2020.2.6,MacIntel,60,,,,,,,,,,,
,,,,,,,,,,,,,,p,1,0.989,space,0.212,0,71,71,40,1,3_dist_red/trial16.png,,,1,3,redHorizontal,p,69,21,F,2021-02-26_15h07.27.384,exp11,2020.2.6,MacIntel,60,,,,,,,,,,,
,,,,,,,,,,,,,,p,1,1.003,space,0.328,0,72,72,78,1,15_dist_red/trial4.png,,,1,15,redHorizontal,p,69,21,F,2021-02-26_15h07.27.384,exp11,2020.2.6,MacIntel,60,,,,,,,,,,,
,,,,,,,,,,,,,,a,1,6.535,space,0.354,0,73,73,185,1,0_targ_16_dist_red/trial11.png,,,0,16,redHorizontal,a,69,21,F,2021-02-26_15h07.27.384,exp11,2020.2.6,MacIntel,60,,,,,,,,,,,
,,,,,,,,,,,,,,p,0,2.626,space,2.42,0,74,74,195,1,0_targ_16_dist_red/trial21.png,,,0,16,redHorizontal,a,69,21,F,2021-02-26_15h07.27.384,exp11,2020.2.6,MacIntel,60,,,,,,,,,,,
,,,,,,,,,,,,,,p,0,1.996,space,1.459,0,75,75,167,1,0_targ_10_dist_red/trial18.png,,,0,10,redHorizontal,a,69,21,F,2021-02-26_15h07.27.384,exp11,2020.2.6,MacIntel,60,,,,,,,,,,,
,,,,,,,,,,,,,,a,1,0.803,space,0.289,0,76,76,109,1,0_targ_1_dist_red/trial10.png,,,0,1,redHorizontal,a,69,21,F,2021-02-26_15h07.27.384,exp11,2020.2.6,MacIntel,60,,,,,,,,,,,
,,,,,,,,,,,,,,p,1,0.618,space,0.253,0,77,77,19,1,0_dist_red/trial20.png,,,1,0,redHorizontal,p,69,21,F,2021-02-26_15h07.27.384,exp11,2020.2.6,MacIntel,60,,,,,,,,,,,
,,,,,,,,,,,,,,a,1,1.066,space,0.253,0,78,78,173,1,0_targ_10_dist_red/trial24.png,,,0,10,redHorizontal,a,69,21,F,2021-02-26_15h07.27.384,exp11,2020.2.6,MacIntel,60,,,,,,,,,,,
,,,,,,,,,,,,,,p,1,0.912,space,0.239,0,79,79,77,1,15_dist_red/trial3.png,,,1,15,redHorizontal,p,69,21,F,2021-02-26_15h07.27.384,exp11,2020.2.6,MacIntel,60,,,,,,,,,,,
,,,,,,,,,,,,,,a,1,0.677,space,0.244,0,80,80,101,1,0_targ_1_dist_red/trial2.png,,,0,1,redHorizontal,a,69,21,F,2021-02-26_15h07.27.384,exp11,2020.2.6,MacIntel,60,,,,,,,,,,,
,,,,,,,,,,,,,,a,1,2.378,space,0.393,0,81,81,171,1,0_targ_10_dist_red/trial22.png,,,0,10,redHorizontal,a,69,21,F,2021-02-26_15h07.27.384,exp11,2020.2.6,MacIntel,60,,,,,,,,,,,
,,,,,,,,,,,,,,a,0,0.653,space,0.539,0,82,82,25,1,3_dist_red/trial1.png,,,1,3,redHorizontal,p,69,21,F,2021-02-26_15h07.27.384,exp11,2020.2.6,MacIntel,60,,,,,,,,,,,
,,,,,,,,,,,,,,p,1,0.678,space,0.254,0,83,83,72,1,9_dist_red/trial23.png,,,1,9,redHorizontal,p,69,21,F,2021-02-26_15h07.27.384,exp11,2020.2.6,MacIntel,60,,,,,,,,,,,
,,,,,,,,,,,,,,a,1,0.861,space,0.238,0,84,84,151,1,0_targ_10_dist_red/trial2.png,,,0,10,redHorizontal,a,69,21,F,2021-02-26_15h07.27.384,exp11,2020.2.6,MacIntel,60,,,,,,,,,,,
,,,,,,,,,,,,,,a,1,0.71,space,0.23,0,85,85,144,1,0_targ_4_dist_red/trial20.png,,,0,4,redHorizontal,a,69,21,F,2021-02-26_15h07.27.384,exp11,2020.2.6,MacIntel,60,,,,,,,,,,,
,,,,,,,,,,,,,,p,1,0.639,space,0.204,0,86,86,5,1,0_dist_red/trial6.png,,,1,0,redHorizontal,p,69,21,F,2021-02-26_15h07.27.384,exp11,2020.2.6,MacIntel,60,,,,,,,,,,,
,,,,,,,,,,,,,,a,1,0.678,space,0.241,0,87,87,126,1,0_targ_4_dist_red/trial2.png,,,0,4,redHorizontal,a,69,21,F,2021-02-26_15h07.27.384,exp11,2020.2.6,MacIntel,60,,,,,,,,,,,
,,,,,,,,,,,,,,p,1,0.835,space,0.257,0,88,88,29,1,3_dist_red/trial5.png,,,1,3,redHorizontal,p,69,21,F,2021-02-26_15h07.27.384,exp11,2020.2.6,MacIntel,60,,,,,,,,,,,
,,,,,,,,,,,,,,a,1,0.644,space,0.237,0,89,89,108,1,0_targ_1_dist_red/trial9.png,,,0,1,redHorizontal,a,69,21,F,2021-02-26_15h07.27.384,exp11,2020.2.6,MacIntel,60,,,,,,,,,,,
,,,,,,,,,,,,,,p,0,1.16,space,0.931,0,90,90,112,1,0_targ_1_dist_red/trial13.png,,,0,1,redHorizontal,a,69,21,F,2021-02-26_15h07.27.384,exp11,2020.2.6,MacIntel,60,,,,,,,,,,,
,,,,,,,,,,,,,,a,1,2.574,space,0.512,0,91,91,166,1,0_targ_10_dist_red/trial17.png,,,0,10,redHorizontal,a,69,21,F,2021-02-26_15h07.27.384,exp11,2020.2.6,MacIntel,60,,,,,,,,,,,
,,,,,,,,,,,,,,p,1,0.714,space,0.282,0,92,92,42,1,3_dist_red/trial18.png,,,1,3,redHorizontal,p,69,21,F,2021-02-26_15h07.27.384,exp11,2020.2.6,MacIntel,60,,,,,,,,,,,
,,,,,,,,,,,,,,a,1,1.155,space,0.372,0,93,93,158,1,0_targ_10_dist_red/trial9.png,,,0,10,redHorizontal,a,69,21,F,2021-02-26_15h07.27.384,exp11,2020.2.6,MacIntel,60,,,,,,,,,,,
,,,,,,,,,,,,,,p,0,3.136,space,0.257,0,94,94,193,1,0_targ_16_dist_red/trial19.png,,,0,16,redHorizontal,a,69,21,F,2021-02-26_15h07.27.384,exp11,2020.2.6,MacIntel,60,,,,,,,,,,,
,,,,,,,,,,,,,,a,1,1.195,space,0.321,0,95,95,100,1,0_targ_1_dist_red/trial1.png,,,0,1,redHorizontal,a,69,21,F,2021-02-26_15h07.27.384,exp11,2020.2.6,MacIntel,60,,,,,,,,,,,
,,,,,,,,,,,,,,p,1,0.995,space,0.307,0,96,96,63,1,9_dist_red/trial14.png,,,1,9,redHorizontal,p,69,21,F,2021-02-26_15h07.27.384,exp11,2020.2.6,MacIntel,60,,,,,,,,,,,
,,,,,,,,,,,,,,p,1,0.892,space,0.295,0,97,97,71,1,9_dist_red/trial22.png,,,1,9,redHorizontal,p,69,21,F,2021-02-26_15h07.27.384,exp11,2020.2.6,MacIntel,60,,,,,,,,,,,
,,,,,,,,,,,,,,p,1,0.736,space,0.254,0,98,98,88,1,15_dist_red/trial14.png,,,1,15,redHorizontal,p,69,21,F,2021-02-26_15h07.27.384,exp11,2020.2.6,MacIntel,60,,,,,,,,,,,
,,,,,,,,,,,,,,a,1,0.945,space,0.203,0,99,99,106,1,0_targ_1_dist_red/trial7.png,,,0,1,redHorizontal,a,69,21,F,2021-02-26_15h07.27.384,exp11,2020.2.6,MacIntel,60,,,,,,,,,,,
,,,,,,,,,,,,,,p,0,1.892,space,2.661,0,100,100,129,1,0_targ_4_dist_red/trial5.png,,,0,4,redHorizontal,a,69,21,F,2021-02-26_15h07.27.384,exp11,2020.2.6,MacIntel,60,,,,,,,,,,,
,,,,,,,,,,,,,,a,1,0.898,space,0.32,0,101,101,169,1,0_targ_10_dist_red/trial20.png,,,0,10,redHorizontal,a,69,21,F,2021-02-26_15h07.27.384,exp11,2020.2.6,MacIntel,60,,,,,,,,,,,
,,,,,,,,,,,,,,p,1,0.619,space,0.312,0,102,102,41,1,3_dist_red/trial17.png,,,1,3,redHorizontal,p,69,21,F,2021-02-26_15h07.27.384,exp11,2020.2.6,MacIntel,60,,,,,,,,,,,
,,,,,,,,,,,,,,a,1,0.878,space,0.302,0,103,103,194,1,0_targ_16_dist_red/trial20.png,,,0,16,redHorizontal,a,69,21,F,2021-02-26_15h07.27.384,exp11,2020.2.6,MacIntel,60,,,,,,,,,,,
,,,,,,,,,,,,,,p,0,0.779,space,1.757,0,104,104,110,1,0_targ_1_dist_red/trial11.png,,,0,1,redHorizontal,a,69,21,F,2021-02-26_15h07.27.384,exp11,2020.2.6,MacIntel,60,,,,,,,,,,,
,,,,,,,,,,,,,,p,1,0.629,space,0.303,0,105,105,10,1,0_dist_red/trial11.png,,,1,0,redHorizontal,p,69,21,F,2021-02-26_15h07.27.384,exp11,2020.2.6,MacIntel,60,,,,,,,,,,,
,,,,,,,,,,,,,,p,1,1.118,space,0.229,0,106,106,91,1,15_dist_red/trial17.png,,,1,15,redHorizontal,p,69,21,F,2021-02-26_15h07.27.384,exp11,2020.2.6,MacIntel,60,,,,,,,,,,,
,,,,,,,,,,,,,,a,1,2.78,space,0.274,0,107,107,178,1,0_targ_16_dist_red/trial4.png,,,0,16,redHorizontal,a,69,21,F,2021-02-26_15h07.27.384,exp11,2020.2.6,MacIntel,60,,,,,,,,,,,
,,,,,,,,,,,,,,p,1,0.511,space,0.254,0,108,108,87,1,15_dist_red/trial13.png,,,1,15,redHorizontal,p,69,21,F,2021-02-26_15h07.27.384,exp11,2020.2.6,MacIntel,60,,,,,,,,,,,
,,,,,,,,,,,,,,p,1,0.584,space,0.262,0,109,109,13,1,0_dist_red/trial14.png,,,1,0,redHorizontal,p,69,21,F,2021-02-26_15h07.27.384,exp11,2020.2.6,MacIntel,60,,,,,,,,,,,
,,,,,,,,,,,,,,a,0,0.641,space,1.307,0,110,110,54,1,9_dist_red/trial5.png,,,1,9,redHorizontal,p,69,21,F,2021-02-26_15h07.27.384,exp11,2020.2.6,MacIntel,60,,,,,,,,,,,
,,,,,,,,,,,,,,p,0,0.709,space,1.204,0,111,111,104,1,0_targ_1_dist_red/trial5.png,,,0,1,redHorizontal,a,69,21,F,2021-02-26_15h07.27.384,exp11,2020.2.6,MacIntel,60,,,,,,,,,,,
,,,,,,,,,,,,,,a,1,0.707,space,0.233,0,112,112,123,1,0_targ_1_dist_red/trial24.png,,,0,1,redHorizontal,a,69,21,F,2021-02-26_15h07.27.384,exp11,2020.2.6,MacIntel,60,,,,,,,,,,,
,,,,,,,,,,,,,,p,1,0.537,space,0.229,0,113,113,16,1,0_dist_red/trial17.png,,,1,0,redHorizontal,p,69,21,F,2021-02-26_15h07.27.384,exp11,2020.2.6,MacIntel,60,,,,,,,,,,,
,,,,,,,,,,,,,,p,1,0.544,space,0.206,0,114,114,21,1,0_dist_red/trial22.png,,,1,0,redHorizontal,p,69,21,F,2021-02-26_15h07.27.384,exp11,2020.2.6,MacIntel,60,,,,,,,,,,,
,,,,,,,,,,,,,,p,1,0.561,space,0.222,0,115,115,48,1,3_dist_red/trial24.png,,,1,3,redHorizontal,p,69,21,F,2021-02-26_15h07.27.384,exp11,2020.2.6,MacIntel,60,,,,,,,,,,,
,,,,,,,,,,,,,,a,0,0.679,space,3.945,0,116,116,90,1,15_dist_red/trial16.png,,,1,15,redHorizontal,p,69,21,F,2021-02-26_15h07.27.384,exp11,2020.2.6,MacIntel,60,,,,,,,,,,,
,,,,,,,,,,,,,,p,1,1.161,space,0.405,0,117,117,26,1,3_dist_red/trial2.png,,,1,3,redHorizontal,p,69,21,F,2021-02-26_15h07.27.384,exp11,2020.2.6,MacIntel,60,,,,,,,,,,,
,,,,,,,,,,,,,,p,1,0.532,space,0.213,0,118,118,20,1,0_dist_red/trial21.png,,,1,0,redHorizontal,p,69,21,F,2021-02-26_15h07.27.384,exp11,2020.2.6,MacIntel,60,,,,,,,,,,,
,,,,,,,,,,,,,,a,1,0.827,space,0.172,0,119,119,157,1,0_targ_10_dist_red/trial8.png,,,0,10,redHorizontal,a,69,21,F,2021-02-26_15h07.27.384,exp11,2020.2.6,MacIntel,60,,,,,,,,,,,
,,,,,,,,,,,,,,a,1,3.045,space,0.454,0,120,120,187,1,0_targ_16_dist_red/trial13.png,,,0,16,redHorizontal,a,69,21,F,2021-02-26_15h07.27.384,exp11,2020.2.6,MacIntel,60,,,,,,,,,,,
,,,,,,,,,,,,,,p,0,0.916,space,0.678,0,121,121,189,1,0_targ_16_dist_red/trial15.png,,,0,16,redHorizontal,a,69,21,F,2021-02-26_15h07.27.384,exp11,2020.2.6,MacIntel,60,,,,,,,,,,,
,,,,,,,,,,,,,,p,1,0.982,space,0.301,0,122,122,51,1,9_dist_red/trial2.png,,,1,9,redHorizontal,p,69,21,F,2021-02-26_15h07.27.384,exp11,2020.2.6,MacIntel,60,,,,,,,,,,,
,,,,,,,,,,,,,,p,1,0.548,space,0.232,0,123,123,47,1,3_dist_red/trial23.png,,,1,3,redHorizontal,p,69,21,F,2021-02-26_15h07.27.384,exp11,2020.2.6,MacIntel,60,,,,,,,,,,,
,,,,,,,,,,,,,,p,1,0.743,space,0.223,0,124,124,46,1,3_dist_red/trial22.png,,,1,3,redHorizontal,p,69,21,F,2021-02-26_15h07.27.384,exp11,2020.2.6,MacIntel,60,,,,,,,,,,,
,,,,,,,,,,,,,,p,1,0.961,space,0.236,0,125,125,66,1,9_dist_red/trial17.png,,,1,9,redHorizontal,p,69,21,F,2021-02-26_15h07.27.384,exp11,2020.2.6,MacIntel,60,,,,,,,,,,,
,,,,,,,,,,,,,,a,1,3.285,space,0.305,0,126,126,186,1,0_targ_16_dist_red/trial12.png,,,0,16,redHorizontal,a,69,21,F,2021-02-26_15h07.27.384,exp11,2020.2.6,MacIntel,60,,,,,,,,,,,
,,,,,,,,,,,,,,p,1,0.592,space,0.239,0,127,127,32,1,3_dist_red/trial8.png,,,1,3,redHorizontal,p,69,21,F,2021-02-26_15h07.27.384,exp11,2020.2.6,MacIntel,60,,,,,,,,,,,
,,,,,,,,,,,,,,p,1,0.828,space,0.256,0,128,128,27,1,3_dist_red/trial3.png,,,1,3,redHorizontal,p,69,21,F,2021-02-26_15h07.27.384,exp11,2020.2.6,MacIntel,60,,,,,,,,,,,
,,,,,,,,,,,,,,p,1,0.613,space,0.248,0,129,129,93,1,15_dist_red/trial19.png,,,1,15,redHorizontal,p,69,21,F,2021-02-26_15h07.27.384,exp11,2020.2.6,MacIntel,60,,,,,,,,,,,
,,,,,,,,,,,,,,a,1,2.059,space,0.224,0,130,130,188,1,0_targ_16_dist_red/trial14.png,,,0,16,redHorizontal,a,69,21,F,2021-02-26_15h07.27.384,exp11,2020.2.6,MacIntel,60,,,,,,,,,,,
,,,,,,,,,,,,,,p,1,1.058,space,0.18,0,131,131,59,1,9_dist_red/trial10.png,,,1,9,redHorizontal,p,69,21,F,2021-02-26_15h07.27.384,exp11,2020.2.6,MacIntel,60,,,,,,,,,,,
,,,,,,,,,,,,,,p,1,0.59,space,0.164,0,132,132,6,1,0_dist_red/trial7.png,,,1,0,redHorizontal,p,69,21,F,2021-02-26_15h07.27.384,exp11,2020.2.6,MacIntel,60,,,,,,,,,,,
,,,,,,,,,,,,,,p,1,0.559,space,0.205,0,133,133,89,1,15_dist_red/trial15.png,,,1,15,redHorizontal,p,69,21,F,2021-02-26_15h07.27.384,exp11,2020.2.6,MacIntel,60,,,,,,,,,,,
,,,,,,,,,,,,,,p,1,0.516,space,0.169,0,134,134,38,1,3_dist_red/trial14.png,,,1,3,redHorizontal,p,69,21,F,2021-02-26_15h07.27.384,exp11,2020.2.6,MacIntel,60,,,,,,,,,,,
,,,,,,,,,,,,,,a,1,1.282,space,0.172,0,135,135,183,1,0_targ_16_dist_red/trial9.png,,,0,16,redHorizontal,a,69,21,F,2021-02-26_15h07.27.384,exp11,2020.2.6,MacIntel,60,,,,,,,,,,,
,,,,,,,,,,,,,,a,1,1.046,space,0.172,0,136,136,119,1,0_targ_1_dist_red/trial20.png,,,0,1,redHorizontal,a,69,21,F,2021-02-26_15h07.27.384,exp11,2020.2.6,MacIntel,60,,,,,,,,,,,
,,,,,,,,,,,,,,a,1,0.828,space,0.136,0,137,137,180,1,0_targ_16_dist_red/trial6.png,,,0,16,redHorizontal,a,69,21,F,2021-02-26_15h07.27.384,exp11,2020.2.6,MacIntel,60,,,,,,,,,,,
,,,,,,,,,,,,,,p,1,0.605,space,0.169,0,138,138,28,1,3_dist_red/trial4.png,,,1,3,redHorizontal,p,69,21,F,2021-02-26_15h07.27.384,exp11,2020.2.6,MacIntel,60,,,,,,,,,,,
,,,,,,,,,,,,,,a,1,0.753,space,0.2,0,139,139,176,1,0_targ_16_dist_red/trial2.png,,,0,16,redHorizontal,a,69,21,F,2021-02-26_15h07.27.384,exp11,2020.2.6,MacIntel,60,,,,,,,,,,,
,,,,,,,,,,,,,,p,1,0.566,space,0.186,0,140,140,92,1,15_dist_red/trial18.png,,,1,15,redHorizontal,p,69,21,F,2021-02-26_15h07.27.384,exp11,2020.2.6,MacIntel,60,,,,,,,,,,,
,,,,,,,,,,,,,,a,1,1.243,space,0.42,0,141,141,125,1,0_targ_4_dist_red/trial1.png,,,0,4,redHorizontal,a,69,21,F,2021-02-26_15h07.27.384,exp11,2020.2.6,MacIntel,60,,,,,,,,,,,
,,,,,,,,,,,,,,a,1,0.892,space,0.308,0,142,142,116,1,0_targ_1_dist_red/trial17.png,,,0,1,redHorizontal,a,69,21,F,2021-02-26_15h07.27.384,exp11,2020.2.6,MacIntel,60,,,,,,,,,,,
,,,,,,,,,,,,,,a,1,0.575,space,0.223,0,143,143,128,1,0_targ_4_dist_red/trial4.png,,,0,4,redHorizontal,a,69,21,F,2021-02-26_15h07.27.384,exp11,2020.2.6,MacIntel,60,,,,,,,,,,,
,,,,,,,,,,,,,,p,1,0.525,space,0.19,0,144,144,1,1,0_dist_red/trial2.png,,,1,0,redHorizontal,p,69,21,F,2021-02-26_15h07.27.384,exp11,2020.2.6,MacIntel,60,,,,,,,,,,,
,,,,,,,,,,,,,,a,1,2.279,space,0.306,0,145,145,192,1,0_targ_16_dist_red/trial18.png,,,0,16,redHorizontal,a,69,21,F,2021-02-26_15h07.27.384,exp11,2020.2.6,MacIntel,60,,,,,,,,,,,
,,,,,,,,,,,,,,p,1,0.701,space,0.153,0,146,146,86,1,15_dist_red/trial12.png,,,1,15,redHorizontal,p,69,21,F,2021-02-26_15h07.27.384,exp11,2020.2.6,MacIntel,60,,,,,,,,,,,
,,,,,,,,,,,,,,a,0,0.948,space,0.63,0,147,147,80,1,15_dist_red/trial6.png,,,1,15,redHorizontal,p,69,21,F,2021-02-26_15h07.27.384,exp11,2020.2.6,MacIntel,60,,,,,,,,,,,
,,,,,,,,,,,,,,p,0,2.612,space,2.306,0,148,148,181,1,0_targ_16_dist_red/trial7.png,,,0,16,redHorizontal,a,69,21,F,2021-02-26_15h07.27.384,exp11,2020.2.6,MacIntel,60,,,,,,,,,,,
,,,,,,,,,,,,,,p,1,0.594,space,0.344,0,149,149,17,1,0_dist_red/trial18.png,,,1,0,redHorizontal,p,69,21,F,2021-02-26_15h07.27.384,exp11,2020.2.6,MacIntel,60,,,,,,,,,,,
,,,,,,,,,,,,,,a,1,4.083,space,0.388,0,150,150,168,1,0_targ_10_dist_red/trial19.png,,,0,10,redHorizontal,a,69,21,F,2021-02-26_15h07.27.384,exp11,2020.2.6,MacIntel,60,,,,,,,,,,,
,,,,,,,,,,,,,,p,1,0.866,space,0.269,0,151,151,97,1,15_dist_red/trial23.png,,,1,15,redHorizontal,p,69,21,F,2021-02-26_15h07.27.384,exp11,2020.2.6,MacIntel,60,,,,,,,,,,,
,,,,,,,,,,,,,,a,1,1.322,space,0.154,0,152,152,102,1,0_targ_1_dist_red/trial3.png,,,0,1,redHorizontal,a,69,21,F,2021-02-26_15h07.27.384,exp11,2020.2.6,MacIntel,60,,,,,,,,,,,
,,,,,,,,,,,,,,a,1,0.955,space,0.188,0,153,153,162,1,0_targ_10_dist_red/trial13.png,,,0,10,redHorizontal,a,69,21,F,2021-02-26_15h07.27.384,exp11,2020.2.6,MacIntel,60,,,,,,,,,,,
,,,,,,,,,,,,,,p,1,1.555,space,0.145,0,154,154,94,1,15_dist_red/trial20.png,,,1,15,redHorizontal,p,69,21,F,2021-02-26_15h07.27.384,exp11,2020.2.6,MacIntel,60,,,,,,,,,,,
,,,,,,,,,,,,,,p,1,0.727,space,0.172,0,155,155,57,1,9_dist_red/trial8.png,,,1,9,redHorizontal,p,69,21,F,2021-02-26_15h07.27.384,exp11,2020.2.6,MacIntel,60,,,,,,,,,,,
,,,,,,,,,,,,,,a,1,1.844,space,0.119,0,156,156,196,1,0_targ_16_dist_red/trial22.png,,,0,16,redHorizontal,a,69,21,F,2021-02-26_15h07.27.384,exp11,2020.2.6,MacIntel,60,,,,,,,,,,,
,,,,,,,,,,,,,,p,1,0.6,space,0.138,0,157,157,31,1,3_dist_red/trial7.png,,,1,3,redHorizontal,p,69,21,F,2021-02-26_15h07.27.384,exp11,2020.2.6,MacIntel,60,,,,,,,,,,,
,,,,,,,,,,,,,,p,1,0.562,space,0.122,0,158,158,22,1,0_dist_red/trial23.png,,,1,0,redHorizontal,p,69,21,F,2021-02-26_15h07.27.384,exp11,2020.2.6,MacIntel,60,,,,,,,,,,,
,,,,,,,,,,,,,,p,1,0.483,space,0.175,0,159,159,9,1,0_dist_red/trial10.png,,,1,0,redHorizontal,p,69,21,F,2021-02-26_15h07.27.384,exp11,2020.2.6,MacIntel,60,,,,,,,,,,,
,,,,,,,,,,,,,,p,1,0.52,space,0.152,0,160,160,4,1,0_dist_red/trial5.png,,,1,0,redHorizontal,p,69,21,F,2021-02-26_15h07.27.384,exp11,2020.2.6,MacIntel,60,,,,,,,,,,,
,,,,,,,,,,,,,,p,1,0.728,space,0.151,0,161,161,36,1,3_dist_red/trial12.png,,,1,3,redHorizontal,p,69,21,F,2021-02-26_15h07.27.384,exp11,2020.2.6,MacIntel,60,,,,,,,,,,,
,,,,,,,,,,,,,,p,1,1.123,space,0.129,0,162,162,99,1,15_dist_red/trial25.png,,,1,15,redHorizontal,p,69,21,F,2021-02-26_15h07.27.384,exp11,2020.2.6,MacIntel,60,,,,,,,,,,,
,,,,,,,,,,,,,,a,1,1.077,space,0.126,0,163,163,199,1,0_targ_16_dist_red/trial25.png,,,0,16,redHorizontal,a,69,21,F,2021-02-26_15h07.27.384,exp11,2020.2.6,MacIntel,60,,,,,,,,,,,
,,,,,,,,,,,,,,a,1,0.787,space,0.109,0,164,164,114,1,0_targ_1_dist_red/trial15.png,,,0,1,redHorizontal,a,69,21,F,2021-02-26_15h07.27.384,exp11,2020.2.6,MacIntel,60,,,,,,,,,,,
,,,,,,,,,,,,,,p,1,0.558,space,0.153,0,165,165,15,1,0_dist_red/trial16.png,,,1,0,redHorizontal,p,69,21,F,2021-02-26_15h07.27.384,exp11,2020.2.6,MacIntel,60,,,,,,,,,,,
,,,,,,,,,,,,,,p,0,0.647,space,2.87,0,166,166,130,1,0_targ_4_dist_red/trial6.png,,,0,4,redHorizontal,a,69,21,F,2021-02-26_15h07.27.384,exp11,2020.2.6,MacIntel,60,,,,,,,,,,,
,,,,,,,,,,,,,,p,1,0.646,space,0.116,0,167,167,11,1,0_dist_red/trial12.png,,,1,0,redHorizontal,p,69,21,F,2021-02-26_15h07.27.384,exp11,2020.2.6,MacIntel,60,,,,,,,,,,,
,,,,,,,,,,,,,,p,1,3.068,space,0.207,0,168,168,55,1,9_dist_red/trial6.png,,,1,9,redHorizontal,p,69,21,F,2021-02-26_15h07.27.384,exp11,2020.2.6,MacIntel,60,,,,,,,,,,,
,,,,,,,,,,,,,,a,1,1.828,space,0.639,0,169,169,160,1,0_targ_10_dist_red/trial11.png,,,0,10,redHorizontal,a,69,21,F,2021-02-26_15h07.27.384,exp11,2020.2.6,MacIntel,60,,,,,,,,,,,
,,,,,,,,,,,,,,p,1,0.712,space,0.188,0,170,170,30,1,3_dist_red/trial6.png,,,1,3,redHorizontal,p,69,21,F,2021-02-26_15h07.27.384,exp11,2020.2.6,MacIntel,60,,,,,,,,,,,
,,,,,,,,,,,,,,a,1,0.727,space,0.124,0,171,171,118,1,0_targ_1_dist_red/trial19.png,,,0,1,redHorizontal,a,69,21,F,2021-02-26_15h07.27.384,exp11,2020.2.6,MacIntel,60,,,,,,,,,,,
,,,,,,,,,,,,,,a,1,1.478,space,0.097,0,172,172,148,1,0_targ_4_dist_red/trial24.png,,,0,4,redHorizontal,a,69,21,F,2021-02-26_15h07.27.384,exp11,2020.2.6,MacIntel,60,,,,,,,,,,,
,,,,,,,,,,,,,,p,1,1.008,space,0.143,0,173,173,67,1,9_dist_red/trial18.png,,,1,9,redHorizontal,p,69,21,F,2021-02-26_15h07.27.384,exp11,2020.2.6,MacIntel,60,,,,,,,,,,,
,,,,,,,,,,,,,,a,0,1.404,space,4.025,0,174,174,75,1,15_dist_red/trial1.png,,,1,15,redHorizontal,p,69,21,F,2021-02-26_15h07.27.384,exp11,2020.2.6,MacIntel,60,,,,,,,,,,,
,,,,,,,,,,,,,,p,1,0.998,space,0.159,0,175,175,34,1,3_dist_red/trial10.png,,,1,3,redHorizontal,p,69,21,F,2021-02-26_15h07.27.384,exp11,2020.2.6,MacIntel,60,,,,,,,,,,,
,,,,,,,,,,,,,,a,1,1.112,space,0.124,0,176,176,138,1,0_targ_4_dist_red/trial14.png,,,0,4,redHorizontal,a,69,21,F,2021-02-26_15h07.27.384,exp11,2020.2.6,MacIntel,60,,,,,,,,,,,
,,,,,,,,,,,,,,p,1,1.031,space,0.138,0,177,177,49,1,3_dist_red/trial25.png,,,1,3,redHorizontal,p,69,21,F,2021-02-26_15h07.27.384,exp11,2020.2.6,MacIntel,60,,,,,,,,,,,
,,,,,,,,,,,,,,a,1,0.678,space,0.121,0,178,178,149,1,0_targ_4_dist_red/trial25.png,,,0,4,redHorizontal,a,69,21,F,2021-02-26_15h07.27.384,exp11,2020.2.6,MacIntel,60,,,,,,,,,,,
,,,,,,,,,,,,,,a,1,3.745,space,0.105,0,179,179,197,1,0_targ_16_dist_red/trial23.png,,,0,16,redHorizontal,a,69,21,F,2021-02-26_15h07.27.384,exp11,2020.2.6,MacIntel,60,,,,,,,,,,,
,,,,,,,,,,,,,,a,1,0.612,space,0.086,0,180,180,131,1,0_targ_4_dist_red/trial7.png,,,0,4,redHorizontal,a,69,21,F,2021-02-26_15h07.27.384,exp11,2020.2.6,MacIntel,60,,,,,,,,,,,
,,,,,,,,,,,,,,p,1,0.54,space,0.144,0,181,181,18,1,0_dist_red/trial19.png,,,1,0,redHorizontal,p,69,21,F,2021-02-26_15h07.27.384,exp11,2020.2.6,MacIntel,60,,,,,,,,,,,
,,,,,,,,,,,,,,a,1,3.213,space,0.097,0,182,182,134,1,0_targ_4_dist_red/trial10.png,,,0,4,redHorizontal,a,69,21,F,2021-02-26_15h07.27.384,exp11,2020.2.6,MacIntel,60,,,,,,,,,,,
,,,,,,,,,,,,,,a,1,0.783,space,0.104,0,183,183,103,1,0_targ_1_dist_red/trial4.png,,,0,1,redHorizontal,a,69,21,F,2021-02-26_15h07.27.384,exp11,2020.2.6,MacIntel,60,,,,,,,,,,,
,,,,,,,,,,,,,,a,1,1.408,space,0.074,0,184,184,182,1,0_targ_16_dist_red/trial8.png,,,0,16,redHorizontal,a,69,21,F,2021-02-26_15h07.27.384,exp11,2020.2.6,MacIntel,60,,,,,,,,,,,
,,,,,,,,,,,,,,p,1,0.549,space,0.154,0,185,185,0,1,0_dist_red/trial1.png,,,1,0,redHorizontal,p,69,21,F,2021-02-26_15h07.27.384,exp11,2020.2.6,MacIntel,60,,,,,,,,,,,
,,,,,,,,,,,,,,p,1,0.583,space,0.123,0,186,186,98,1,15_dist_red/trial24.png,,,1,15,redHorizontal,p,69,21,F,2021-02-26_15h07.27.384,exp11,2020.2.6,MacIntel,60,,,,,,,,,,,
,,,,,,,,,,,,,,p,1,0.862,space,0.007,0,187,187,85,1,15_dist_red/trial11.png,,,1,15,redHorizontal,p,69,21,F,2021-02-26_15h07.27.384,exp11,2020.2.6,MacIntel,60,,,,,,,,,,,
,,,,,,,,,,,,,,p,1,1.177,space,0.695,0,188,188,96,1,15_dist_red/trial22.png,,,1,15,redHorizontal,p,69,21,F,2021-02-26_15h07.27.384,exp11,2020.2.6,MacIntel,60,,,,,,,,,,,
,,,,,,,,,,,,,,a,1,2.212,space,0.092,0,189,189,152,1,0_targ_10_dist_red/trial3.png,,,0,10,redHorizontal,a,69,21,F,2021-02-26_15h07.27.384,exp11,2020.2.6,MacIntel,60,,,,,,,,,,,
,,,,,,,,,,,,,,a,1,0.678,space,0.065,0,190,190,159,1,0_targ_10_dist_red/trial10.png,,,0,10,redHorizontal,a,69,21,F,2021-02-26_15h07.27.384,exp11,2020.2.6,MacIntel,60,,,,,,,,,,,
,,,,,,,,,,,,,,p,1,0.612,space,0.349,0,191,191,12,1,0_dist_red/trial13.png,,,1,0,redHorizontal,p,69,21,F,2021-02-26_15h07.27.384,exp11,2020.2.6,MacIntel,60,,,,,,,,,,,
,,,,,,,,,,,,,,a,1,0.592,space,0.111,0,192,192,145,1,0_targ_4_dist_red/trial21.png,,,0,4,redHorizontal,a,69,21,F,2021-02-26_15h07.27.384,exp11,2020.2.6,MacIntel,60,,,,,,,,,,,
,,,,,,,,,,,,,,p,1,0.842,space,0.139,0,193,193,69,1,9_dist_red/trial20.png,,,1,9,redHorizontal,p,69,21,F,2021-02-26_15h07.27.384,exp11,2020.2.6,MacIntel,60,,,,,,,,,,,
,,,,,,,,,,,,,,a,1,0.928,space,0.142,0,194,194,191,1,0_targ_16_dist_red/trial17.png,,,0,16,redHorizontal,a,69,21,F,2021-02-26_15h07.27.384,exp11,2020.2.6,MacIntel,60,,,,,,,,,,,
,,,,,,,,,,,,,,a,1,0.677,space,0.122,0,195,195,122,1,0_targ_1_dist_red/trial23.png,,,0,1,redHorizontal,a,69,21,F,2021-02-26_15h07.27.384,exp11,2020.2.6,MacIntel,60,,,,,,,,,,,
,,,,,,,,,,,,,,a,1,0.795,space,0.075,0,196,196,165,1,0_targ_10_dist_red/trial16.png,,,0,10,redHorizontal,a,69,21,F,2021-02-26_15h07.27.384,exp11,2020.2.6,MacIntel,60,,,,,,,,,,,
,,,,,,,,,,,,,,a,1,0.679,space,0.098,0,197,197,120,1,0_targ_1_dist_red/trial21.png,,,0,1,redHorizontal,a,69,21,F,2021-02-26_15h07.27.384,exp11,2020.2.6,MacIntel,60,,,,,,,,,,,
,,,,,,,,,,,,,,p,1,0.799,space,0.122,0,198,198,44,1,3_dist_red/trial20.png,,,1,3,redHorizontal,p,69,21,F,2021-02-26_15h07.27.384,exp11,2020.2.6,MacIntel,60,,,,,,,,,,,
,,,,,,,,,,,,,,p,1,0.848,space,0.123,0,199,199,60,1,9_dist_red/trial11.png,,,1,9,redHorizontal,p,69,21,F,2021-02-26_15h07.27.384,exp11,2020.2.6,MacIntel,60,,,,,,,,,,,
,,,,,,,,,,,,,,,,,,,,,,,,,,,,,,,69,21,F,2021-02-26_15h07.27.384,exp11,2020.2.6,MacIntel,60,0,0,0,1,1,conRed.xlsx,red horizontal,Look for red horizontal bar (target) and indicate if it is present or absent in the array. If red horizontal target is present press 'p' and if absent press 'a'. Press SPACE to start.,,,
,,,,,,,,,,space,1.063,space,2.761,p,1,0.83,space,0.285,0,0,0,15,1,0_dist_green/trial16.png,,,1,0,greenverival,p,69,21,F,2021-02-26_15h07.27.384,exp11,2020.2.6,MacIntel,60,,,,,,,,,,,
,,,,,,,,,,,,,,a,0,0.768,space,1.406,0,1,1,71,1,9_dist_green/trial22.png,,,1,9,greenverival,p,69,21,F,2021-02-26_15h07.27.384,exp11,2020.2.6,MacIntel,60,,,,,,,,,,,
,,,,,,,,,,,,,,a,1,1.349,space,0.362,0,2,2,122,1,0_targ_1_dist_green/trial23.png,,,0,1,greenverival,a,69,21,F,2021-02-26_15h07.27.384,exp11,2020.2.6,MacIntel,60,,,,,,,,,,,
,,,,,,,,,,,,,,p,1,1.555,space,0.325,0,3,3,57,1,9_dist_green/trial8.png,,,1,9,greenverival,p,69,21,F,2021-02-26_15h07.27.384,exp11,2020.2.6,MacIntel,60,,,,,,,,,,,
,,,,,,,,,,,,,,a,1,0.693,space,0.285,0,4,4,124,1,0_targ_1_dist_green/trial25.png,,,0,1,greenverival,a,69,21,F,2021-02-26_15h07.27.384,exp11,2020.2.6,MacIntel,60,,,,,,,,,,,
,,,,,,,,,,,,,,p,1,1.307,space,0.757,0,5,5,76,1,15_dist_green/trial2.png,,,1,15,greenverival,p,69,21,F,2021-02-26_15h07.27.384,exp11,2020.2.6,MacIntel,60,,,,,,,,,,,
,,,,,,,,,,,,,,p,1,0.564,space,0.511,0,6,6,19,1,0_dist_green/trial20.png,,,1,0,greenverival,p,69,21,F,2021-02-26_15h07.27.384,exp11,2020.2.6,MacIntel,60,,,,,,,,,,,
,,,,,,,,,,,,,,a,1,0.583,space,0.407,0,7,7,107,1,0_targ_1_dist_green/trial8.png,,,0,1,greenverival,a,69,21,F,2021-02-26_15h07.27.384,exp11,2020.2.6,MacIntel,60,,,,,,,,,,,
,,,,,,,,,,,,,,a,0,0.548,space,2.573,0,8,8,34,1,3_dist_green/trial10.png,,,1,3,greenverival,p,69,21,F,2021-02-26_15h07.27.384,exp11,2020.2.6,MacIntel,60,,,,,,,,,,,
,,,,,,,,,,,,,,a,1,1.71,space,0.384,0,9,9,173,1,0_targ_10_dist_green/trial24.png,,,0,10,greenverival,a,69,21,F,2021-02-26_15h07.27.384,exp11,2020.2.6,MacIntel,60,,,,,,,,,,,
,,,,,,,,,,,,,,p,1,0.828,space,0.322,0,10,10,83,1,15_dist_green/trial9.png,,,1,15,greenverival,p,69,21,F,2021-02-26_15h07.27.384,exp11,2020.2.6,MacIntel,60,,,,,,,,,,,
,,,,,,,,,,,,,,p,1,0.564,space,0.255,0,11,11,61,1,9_dist_green/trial12.png,,,1,9,greenverival,p,69,21,F,2021-02-26_15h07.27.384,exp11,2020.2.6,MacIntel,60,,,,,,,,,,,
,,,,,,,,,,,,,,a,1,1.045,space,0.224,0,12,12,147,1,0_targ_4_dist_green/trial23.png,,,0,4,greenverival,a,69,21,F,2021-02-26_15h07.27.384,exp11,2020.2.6,MacIntel,60,,,,,,,,,,,
,,,,,,,,,,,,,,p,1,0.58,space,0.219,0,13,13,56,1,9_dist_green/trial7.png,,,1,9,greenverival,p,69,21,F,2021-02-26_15h07.27.384,exp11,2020.2.6,MacIntel,60,,,,,,,,,,,
,,,,,,,,,,,,,,p,1,0.476,space,0.223,0,14,14,41,1,3_dist_green/trial17.png,,,1,3,greenverival,p,69,21,F,2021-02-26_15h07.27.384,exp11,2020.2.6,MacIntel,60,,,,,,,,,,,
,,,,,,,,,,,,,,p,1,0.548,space,0.263,0,15,15,25,1,3_dist_green/trial1.png,,,1,3,greenverival,p,69,21,F,2021-02-26_15h07.27.384,exp11,2020.2.6,MacIntel,60,,,,,,,,,,,
,,,,,,,,,,,,,,p,1,0.527,space,0.187,0,16,16,52,1,9_dist_green/trial3.png,,,1,9,greenverival,p,69,21,F,2021-02-26_15h07.27.384,exp11,2020.2.6,MacIntel,60,,,,,,,,,,,
,,,,,,,,,,,,,,a,1,0.959,space,0.32,0,17,17,120,1,0_targ_1_dist_green/trial21.png,,,0,1,greenverival,a,69,21,F,2021-02-26_15h07.27.384,exp11,2020.2.6,MacIntel,60,,,,,,,,,,,
,,,,,,,,,,,,,,a,1,1.194,space,0.141,0,18,18,128,1,0_targ_4_dist_green/trial4.png,,,0,4,greenverival,a,69,21,F,2021-02-26_15h07.27.384,exp11,2020.2.6,MacIntel,60,,,,,,,,,,,
,,,,,,,,,,,,,,p,1,0.574,space,0.137,0,19,19,12,1,0_dist_green/trial13.png,,,1,0,greenverival,p,69,21,F,2021-02-26_15h07.27.384,exp11,2020.2.6,MacIntel,60,,,,,,,,,,,
,,,,,,,,,,,,,,a,1,0.642,space,0.136,0,20,20,148,1,0_targ_4_dist_green/trial24.png,,,0,4,greenverival,a,69,21,F,2021-02-26_15h07.27.384,exp11,2020.2.6,MacIntel,60,,,,,,,,,,,
,,,,,,,,,,,,,,p,1,1.332,space,0.13,0,21,21,72,1,9_dist_green/trial23.png,,,1,9,greenverival,p,69,21,F,2021-02-26_15h07.27.384,exp11,2020.2.6,MacIntel,60,,,,,,,,,,,
,,,,,,,,,,,,,,p,1,0.605,space,0.157,0,22,22,1,1,0_dist_green/trial2.png,,,1,0,greenverival,p,69,21,F,2021-02-26_15h07.27.384,exp11,2020.2.6,MacIntel,60,,,,,,,,,,,
,,,,,,,,,,,,,,a,1,1.132,space,0.122,0,23,23,171,1,0_targ_10_dist_green/trial22.png,,,0,10,greenverival,a,69,21,F,2021-02-26_15h07.27.384,exp11,2020.2.6,MacIntel,60,,,,,,,,,,,
,,,,,,,,,,,,,,a,1,1.212,space,0.549,0,24,24,112,1,0_targ_1_dist_green/trial13.png,,,0,1,greenverival,a,69,21,F,2021-02-26_15h07.27.384,exp11,2020.2.6,MacIntel,60,,,,,,,,,,,
,,,,,,,,,,,,,,a,1,0.64,space,0.206,0,25,25,140,1,0_targ_4_dist_green/trial6.png,,,0,4,greenverival,a,69,21,F,2021-02-26_15h07.27.384,exp11,2020.2.6,MacIntel,60,,,,,,,,,,,
,,,,,,,,,,,,,,a,1,0.609,space,0.175,0,26,26,129,1,0_targ_4_dist_green/trial5.png,,,0,4,greenverival,a,69,21,F,2021-02-26_15h07.27.384,exp11,2020.2.6,MacIntel,60,,,,,,,,,,,
,,,,,,,,,,,,,,a,1,0.843,space,0.136,0,27,27,121,1,0_targ_1_dist_green/trial22.png,,,0,1,greenverival,a,69,21,F,2021-02-26_15h07.27.384,exp11,2020.2.6,MacIntel,60,,,,,,,,,,,
,,,,,,,,,,,,,,p,1,0.622,space,0.125,0,28,28,6,1,0_dist_green/trial7.png,,,1,0,greenverival,p,69,21,F,2021-02-26_15h07.27.384,exp11,2020.2.6,MacIntel,60,,,,,,,,,,,
,,,,,,,,,,,,,,a,1,1.515,space,0.11,0,29,29,179,1,0_targ_16_dist_green/trial5.png,,,0,16,greenverival,a,69,21,F,2021-02-26_15h07.27.384,exp11,2020.2.6,MacIntel,60,,,,,,,,,,,
,,,,,,,,,,,,,,p,1,0.724,space,0.277,0,30,30,5,1,0_dist_green/trial6.png,,,1,0,greenverival,p,69,21,F,2021-02-26_15h07.27.384,exp11,2020.2.6,MacIntel,60,,,,,,,,,,,
,,,,,,,,,,,,,,p,1,0.639,space,0.136,0,31,31,40,1,3_dist_green/trial16.png,,,1,3,greenverival,p,69,21,F,2021-02-26_15h07.27.384,exp11,2020.2.6,MacIntel,60,,,,,,,,,,,
,,,,,,,,,,,,,,p,1,0.649,space,0.157,0,32,32,68,1,9_dist_green/trial19.png,,,1,9,greenverival,p,69,21,F,2021-02-26_15h07.27.384,exp11,2020.2.6,MacIntel,60,,,,,,,,,,,
,,,,,,,,,,,,,,a,1,1.429,space,0.086,0,33,33,195,1,0_targ_16_dist_green/trial21.png,,,0,16,greenverival,a,69,21,F,2021-02-26_15h07.27.384,exp11,2020.2.6,MacIntel,60,,,,,,,,,,,
,,,,,,,,,,,,,,a,0,1.046,space,0.003,0,34,34,14,1,0_dist_green/trial15.png,,,1,0,greenverival,p,69,21,F,2021-02-26_15h07.27.384,exp11,2020.2.6,MacIntel,60,,,,,,,,,,,
,,,,,,,,,,,,,,a,1,1.127,space,0.003,0,35,35,185,1,0_targ_16_dist_green/trial11.png,,,0,16,greenverival,a,69,21,F,2021-02-26_15h07.27.384,exp11,2020.2.6,MacIntel,60,,,,,,,,,,,
,,,,,,,,,,,,,,p,1,0.979,space,0.003,0,36,36,59,1,9_dist_green/trial10.png,,,1,9,greenverival,p,69,21,F,2021-02-26_15h07.27.384,exp11,2020.2.6,MacIntel,60,,,,,,,,,,,
,,,,,,,,,,,,,,a,1,2.497,space,0.355,0,37,37,188,1,0_targ_16_dist_green/trial14.png,,,0,16,greenverival,a,69,21,F,2021-02-26_15h07.27.384,exp11,2020.2.6,MacIntel,60,,,,,,,,,,,
,,,,,,,,,,,,,,p,1,0.781,space,0.158,0,38,38,95,1,15_dist_green/trial21.png,,,1,15,greenverival,p,69,21,F,2021-02-26_15h07.27.384,exp11,2020.2.6,MacIntel,60,,,,,,,,,,,
,,,,,,,,,,,,,,a,1,0.824,space,0.105,0,39,39,118,1,0_targ_1_dist_green/trial19.png,,,0,1,greenverival,a,69,21,F,2021-02-26_15h07.27.384,exp11,2020.2.6,MacIntel,60,,,,,,,,,,,
,,,,,,,,,,,,,,p,0,0.913,space,3.489,0,40,40,182,1,0_targ_16_dist_green/trial8.png,,,0,16,greenverival,a,69,21,F,2021-02-26_15h07.27.384,exp11,2020.2.6,MacIntel,60,,,,,,,,,,,
,,,,,,,,,,,,,,a,1,0.786,space,0.142,0,41,41,152,1,0_targ_10_dist_green/trial3.png,,,0,10,greenverival,a,69,21,F,2021-02-26_15h07.27.384,exp11,2020.2.6,MacIntel,60,,,,,,,,,,,
,,,,,,,,,,,,,,a,1,1.25,space,0.137,0,42,42,143,1,0_targ_4_dist_green/trial19.png,,,0,4,greenverival,a,69,21,F,2021-02-26_15h07.27.384,exp11,2020.2.6,MacIntel,60,,,,,,,,,,,
,,,,,,,,,,,,,,p,1,0.776,space,0.108,0,43,43,84,1,15_dist_green/trial10.png,,,1,15,greenverival,p,69,21,F,2021-02-26_15h07.27.384,exp11,2020.2.6,MacIntel,60,,,,,,,,,,,
,,,,,,,,,,,,,,a,1,3.002,space,0.129,0,44,44,165,1,0_targ_10_dist_green/trial16.png,,,0,10,greenverival,a,69,21,F,2021-02-26_15h07.27.384,exp11,2020.2.6,MacIntel,60,,,,,,,,,,,
,,,,,,,,,,,,,,a,1,1.244,space,0.109,0,45,45,131,1,0_targ_4_dist_green/trial7.png,,,0,4,greenverival,a,69,21,F,2021-02-26_15h07.27.384,exp11,2020.2.6,MacIntel,60,,,,,,,,,,,
,,,,,,,,,,,,,,a,1,0.725,space,0.124,0,46,46,142,1,0_targ_4_dist_green/trial18.png,,,0,4,greenverival,a,69,21,F,2021-02-26_15h07.27.384,exp11,2020.2.6,MacIntel,60,,,,,,,,,,,
,,,,,,,,,,,,,,p,1,0.595,space,0.162,0,47,47,2,1,0_dist_green/trial3.png,,,1,0,greenverival,p,69,21,F,2021-02-26_15h07.27.384,exp11,2020.2.6,MacIntel,60,,,,,,,,,,,
,,,,,,,,,,,,,,p,1,0.61,space,0.141,0,48,48,85,1,15_dist_green/trial11.png,,,1,15,greenverival,p,69,21,F,2021-02-26_15h07.27.384,exp11,2020.2.6,MacIntel,60,,,,,,,,,,,
,,,,,,,,,,,,,,a,1,0.632,space,0.123,0,49,49,103,1,0_targ_1_dist_green/trial4.png,,,0,1,greenverival,a,69,21,F,2021-02-26_15h07.27.384,exp11,2020.2.6,MacIntel,60,,,,,,,,,,,
,,,,,,,,,,,,,,p,1,0.588,space,0.141,0,50,50,94,1,15_dist_green/trial20.png,,,1,15,greenverival,p,69,21,F,2021-02-26_15h07.27.384,exp11,2020.2.6,MacIntel,60,,,,,,,,,,,
,,,,,,,,,,,,,,p,1,0.917,space,0.136,0,51,51,31,1,3_dist_green/trial7.png,,,1,3,greenverival,p,69,21,F,2021-02-26_15h07.27.384,exp11,2020.2.6,MacIntel,60,,,,,,,,,,,
,,,,,,,,,,,,,,p,0,1.533,space,2.022,0,52,52,153,1,0_targ_10_dist_green/trial4.png,,,0,10,greenverival,a,69,21,F,2021-02-26_15h07.27.384,exp11,2020.2.6,MacIntel,60,,,,,,,,,,,
,,,,,,,,,,,,,,p,1,0.695,space,0.188,0,53,53,8,1,0_dist_green/trial9.png,,,1,0,greenverival,p,69,21,F,2021-02-26_15h07.27.384,exp11,2020.2.6,MacIntel,60,,,,,,,,,,,
,,,,,,,,,,,,,,a,1,0.6,space,0.136,0,54,54,111,1,0_targ_1_dist_green/trial12.png,,,0,1,greenverival,a,69,21,F,2021-02-26_15h07.27.384,exp11,2020.2.6,MacIntel,60,,,,,,,,,,,
,,,,,,,,,,,,,,a,1,0.94,space,0.112,0,55,55,157,1,0_targ_10_dist_green/trial8.png,,,0,10,greenverival,a,69,21,F,2021-02-26_15h07.27.384,exp11,2020.2.6,MacIntel,60,,,,,,,,,,,
,,,,,,,,,,,,,,p,1,0.865,space,0.142,0,56,56,79,1,15_dist_green/trial5.png,,,1,15,greenverival,p,69,21,F,2021-02-26_15h07.27.384,exp11,2020.2.6,MacIntel,60,,,,,,,,,,,
,,,,,,,,,,,,,,a,1,0.76,space,0.102,0,57,57,109,1,0_targ_1_dist_green/trial10.png,,,0,1,greenverival,a,69,21,F,2021-02-26_15h07.27.384,exp11,2020.2.6,MacIntel,60,,,,,,,,,,,
,,,,,,,,,,,,,,a,1,0.696,space,0.09,0,58,58,138,1,0_targ_4_dist_green/trial14.png,,,0,4,greenverival,a,69,21,F,2021-02-26_15h07.27.384,exp11,2020.2.6,MacIntel,60,,,,,,,,,,,
,,,,,,,,,,,,,,p,1,0.777,space,0.122,0,59,59,46,1,3_dist_green/trial22.png,,,1,3,greenverival,p,69,21,F,2021-02-26_15h07.27.384,exp11,2020.2.6,MacIntel,60,,,,,,,,,,,
,,,,,,,,,,,,,,p,1,0.533,space,0.154,0,60,60,17,1,0_dist_green/trial18.png,,,1,0,greenverival,p,69,21,F,2021-02-26_15h07.27.384,exp11,2020.2.6,MacIntel,60,,,,,,,,,,,
,,,,,,,,,,,,,,p,1,0.43,space,0.157,0,61,61,4,1,0_dist_green/trial5.png,,,1,0,greenverival,p,69,21,F,2021-02-26_15h07.27.384,exp11,2020.2.6,MacIntel,60,,,,,,,,,,,
,,,,,,,,,,,,,,p,1,0.544,space,0.108,0,62,62,86,1,15_dist_green/trial12.png,,,1,15,greenverival,p,69,21,F,2021-02-26_15h07.27.384,exp11,2020.2.6,MacIntel,60,,,,,,,,,,,
,,,,,,,,,,,,,,p,1,0.464,space,0.153,0,63,63,27,1,3_dist_green/trial3.png,,,1,3,greenverival,p,69,21,F,2021-02-26_15h07.27.384,exp11,2020.2.6,MacIntel,60,,,,,,,,,,,
,,,,,,,,,,,,,,a,1,0.811,space,0.107,0,64,64,177,1,0_targ_16_dist_green/trial3.png,,,0,16,greenverival,a,69,21,F,2021-02-26_15h07.27.384,exp11,2020.2.6,MacIntel,60,,,,,,,,,,,
,,,,,,,,,,,,,,a,1,0.986,space,0.101,0,65,65,160,1,0_targ_10_dist_green/trial11.png,,,0,10,greenverival,a,69,21,F,2021-02-26_15h07.27.384,exp11,2020.2.6,MacIntel,60,,,,,,,,,,,
,,,,,,,,,,,,,,p,1,0.979,space,0.161,0,66,66,77,1,15_dist_green/trial3.png,,,1,15,greenverival,p,69,21,F,2021-02-26_15h07.27.384,exp11,2020.2.6,MacIntel,60,,,,,,,,,,,
,,,,,,,,,,,,,,a,1,0.611,space,0.105,0,67,67,125,1,0_targ_4_dist_green/trial1.png,,,0,4,greenverival,a,69,21,F,2021-02-26_15h07.27.384,exp11,2020.2.6,MacIntel,60,,,,,,,,,,,
,,,,,,,,,,,,,,p,1,1.175,space,0.779,0,68,68,26,1,3_dist_green/trial2.png,,,1,3,greenverival,p,69,21,F,2021-02-26_15h07.27.384,exp11,2020.2.6,MacIntel,60,,,,,,,,,,,
,,,,,,,,,,,,,,a,1,0.893,space,0.073,0,69,69,176,1,0_targ_16_dist_green/trial2.png,,,0,16,greenverival,a,69,21,F,2021-02-26_15h07.27.384,exp11,2020.2.6,MacIntel,60,,,,,,,,,,,
,,,,,,,,,,,,,,p,1,0.61,space,0.744,0,70,70,65,1,9_dist_green/trial16.png,,,1,9,greenverival,p,69,21,F,2021-02-26_15h07.27.384,exp11,2020.2.6,MacIntel,60,,,,,,,,,,,
,,,,,,,,,,,,,,p,1,0.511,space,0.139,0,71,71,39,1,3_dist_green/trial15.png,,,1,3,greenverival,p,69,21,F,2021-02-26_15h07.27.384,exp11,2020.2.6,MacIntel,60,,,,,,,,,,,
,,,,,,,,,,,,,,a,1,0.611,space,0.106,0,72,72,134,1,0_targ_4_dist_green/trial10.png,,,0,4,greenverival,a,69,21,F,2021-02-26_15h07.27.384,exp11,2020.2.6,MacIntel,60,,,,,,,,,,,
,,,,,,,,,,,,,,p,1,0.63,space,0.072,0,73,73,81,1,15_dist_green/trial7.png,,,1,15,greenverival,p,69,21,F,2021-02-26_15h07.27.384,exp11,2020.2.6,MacIntel,60,,,,,,,,,,,
,,,,,,,,,,,,,,a,1,0.927,space,0.259,0,74,74,168,1,0_targ_10_dist_green/trial19.png,,,0,10,greenverival,a,69,21,F,2021-02-26_15h07.27.384,exp11,2020.2.6,MacIntel,60,,,,,,,,,,,
,,,,,,,,,,,,,,p,1,0.543,space,0.139,0,75,75,28,1,3_dist_green/trial4.png,,,1,3,greenverival,p,69,21,F,2021-02-26_15h07.27.384,exp11,2020.2.6,MacIntel,60,,,,,,,,,,,
,,,,,,,,,,,,,,p,1,0.594,space,0.106,0,76,76,35,1,3_dist_green/trial11.png,,,1,3,greenverival,p,69,21,F,2021-02-26_15h07.27.384,exp11,2020.2.6,MacIntel,60,,,,,,,,,,,
,,,,,,,,,,,,,,p,1,0.524,space,0.109,0,77,77,44,1,3_dist_green/trial20.png,,,1,3,greenverival,p,69,21,F,2021-02-26_15h07.27.384,exp11,2020.2.6,MacIntel,60,,,,,,,,,,,
,,,,,,,,,,,,,,a,1,0.952,space,0.605,0,78,78,149,1,0_targ_4_dist_green/trial25.png,,,0,4,greenverival,a,69,21,F,2021-02-26_15h07.27.384,exp11,2020.2.6,MacIntel,60,,,,,,,,,,,
,,,,,,,,,,,,,,a,1,0.764,space,0.128,0,79,79,106,1,0_targ_1_dist_green/trial7.png,,,0,1,greenverival,a,69,21,F,2021-02-26_15h07.27.384,exp11,2020.2.6,MacIntel,60,,,,,,,,,,,
,,,,,,,,,,,,,,p,1,0.729,space,0.124,0,80,80,58,1,9_dist_green/trial9.png,,,1,9,greenverival,p,69,21,F,2021-02-26_15h07.27.384,exp11,2020.2.6,MacIntel,60,,,,,,,,,,,
,,,,,,,,,,,,,,p,1,1.113,space,0.157,0,81,81,29,1,3_dist_green/trial5.png,,,1,3,greenverival,p,69,21,F,2021-02-26_15h07.27.384,exp11,2020.2.6,MacIntel,60,,,,,,,,,,,
,,,,,,,,,,,,,,p,1,0.643,space,0.125,0,82,82,50,1,9_dist_green/trial1.png,,,1,9,greenverival,p,69,21,F,2021-02-26_15h07.27.384,exp11,2020.2.6,MacIntel,60,,,,,,,,,,,
,,,,,,,,,,,,,,a,1,0.693,space,0.597,0,83,83,114,1,0_targ_1_dist_green/trial15.png,,,0,1,greenverival,a,69,21,F,2021-02-26_15h07.27.384,exp11,2020.2.6,MacIntel,60,,,,,,,,,,,
,,,,,,,,,,,,,,a,1,0.874,space,0.539,0,84,84,172,1,0_targ_10_dist_green/trial23.png,,,0,10,greenverival,a,69,21,F,2021-02-26_15h07.27.384,exp11,2020.2.6,MacIntel,60,,,,,,,,,,,
,,,,,,,,,,,,,,p,1,0.578,space,0.319,0,85,85,36,1,3_dist_green/trial12.png,,,1,3,greenverival,p,69,21,F,2021-02-26_15h07.27.384,exp11,2020.2.6,MacIntel,60,,,,,,,,,,,
,,,,,,,,,,,,,,a,1,0.64,space,0.488,0,86,86,178,1,0_targ_16_dist_green/trial4.png,,,0,16,greenverival,a,69,21,F,2021-02-26_15h07.27.384,exp11,2020.2.6,MacIntel,60,,,,,,,,,,,
,,,,,,,,,,,,,,p,1,0.445,space,0.086,0,87,87,87,1,15_dist_green/trial13.png,,,1,15,greenverival,p,69,21,F,2021-02-26_15h07.27.384,exp11,2020.2.6,MacIntel,60,,,,,,,,,,,
,,,,,,,,,,,,,,p,1,0.595,space,0.022,0,88,88,89,1,15_dist_green/trial15.png,,,1,15,greenverival,p,69,21,F,2021-02-26_15h07.27.384,exp11,2020.2.6,MacIntel,60,,,,,,,,,,,
,,,,,,,,,,,,,,a,1,1.052,space,0.387,0,89,89,196,1,0_targ_16_dist_green/trial22.png,,,0,16,greenverival,a,69,21,F,2021-02-26_15h07.27.384,exp11,2020.2.6,MacIntel,60,,,,,,,,,,,
,,,,,,,,,,,,,,p,1,0.471,space,0.088,0,90,90,32,1,3_dist_green/trial8.png,,,1,3,greenverival,p,69,21,F,2021-02-26_15h07.27.384,exp11,2020.2.6,MacIntel,60,,,,,,,,,,,
,,,,,,,,,,,,,,a,1,0.564,space,0.491,0,91,91,113,1,0_targ_1_dist_green/trial14.png,,,0,1,greenverival,a,69,21,F,2021-02-26_15h07.27.384,exp11,2020.2.6,MacIntel,60,,,,,,,,,,,
,,,,,,,,,,,,,,a,1,0.877,space,0.156,0,92,92,167,1,0_targ_10_dist_green/trial18.png,,,0,10,greenverival,a,69,21,F,2021-02-26_15h07.27.384,exp11,2020.2.6,MacIntel,60,,,,,,,,,,,
,,,,,,,,,,,,,,a,1,0.629,space,0.095,0,93,93,156,1,0_targ_10_dist_green/trial7.png,,,0,10,greenverival,a,69,21,F,2021-02-26_15h07.27.384,exp11,2020.2.6,MacIntel,60,,,,,,,,,,,
,,,,,,,,,,,,,,a,1,0.889,space,0.081,0,94,94,199,1,0_targ_16_dist_green/trial25.png,,,0,16,greenverival,a,69,21,F,2021-02-26_15h07.27.384,exp11,2020.2.6,MacIntel,60,,,,,,,,,,,
,,,,,,,,,,,,,,p,0,0.692,space,0.391,0,95,95,110,1,0_targ_1_dist_green/trial11.png,,,0,1,greenverival,a,69,21,F,2021-02-26_15h07.27.384,exp11,2020.2.6,MacIntel,60,,,,,,,,,,,
,,,,,,,,,,,,,,p,1,0.894,space,0.115,0,96,96,69,1,9_dist_green/trial20.png,,,1,9,greenverival,p,69,21,F,2021-02-26_15h07.27.384,exp11,2020.2.6,MacIntel,60,,,,,,,,,,,
,,,,,,,,,,,,,,p,1,0.671,space,0.121,0,97,97,96,1,15_dist_green/trial22.png,,,1,15,greenverival,p,69,21,F,2021-02-26_15h07.27.384,exp11,2020.2.6,MacIntel,60,,,,,,,,,,,
,,,,,,,,,,,,,,a,1,0.727,space,0.094,0,98,98,139,1,0_targ_4_dist_green/trial15.png,,,0,4,greenverival,a,69,21,F,2021-02-26_15h07.27.384,exp11,2020.2.6,MacIntel,60,,,,,,,,,,,
,,,,,,,,,,,,,,a,1,0.875,space,0.054,0,99,99,189,1,0_targ_16_dist_green/trial15.png,,,0,16,greenverival,a,69,21,F,2021-02-26_15h07.27.384,exp11,2020.2.6,MacIntel,60,,,,,,,,,,,
,,,,,,,,,,,,,,a,1,0.674,space,0.07,0,100,100,133,1,0_targ_4_dist_green/trial9.png,,,0,4,greenverival,a,69,21,F,2021-02-26_15h07.27.384,exp11,2020.2.6,MacIntel,60,,,,,,,,,,,
,,,,,,,,,,,,,,p,1,0.634,space,0.136,0,101,101,53,1,9_dist_green/trial4.png,,,1,9,greenverival,p,69,21,F,2021-02-26_15h07.27.384,exp11,2020.2.6,MacIntel,60,,,,,,,,,,,
,,,,,,,,,,,,,,p,1,0.527,space,0.08,0,102,102,10,1,0_dist_green/trial11.png,,,1,0,greenverival,p,69,21,F,2021-02-26_15h07.27.384,exp11,2020.2.6,MacIntel,60,,,,,,,,,,,
,,,,,,,,,,,,,,a,1,0.584,space,0.229,0,103,103,127,1,0_targ_4_dist_green/trial3.png,,,0,4,greenverival,a,69,21,F,2021-02-26_15h07.27.384,exp11,2020.2.6,MacIntel,60,,,,,,,,,,,
,,,,,,,,,,,,,,a,1,0.71,space,0.106,0,104,104,193,1,0_targ_16_dist_green/trial19.png,,,0,16,greenverival,a,69,21,F,2021-02-26_15h07.27.384,exp11,2020.2.6,MacIntel,60,,,,,,,,,,,
,,,,,,,,,,,,,,a,1,0.611,space,0.071,0,105,105,115,1,0_targ_1_dist_green/trial6.png,,,0,1,greenverival,a,69,21,F,2021-02-26_15h07.27.384,exp11,2020.2.6,MacIntel,60,,,,,,,,,,,
,,,,,,,,,,,,,,p,1,0.796,space,0.239,0,106,106,51,1,9_dist_green/trial2.png,,,1,9,greenverival,p,69,21,F,2021-02-26_15h07.27.384,exp11,2020.2.6,MacIntel,60,,,,,,,,,,,
,,,,,,,,,,,,,,a,1,0.577,space,0.086,0,107,107,158,1,0_targ_10_dist_green/trial9.png,,,0,10,greenverival,a,69,21,F,2021-02-26_15h07.27.384,exp11,2020.2.6,MacIntel,60,,,,,,,,,,,
,,,,,,,,,,,,,,p,1,0.595,space,0.105,0,108,108,75,1,15_dist_green/trial1.png,,,1,15,greenverival,p,69,21,F,2021-02-26_15h07.27.384,exp11,2020.2.6,MacIntel,60,,,,,,,,,,,
,,,,,,,,,,,,,,p,1,0.929,space,0.103,0,109,109,70,1,9_dist_green/trial21.png,,,1,9,greenverival,p,69,21,F,2021-02-26_15h07.27.384,exp11,2020.2.6,MacIntel,60,,,,,,,,,,,
,,,,,,,,,,,,,,p,1,0.7,space,0.17,0,110,110,33,1,3_dist_green/trial9.png,,,1,3,greenverival,p,69,21,F,2021-02-26_15h07.27.384,exp11,2020.2.6,MacIntel,60,,,,,,,,,,,
,,,,,,,,,,,,,,a,1,1.986,space,0.854,0,111,111,102,1,0_targ_1_dist_green/trial3.png,,,0,1,greenverival,a,69,21,F,2021-02-26_15h07.27.384,exp11,2020.2.6,MacIntel,60,,,,,,,,,,,
,,,,,,,,,,,,,,p,1,0.561,space,0.125,0,112,112,80,1,15_dist_green/trial6.png,,,1,15,greenverival,p,69,21,F,2021-02-26_15h07.27.384,exp11,2020.2.6,MacIntel,60,,,,,,,,,,,
,,,,,,,,,,,,,,p,1,0.513,space,0.024,0,113,113,9,1,0_dist_green/trial10.png,,,1,0,greenverival,p,69,21,F,2021-02-26_15h07.27.384,exp11,2020.2.6,MacIntel,60,,,,,,,,,,,
,,,,,,,,,,,,,,p,1,0.645,space,0.029,0,114,114,64,1,9_dist_green/trial15.png,,,1,9,greenverival,p,69,21,F,2021-02-26_15h07.27.384,exp11,2020.2.6,MacIntel,60,,,,,,,,,,,
,,,,,,,,,,,,,,p,1,0.714,space,0.07,0,115,115,47,1,3_dist_green/trial23.png,,,1,3,greenverival,p,69,21,F,2021-02-26_15h07.27.384,exp11,2020.2.6,MacIntel,60,,,,,,,,,,,
,,,,,,,,,,,,,,p,1,0.676,space,0.078,0,116,116,60,1,9_dist_green/trial11.png,,,1,9,greenverival,p,69,21,F,2021-02-26_15h07.27.384,exp11,2020.2.6,MacIntel,60,,,,,,,,,,,
,,,,,,,,,,,,,,p,1,0.541,space,1.056,0,117,117,20,1,0_dist_green/trial21.png,,,1,0,greenverival,p,69,21,F,2021-02-26_15h07.27.384,exp11,2020.2.6,MacIntel,60,,,,,,,,,,,
,,,,,,,,,,,,,,a,1,0.532,space,0.632,0,118,118,100,1,0_targ_1_dist_green/trial1.png,,,0,1,greenverival,a,69,21,F,2021-02-26_15h07.27.384,exp11,2020.2.6,MacIntel,60,,,,,,,,,,,
,,,,,,,,,,,,,,a,1,0.771,space,0.658,0,119,119,166,1,0_targ_10_dist_green/trial17.png,,,0,10,greenverival,a,69,21,F,2021-02-26_15h07.27.384,exp11,2020.2.6,MacIntel,60,,,,,,,,,,,
,,,,,,,,,,,,,,p,1,0.432,space,0.122,0,120,120,67,1,9_dist_green/trial18.png,,,1,9,greenverival,p,69,21,F,2021-02-26_15h07.27.384,exp11,2020.2.6,MacIntel,60,,,,,,,,,,,
,,,,,,,,,,,,,,a,1,0.575,space,0.53,0,121,121,135,1,0_targ_4_dist_green/trial11.png,,,0,4,greenverival,a,69,21,F,2021-02-26_15h07.27.384,exp11,2020.2.6,MacIntel,60,,,,,,,,,,,
,,,,,,,,,,,,,,a,1,1.376,space,0.876,0,122,122,151,1,0_targ_10_dist_green/trial2.png,,,0,10,greenverival,a,69,21,F,2021-02-26_15h07.27.384,exp11,2020.2.6,MacIntel,60,,,,,,,,,,,
,,,,,,,,,,,,,,p,1,0.51,space,0.184,0,123,123,62,1,9_dist_green/trial13.png,,,1,9,greenverival,p,69,21,F,2021-02-26_15h07.27.384,exp11,2020.2.6,MacIntel,60,,,,,,,,,,,
,,,,,,,,,,,,,,a,1,0.46,space,0.537,0,124,124,116,1,0_targ_1_dist_green/trial17.png,,,0,1,greenverival,a,69,21,F,2021-02-26_15h07.27.384,exp11,2020.2.6,MacIntel,60,,,,,,,,,,,
,,,,,,,,,,,,,,p,1,0.461,space,0.144,0,125,125,0,1,0_dist_green/trial1.png,,,1,0,greenverival,p,69,21,F,2021-02-26_15h07.27.384,exp11,2020.2.6,MacIntel,60,,,,,,,,,,,
,,,,,,,,,,,,,,a,1,0.614,space,0.237,0,126,126,108,1,0_targ_1_dist_green/trial9.png,,,0,1,greenverival,a,69,21,F,2021-02-26_15h07.27.384,exp11,2020.2.6,MacIntel,60,,,,,,,,,,,
,,,,,,,,,,,,,,a,1,0.679,space,0.205,0,127,127,150,1,0_targ_10_dist_green/trial1.png,,,0,10,greenverival,a,69,21,F,2021-02-26_15h07.27.384,exp11,2020.2.6,MacIntel,60,,,,,,,,,,,
,,,,,,,,,,,,,,a,1,0.58,space,0.223,0,128,128,144,1,0_targ_4_dist_green/trial20.png,,,0,4,greenverival,a,69,21,F,2021-02-26_15h07.27.384,exp11,2020.2.6,MacIntel,60,,,,,,,,,,,
,,,,,,,,,,,,,,p,1,0.725,space,0.153,0,129,129,55,1,9_dist_green/trial6.png,,,1,9,greenverival,p,69,21,F,2021-02-26_15h07.27.384,exp11,2020.2.6,MacIntel,60,,,,,,,,,,,
,,,,,,,,,,,,,,p,1,0.542,space,0.19,0,130,130,73,1,9_dist_green/trial24.png,,,1,9,greenverival,p,69,21,F,2021-02-26_15h07.27.384,exp11,2020.2.6,MacIntel,60,,,,,,,,,,,
,,,,,,,,,,,,,,a,1,1.091,space,0.453,0,131,131,190,1,0_targ_16_dist_green/trial16.png,,,0,16,greenverival,a,69,21,F,2021-02-26_15h07.27.384,exp11,2020.2.6,MacIntel,60,,,,,,,,,,,
,,,,,,,,,,,,,,a,1,0.815,space,0.438,0,132,132,136,1,0_targ_4_dist_green/trial12.png,,,0,4,greenverival,a,69,21,F,2021-02-26_15h07.27.384,exp11,2020.2.6,MacIntel,60,,,,,,,,,,,
,,,,,,,,,,,,,,p,1,0.45,space,0.106,0,133,133,11,1,0_dist_green/trial12.png,,,1,0,greenverival,p,69,21,F,2021-02-26_15h07.27.384,exp11,2020.2.6,MacIntel,60,,,,,,,,,,,
,,,,,,,,,,,,,,p,1,0.49,space,0.121,0,134,134,66,1,9_dist_green/trial17.png,,,1,9,greenverival,p,69,21,F,2021-02-26_15h07.27.384,exp11,2020.2.6,MacIntel,60,,,,,,,,,,,
,,,,,,,,,,,,,,a,1,1.262,space,1.098,0,135,135,155,1,0_targ_10_dist_green/trial6.png,,,0,10,greenverival,a,69,21,F,2021-02-26_15h07.27.384,exp11,2020.2.6,MacIntel,60,,,,,,,,,,,
,,,,,,,,,,,,,,p,1,0.526,space,0.29,0,136,136,22,1,0_dist_green/trial23.png,,,1,0,greenverival,p,69,21,F,2021-02-26_15h07.27.384,exp11,2020.2.6,MacIntel,60,,,,,,,,,,,
,,,,,,,,,,,,,,a,1,1.161,space,0.312,0,137,137,191,1,0_targ_16_dist_green/trial17.png,,,0,16,greenverival,a,69,21,F,2021-02-26_15h07.27.384,exp11,2020.2.6,MacIntel,60,,,,,,,,,,,
,,,,,,,,,,,,,,p,1,0.529,space,0.149,0,138,138,54,1,9_dist_green/trial5.png,,,1,9,greenverival,p,69,21,F,2021-02-26_15h07.27.384,exp11,2020.2.6,MacIntel,60,,,,,,,,,,,
,,,,,,,,,,,,,,p,1,0.578,space,0.168,0,139,139,98,1,15_dist_green/trial24.png,,,1,15,greenverival,p,69,21,F,2021-02-26_15h07.27.384,exp11,2020.2.6,MacIntel,60,,,,,,,,,,,
,,,,,,,,,,,,,,a,1,0.559,space,0.747,0,140,140,141,1,0_targ_4_dist_green/trial17.png,,,0,4,greenverival,a,69,21,F,2021-02-26_15h07.27.384,exp11,2020.2.6,MacIntel,60,,,,,,,,,,,
,,,,,,,,,,,,,,p,1,0.345,space,0.199,0,141,141,90,1,15_dist_green/trial16.png,,,1,15,greenverival,p,69,21,F,2021-02-26_15h07.27.384,exp11,2020.2.6,MacIntel,60,,,,,,,,,,,
,,,,,,,,,,,,,,p,1,0.54,space,0.204,0,142,142,43,1,3_dist_green/trial19.png,,,1,3,greenverival,p,69,21,F,2021-02-26_15h07.27.384,exp11,2020.2.6,MacIntel,60,,,,,,,,,,,
,,,,,,,,,,,,,,p,1,0.465,space,0.192,0,143,143,63,1,9_dist_green/trial14.png,,,1,9,greenverival,p,69,21,F,2021-02-26_15h07.27.384,exp11,2020.2.6,MacIntel,60,,,,,,,,,,,
,,,,,,,,,,,,,,a,1,1.4,space,0.72,0,144,144,187,1,0_targ_16_dist_green/trial13.png,,,0,16,greenverival,a,69,21,F,2021-02-26_15h07.27.384,exp11,2020.2.6,MacIntel,60,,,,,,,,,,,
,,,,,,,,,,,,,,a,1,1.454,space,0.52,0,145,145,170,1,0_targ_10_dist_green/trial21.png,,,0,10,greenverival,a,69,21,F,2021-02-26_15h07.27.384,exp11,2020.2.6,MacIntel,60,,,,,,,,,,,
,,,,,,,,,,,,,,p,1,0.479,space,0.177,0,146,146,37,1,3_dist_green/trial13.png,,,1,3,greenverival,p,69,21,F,2021-02-26_15h07.27.384,exp11,2020.2.6,MacIntel,60,,,,,,,,,,,
,,,,,,,,,,,,,,a,1,1.578,space,0.442,0,147,147,164,1,0_targ_10_dist_green/trial15.png,,,0,10,greenverival,a,69,21,F,2021-02-26_15h07.27.384,exp11,2020.2.6,MacIntel,60,,,,,,,,,,,
,,,,,,,,,,,,,,a,1,1.163,space,0.387,0,148,148,184,1,0_targ_16_dist_green/trial10.png,,,0,16,greenverival,a,69,21,F,2021-02-26_15h07.27.384,exp11,2020.2.6,MacIntel,60,,,,,,,,,,,
,,,,,,,,,,,,,,a,1,1.231,space,0.49,0,149,149,105,1,0_targ_1_dist_green/trial6.png,,,0,1,greenverival,a,69,21,F,2021-02-26_15h07.27.384,exp11,2020.2.6,MacIntel,60,,,,,,,,,,,
,,,,,,,,,,,,,,p,1,0.506,space,0.122,0,150,150,99,1,15_dist_green/trial25.png,,,1,15,greenverival,p,69,21,F,2021-02-26_15h07.27.384,exp11,2020.2.6,MacIntel,60,,,,,,,,,,,
,,,,,,,,,,,,,,p,1,0.661,space,0.123,0,151,151,38,1,3_dist_green/trial14.png,,,1,3,greenverival,p,69,21,F,2021-02-26_15h07.27.384,exp11,2020.2.6,MacIntel,60,,,,,,,,,,,
,,,,,,,,,,,,,,p,1,0.46,space,0.122,0,152,152,16,1,0_dist_green/trial17.png,,,1,0,greenverival,p,69,21,F,2021-02-26_15h07.27.384,exp11,2020.2.6,MacIntel,60,,,,,,,,,,,
,,,,,,,,,,,,,,p,1,0.447,space,0.126,0,153,153,42,1,3_dist_green/trial18.png,,,1,3,greenverival,p,69,21,F,2021-02-26_15h07.27.384,exp11,2020.2.6,MacIntel,60,,,,,,,,,,,
,,,,,,,,,,,,,,a,1,0.677,space,0.338,0,154,154,192,1,0_targ_16_dist_green/trial18.png,,,0,16,greenverival,a,69,21,F,2021-02-26_15h07.27.384,exp11,2020.2.6,MacIntel,60,,,,,,,,,,,
,,,,,,,,,,,,,,p,0,0.861,space,2.293,0,155,155,104,1,0_targ_1_dist_green/trial5.png,,,0,1,greenverival,a,69,21,F,2021-02-26_15h07.27.384,exp11,2020.2.6,MacIntel,60,,,,,,,,,,,
,,,,,,,,,,,,,,a,1,0.702,space,0.313,0,156,156,130,1,0_targ_4_dist_green/trial6.png,,,0,4,greenverival,a,69,21,F,2021-02-26_15h07.27.384,exp11,2020.2.6,MacIntel,60,,,,,,,,,,,
,,,,,,,,,,,,,,p,1,0.379,space,0.157,0,157,157,23,1,0_dist_green/trial24.png,,,1,0,greenverival,p,69,21,F,2021-02-26_15h07.27.384,exp11,2020.2.6,MacIntel,60,,,,,,,,,,,
,,,,,,,,,,,,,,p,1,0.494,space,0.144,0,158,158,91,1,15_dist_green/trial17.png,,,1,15,greenverival,p,69,21,F,2021-02-26_15h07.27.384,exp11,2020.2.6,MacIntel,60,,,,,,,,,,,
,,,,,,,,,,,,,,a,1,0.963,space,0.492,0,159,159,194,1,0_targ_16_dist_green/trial20.png,,,0,16,greenverival,a,69,21,F,2021-02-26_15h07.27.384,exp11,2020.2.6,MacIntel,60,,,,,,,,,,,
,,,,,,,,,,,,,,p,1,0.445,space,0.154,0,160,160,93,1,15_dist_green/trial19.png,,,1,15,greenverival,p,69,21,F,2021-02-26_15h07.27.384,exp11,2020.2.6,MacIntel,60,,,,,,,,,,,
,,,,,,,,,,,,,,a,1,0.919,space,0.463,0,161,161,159,1,0_targ_10_dist_green/trial10.png,,,0,10,greenverival,a,69,21,F,2021-02-26_15h07.27.384,exp11,2020.2.6,MacIntel,60,,,,,,,,,,,
,,,,,,,,,,,,,,p,0,1.569,space,1.011,0,162,162,146,1,0_targ_4_dist_green/trial22.png,,,0,4,greenverival,a,69,21,F,2021-02-26_15h07.27.384,exp11,2020.2.6,MacIntel,60,,,,,,,,,,,
,,,,,,,,,,,,,,a,1,0.775,space,0.399,0,163,163,181,1,0_targ_16_dist_green/trial7.png,,,0,16,greenverival,a,69,21,F,2021-02-26_15h07.27.384,exp11,2020.2.6,MacIntel,60,,,,,,,,,,,
,,,,,,,,,,,,,,a,1,0.776,space,0.273,0,164,164,183,1,0_targ_16_dist_green/trial9.png,,,0,16,greenverival,a,69,21,F,2021-02-26_15h07.27.384,exp11,2020.2.6,MacIntel,60,,,,,,,,,,,
,,,,,,,,,,,,,,a,1,0.741,space,0.149,0,165,165,162,1,0_targ_10_dist_green/trial13.png,,,0,10,greenverival,a,69,21,F,2021-02-26_15h07.27.384,exp11,2020.2.6,MacIntel,60,,,,,,,,,,,
,,,,,,,,,,,,,,p,1,0.831,space,0.34,0,166,166,97,1,15_dist_green/trial23.png,,,1,15,greenverival,p,69,21,F,2021-02-26_15h07.27.384,exp11,2020.2.6,MacIntel,60,,,,,,,,,,,
,,,,,,,,,,,,,,a,1,0.585,space,0.326,0,167,167,132,1,0_targ_4_dist_green/trial8.png,,,0,4,greenverival,a,69,21,F,2021-02-26_15h07.27.384,exp11,2020.2.6,MacIntel,60,,,,,,,,,,,
,,,,,,,,,,,,,,a,1,0.675,space,0.265,0,168,168,119,1,0_targ_1_dist_green/trial20.png,,,0,1,greenverival,a,69,21,F,2021-02-26_15h07.27.384,exp11,2020.2.6,MacIntel,60,,,,,,,,,,,
,,,,,,,,,,,,,,p,1,0.761,space,0.289,0,169,169,74,1,9_dist_green/trial25.png,,,1,9,greenverival,p,69,21,F,2021-02-26_15h07.27.384,exp11,2020.2.6,MacIntel,60,,,,,,,,,,,
,,,,,,,,,,,,,,p,1,0.541,space,0.211,0,170,170,92,1,15_dist_green/trial18.png,,,1,15,greenverival,p,69,21,F,2021-02-26_15h07.27.384,exp11,2020.2.6,MacIntel,60,,,,,,,,,,,
,,,,,,,,,,,,,,p,1,0.813,space,0.203,0,171,171,49,1,3_dist_green/trial25.png,,,1,3,greenverival,p,69,21,F,2021-02-26_15h07.27.384,exp11,2020.2.6,MacIntel,60,,,,,,,,,,,
,,,,,,,,,,,,,,a,1,0.992,space,0.308,0,172,172,169,1,0_targ_10_dist_green/trial20.png,,,0,10,greenverival,a,69,21,F,2021-02-26_15h07.27.384,exp11,2020.2.6,MacIntel,60,,,,,,,,,,,
,,,,,,,,,,,,,,p,1,0.501,space,0.243,0,173,173,48,1,3_dist_green/trial24.png,,,1,3,greenverival,p,69,21,F,2021-02-26_15h07.27.384,exp11,2020.2.6,MacIntel,60,,,,,,,,,,,
,,,,,,,,,,,,,,p,1,0.478,space,0.238,0,174,174,88,1,15_dist_green/trial14.png,,,1,15,greenverival,p,69,21,F,2021-02-26_15h07.27.384,exp11,2020.2.6,MacIntel,60,,,,,,,,,,,
,,,,,,,,,,,,,,p,1,0.401,space,0.293,0,175,175,24,1,0_dist_green/trial25.png,,,1,0,greenverival,p,69,21,F,2021-02-26_15h07.27.384,exp11,2020.2.6,MacIntel,60,,,,,,,,,,,
,,,,,,,,,,,,,,p,0,1.778,space,2.259,0,176,176,180,1,0_targ_16_dist_green/trial6.png,,,0,16,greenverival,a,69,21,F,2021-02-26_15h07.27.384,exp11,2020.2.6,MacIntel,60,,,,,,,,,,,
,,,,,,,,,,,,,,a,1,1.863,space,0.386,0,177,177,186,1,0_targ_16_dist_green/trial12.png,,,0,16,greenverival,a,69,21,F,2021-02-26_15h07.27.384,exp11,2020.2.6,MacIntel,60,,,,,,,,,,,
,,,,,,,,,,,,,,a,1,0.679,space,0.278,0,178,178,197,1,0_targ_16_dist_green/trial23.png,,,0,16,greenverival,a,69,21,F,2021-02-26_15h07.27.384,exp11,2020.2.6,MacIntel,60,,,,,,,,,,,
,,,,,,,,,,,,,,a,1,0.729,space,0.18,0,179,179,123,1,0_targ_1_dist_green/trial24.png,,,0,1,greenverival,a,69,21,F,2021-02-26_15h07.27.384,exp11,2020.2.6,MacIntel,60,,,,,,,,,,,
,,,,,,,,,,,,,,a,1,0.627,space,0.16,0,180,180,126,1,0_targ_4_dist_green/trial2.png,,,0,4,greenverival,a,69,21,F,2021-02-26_15h07.27.384,exp11,2020.2.6,MacIntel,60,,,,,,,,,,,
,,,,,,,,,,,,,,a,1,0.801,space,0.155,0,181,181,154,1,0_targ_10_dist_green/trial5.png,,,0,10,greenverival,a,69,21,F,2021-02-26_15h07.27.384,exp11,2020.2.6,MacIntel,60,,,,,,,,,,,
,,,,,,,,,,,,,,a,1,0.617,space,0.157,0,182,182,161,1,0_targ_10_dist_green/trial12.png,,,0,10,greenverival,a,69,21,F,2021-02-26_15h07.27.384,exp11,2020.2.6,MacIntel,60,,,,,,,,,,,
,,,,,,,,,,,,,,p,1,0.861,space,0.224,0,183,183,78,1,15_dist_green/trial4.png,,,1,15,greenverival,p,69,21,F,2021-02-26_15h07.27.384,exp11,2020.2.6,MacIntel,60,,,,,,,,,,,
,,,,,,,,,,,,,,a,1,0.746,space,0.491,0,184,184,175,1,0_targ_16_dist_green/trial1.png,,,0,16,greenverival,a,69,21,F,2021-02-26_15h07.27.384,exp11,2020.2.6,MacIntel,60,,,,,,,,,,,
,,,,,,,,,,,,,,p,1,0.692,space,0.153,0,185,185,82,1,15_dist_green/trial8.png,,,1,15,greenverival,p,69,21,F,2021-02-26_15h07.27.384,exp11,2020.2.6,MacIntel,60,,,,,,,,,,,
,,,,,,,,,,,,,,p,1,0.779,space,0.153,0,186,186,30,1,3_dist_green/trial6.png,,,1,3,greenverival,p,69,21,F,2021-02-26_15h07.27.384,exp11,2020.2.6,MacIntel,60,,,,,,,,,,,
,,,,,,,,,,,,,,p,1,0.495,space,0.172,0,187,187,13,1,0_dist_green/trial14.png,,,1,0,greenverival,p,69,21,F,2021-02-26_15h07.27.384,exp11,2020.2.6,MacIntel,60,,,,,,,,,,,
,,,,,,,,,,,,,,a,1,0.49,space,0.384,0,188,188,117,1,0_targ_1_dist_green/trial18.png,,,0,1,greenverival,a,69,21,F,2021-02-26_15h07.27.384,exp11,2020.2.6,MacIntel,60,,,,,,,,,,,
,,,,,,,,,,,,,,a,1,0.76,space,0.286,0,189,189,163,1,0_targ_10_dist_green/trial14.png,,,0,10,greenverival,a,69,21,F,2021-02-26_15h07.27.384,exp11,2020.2.6,MacIntel,60,,,,,,,,,,,
,,,,,,,,,,,,,,p,1,0.478,space,0.172,0,190,190,45,1,3_dist_green/trial21.png,,,1,3,greenverival,p,69,21,F,2021-02-26_15h07.27.384,exp11,2020.2.6,MacIntel,60,,,,,,,,,,,
,,,,,,,,,,,,,,a,1,0.617,space,0.548,0,191,191,101,1,0_targ_1_dist_green/trial2.png,,,0,1,greenverival,a,69,21,F,2021-02-26_15h07.27.384,exp11,2020.2.6,MacIntel,60,,,,,,,,,,,
,,,,,,,,,,,,,,p,1,0.388,space,0.151,0,192,192,3,1,0_dist_green/trial4.png,,,1,0,greenverival,p,69,21,F,2021-02-26_15h07.27.384,exp11,2020.2.6,MacIntel,60,,,,,,,,,,,
,,,,,,,,,,,,,,a,0,0.511,space,5.86,0,193,193,7,1,0_dist_green/trial8.png,,,1,0,greenverival,p,69,21,F,2021-02-26_15h07.27.384,exp11,2020.2.6,MacIntel,60,,,,,,,,,,,
,,,,,,,,,,,,,,p,1,1.944,space,0.749,0,194,194,18,1,0_dist_green/trial19.png,,,1,0,greenverival,p,69,21,F,2021-02-26_15h07.27.384,exp11,2020.2.6,MacIntel,60,,,,,,,,,,,
,,,,,,,,,,,,,,p,1,0.75,space,0.27,0,195,195,21,1,0_dist_green/trial22.png,,,1,0,greenverival,p,69,21,F,2021-02-26_15h07.27.384,exp11,2020.2.6,MacIntel,60,,,,,,,,,,,
,,,,,,,,,,,,,,a,1,1.47,space,0.411,0,196,196,145,1,0_targ_4_dist_green/trial21.png,,,0,4,greenverival,a,69,21,F,2021-02-26_15h07.27.384,exp11,2020.2.6,MacIntel,60,,,,,,,,,,,
,,,,,,,,,,,,,,a,1,0.644,space,0.239,0,197,197,137,1,0_targ_4_dist_green/trial13.png,,,0,4,greenverival,a,69,21,F,2021-02-26_15h07.27.384,exp11,2020.2.6,MacIntel,60,,,,,,,,,,,
,,,,,,,,,,,,,,a,1,1.359,space,0.468,0,198,198,198,1,0_targ_16_dist_green/trial24.png,,,0,16,greenverival,a,69,21,F,2021-02-26_15h07.27.384,exp11,2020.2.6,MacIntel,60,,,,,,,,,,,
,,,,,,,,,,,,,,a,1,1.111,space,0.312,0,199,199,174,1,0_targ_10_dist_green/trial25.png,,,0,10,greenverival,a,69,21,F,2021-02-26_15h07.27.384,exp11,2020.2.6,MacIntel,60,,,,,,,,,,,
,,,,,,,,,,,,,,,,,,,,,,,,,,,,,,,69,21,F,2021-02-26_15h07.27.384,exp11,2020.2.6,MacIntel,60,0,1,1,0,1,conGreen.xlsx,green vertical,Look for green vertical bar (target) and indicate if it is present or absent in the array. If green vertical target is present press 'p' and if absent press 'a'. Press SPACE to start.,,,
