key_resp_6.keys,key_resp_6.rt,key_resp_7.keys,key_resp_7.rt,key_resp_8.keys,key_resp_8.rt,key_resp_10.keys,key_resp_10.rt,key_resp_9.keys,key_resp_9.rt,key_resp_3.keys,key_resp_3.rt,key_resp_5.keys,key_resp_5.rt,key_resp.keys,key_resp.corr,key_resp.rt,key_resp_4.keys,key_resp_4.rt,trials.thisRepN,trials.thisTrialN,trials.thisN,trials.thisIndex,trials.ran,ImageFile,tarPos,tarSize,targPres,numDist,targetName,correctAns,participant,age,sex,date,expName,psychopyVersion,OS,frameRate,trials_2.thisRepN,trials_2.thisTrialN,trials_2.thisN,trials_2.thisIndex,trials_2.ran,condsFile,targName,instructionText,colTarget,sizeTarg,posit
space,7.67746,space,18.609765,space,4.299474999,space,83.027715,space,3.102905,space,28.679365,space,11.10822,a,1,1.900165,space,4.533985,0,0,0,190,1,0_targ_16_dist_green/trial16.png,,,0,16,greenverival,a,71,20,female,2021-02-17_14h21.03.461,exp11,2020.2.6,Win32,60,,,,,,,,,,,
,,,,,,,,,,,,,,p,1,0.685045,space,1.93663,0,1,1,27,1,3_dist_green/trial3.png,,,1,3,greenverival,p,71,20,female,2021-02-17_14h21.03.461,exp11,2020.2.6,Win32,60,,,,,,,,,,,
,,,,,,,,,,,,,,p,1,0.66002,space,0.337274999,0,2,2,32,1,3_dist_green/trial8.png,,,1,3,greenverival,p,71,20,female,2021-02-17_14h21.03.461,exp11,2020.2.6,Win32,60,,,,,,,,,,,
,,,,,,,,,,,,,,a,1,0.77542,space,0.30863,0,3,3,125,1,0_targ_4_dist_green/trial1.png,,,0,4,greenverival,a,71,20,female,2021-02-17_14h21.03.461,exp11,2020.2.6,Win32,60,,,,,,,,,,,
,,,,,,,,,,,,,,p,1,0.745515,space,0.290264999,0,4,4,15,1,0_dist_green/trial16.png,,,1,0,greenverival,p,71,20,female,2021-02-17_14h21.03.461,exp11,2020.2.6,Win32,60,,,,,,,,,,,
,,,,,,,,,,,,,,p,1,0.96302,space,0.21808,0,5,5,75,1,15_dist_green/trial1.png,,,1,15,greenverival,p,71,20,female,2021-02-17_14h21.03.461,exp11,2020.2.6,Win32,60,,,,,,,,,,,
,,,,,,,,,,,,,,a,1,0.725525,space,0.23873,0,6,6,103,1,0_targ_1_dist_green/trial4.png,,,0,1,greenverival,a,71,20,female,2021-02-17_14h21.03.461,exp11,2020.2.6,Win32,60,,,,,,,,,,,
,,,,,,,,,,,,,,p,1,0.668235,space,0.221105,0,7,7,29,1,3_dist_green/trial5.png,,,1,3,greenverival,p,71,20,female,2021-02-17_14h21.03.461,exp11,2020.2.6,Win32,60,,,,,,,,,,,
,,,,,,,,,,,,,,a,1,0.681285,space,0.25356,0,8,8,100,1,0_targ_1_dist_green/trial1.png,,,0,1,greenverival,a,71,20,female,2021-02-17_14h21.03.461,exp11,2020.2.6,Win32,60,,,,,,,,,,,
,,,,,,,,,,,,,,a,1,1.09413,space,0.19114,0,9,9,165,1,0_targ_10_dist_green/trial16.png,,,0,10,greenverival,a,71,20,female,2021-02-17_14h21.03.461,exp11,2020.2.6,Win32,60,,,,,,,,,,,
,,,,,,,,,,,,,,p,1,0.622389999,space,0.251464999,0,10,10,65,1,9_dist_green/trial16.png,,,1,9,greenverival,p,71,20,female,2021-02-17_14h21.03.461,exp11,2020.2.6,Win32,60,,,,,,,,,,,
,,,,,,,,,,,,,,a,1,1.104595,space,0.486545,0,11,11,182,1,0_targ_16_dist_green/trial8.png,,,0,16,greenverival,a,71,20,female,2021-02-17_14h21.03.461,exp11,2020.2.6,Win32,60,,,,,,,,,,,
,,,,,,,,,,,,,,a,1,1.371950001,space,0.44226,0,12,12,158,1,0_targ_10_dist_green/trial9.png,,,0,10,greenverival,a,71,20,female,2021-02-17_14h21.03.461,exp11,2020.2.6,Win32,60,,,,,,,,,,,
,,,,,,,,,,,,,,p,1,0.781505,space,0.35153,0,13,13,9,1,0_dist_green/trial10.png,,,1,0,greenverival,p,71,20,female,2021-02-17_14h21.03.461,exp11,2020.2.6,Win32,60,,,,,,,,,,,
,,,,,,,,,,,,,,p,1,0.775515,space,0.27143,0,14,14,61,1,9_dist_green/trial12.png,,,1,9,greenverival,p,71,20,female,2021-02-17_14h21.03.461,exp11,2020.2.6,Win32,60,,,,,,,,,,,
,,,,,,,,,,,,,,p,1,0.56451,space,0.242614999,0,15,15,62,1,9_dist_green/trial13.png,,,1,9,greenverival,p,71,20,female,2021-02-17_14h21.03.461,exp11,2020.2.6,Win32,60,,,,,,,,,,,
,,,,,,,,,,,,,,a,1,0.69973,space,0.271375,0,16,16,123,1,0_targ_1_dist_green/trial24.png,,,0,1,greenverival,a,71,20,female,2021-02-17_14h21.03.461,exp11,2020.2.6,Win32,60,,,,,,,,,,,
,,,,,,,,,,,,,,a,1,0.621955,space,0.311865,0,17,17,143,1,0_targ_4_dist_green/trial19.png,,,0,4,greenverival,a,71,20,female,2021-02-17_14h21.03.461,exp11,2020.2.6,Win32,60,,,,,,,,,,,
,,,,,,,,,,,,,,a,1,0.704485,space,0.225594999,0,18,18,128,1,0_targ_4_dist_green/trial4.png,,,0,4,greenverival,a,71,20,female,2021-02-17_14h21.03.461,exp11,2020.2.6,Win32,60,,,,,,,,,,,
,,,,,,,,,,,,,,p,1,0.825925,space,0.193739999,0,19,19,55,1,9_dist_green/trial6.png,,,1,9,greenverival,p,71,20,female,2021-02-17_14h21.03.461,exp11,2020.2.6,Win32,60,,,,,,,,,,,
,,,,,,,,,,,,,,p,1,0.657755001,space,0.127735,0,20,20,64,1,9_dist_green/trial15.png,,,1,9,greenverival,p,71,20,female,2021-02-17_14h21.03.461,exp11,2020.2.6,Win32,60,,,,,,,,,,,
,,,,,,,,,,,,,,a,1,0.807515,space,0.102845,0,21,21,134,1,0_targ_4_dist_green/trial10.png,,,0,4,greenverival,a,71,20,female,2021-02-17_14h21.03.461,exp11,2020.2.6,Win32,60,,,,,,,,,,,
,,,,,,,,,,,,,,a,1,2.124945,space,4.092585,0,22,22,127,1,0_targ_4_dist_green/trial3.png,,,0,4,greenverival,a,71,20,female,2021-02-17_14h21.03.461,exp11,2020.2.6,Win32,60,,,,,,,,,,,
,,,,,,,,,,,,,,a,1,0.67256,space,0.203125,0,23,23,131,1,0_targ_4_dist_green/trial7.png,,,0,4,greenverival,a,71,20,female,2021-02-17_14h21.03.461,exp11,2020.2.6,Win32,60,,,,,,,,,,,
,,,,,,,,,,,,,,a,1,0.74272,space,0.35124,0,24,24,117,1,0_targ_1_dist_green/trial18.png,,,0,1,greenverival,a,71,20,female,2021-02-17_14h21.03.461,exp11,2020.2.6,Win32,60,,,,,,,,,,,
,,,,,,,,,,,,,,p,1,0.558665,space,0.34209,0,25,25,12,1,0_dist_green/trial13.png,,,1,0,greenverival,p,71,20,female,2021-02-17_14h21.03.461,exp11,2020.2.6,Win32,60,,,,,,,,,,,
,,,,,,,,,,,,,,a,1,0.8067,space,0.27999,0,26,26,168,1,0_targ_10_dist_green/trial19.png,,,0,10,greenverival,a,71,20,female,2021-02-17_14h21.03.461,exp11,2020.2.6,Win32,60,,,,,,,,,,,
,,,,,,,,,,,,,,p,1,0.60685,space,0.244545,0,27,27,0,1,0_dist_green/trial1.png,,,1,0,greenverival,p,71,20,female,2021-02-17_14h21.03.461,exp11,2020.2.6,Win32,60,,,,,,,,,,,
,,,,,,,,,,,,,,a,1,0.702195,space,0.268985,0,28,28,176,1,0_targ_16_dist_green/trial2.png,,,0,16,greenverival,a,71,20,female,2021-02-17_14h21.03.461,exp11,2020.2.6,Win32,60,,,,,,,,,,,
,,,,,,,,,,,,,,p,1,1.474025,space,0.270055001,0,29,29,71,1,9_dist_green/trial22.png,,,1,9,greenverival,p,71,20,female,2021-02-17_14h21.03.461,exp11,2020.2.6,Win32,60,,,,,,,,,,,
,,,,,,,,,,,,,,p,1,0.65589,space,0.23857,0,30,30,26,1,3_dist_green/trial2.png,,,1,3,greenverival,p,71,20,female,2021-02-17_14h21.03.461,exp11,2020.2.6,Win32,60,,,,,,,,,,,
,,,,,,,,,,,,,,a,1,0.71816,space,0.26643,0,31,31,138,1,0_targ_4_dist_green/trial14.png,,,0,4,greenverival,a,71,20,female,2021-02-17_14h21.03.461,exp11,2020.2.6,Win32,60,,,,,,,,,,,
,,,,,,,,,,,,,,a,1,0.622789999,space,0.274615,0,32,32,110,1,0_targ_1_dist_green/trial11.png,,,0,1,greenverival,a,71,20,female,2021-02-17_14h21.03.461,exp11,2020.2.6,Win32,60,,,,,,,,,,,
,,,,,,,,,,,,,,p,1,0.642735,space,0.27178,0,33,33,11,1,0_dist_green/trial12.png,,,1,0,greenverival,p,71,20,female,2021-02-17_14h21.03.461,exp11,2020.2.6,Win32,60,,,,,,,,,,,
,,,,,,,,,,,,,,p,1,0.74276,space,0.228540001,0,34,34,93,1,15_dist_green/trial19.png,,,1,15,greenverival,p,71,20,female,2021-02-17_14h21.03.461,exp11,2020.2.6,Win32,60,,,,,,,,,,,
,,,,,,,,,,,,,,a,1,0.675225,space,0.32276,0,35,35,197,1,0_targ_16_dist_green/trial23.png,,,0,16,greenverival,a,71,20,female,2021-02-17_14h21.03.461,exp11,2020.2.6,Win32,60,,,,,,,,,,,
,,,,,,,,,,,,,,p,1,0.754375,space,0.250095,0,36,36,14,1,0_dist_green/trial15.png,,,1,0,greenverival,p,71,20,female,2021-02-17_14h21.03.461,exp11,2020.2.6,Win32,60,,,,,,,,,,,
,,,,,,,,,,,,,,a,1,0.76567,space,0.255740001,0,37,37,180,1,0_targ_16_dist_green/trial6.png,,,0,16,greenverival,a,71,20,female,2021-02-17_14h21.03.461,exp11,2020.2.6,Win32,60,,,,,,,,,,,
,,,,,,,,,,,,,,p,1,0.727390001,space,0.210015,0,38,38,54,1,9_dist_green/trial5.png,,,1,9,greenverival,p,71,20,female,2021-02-17_14h21.03.461,exp11,2020.2.6,Win32,60,,,,,,,,,,,
,,,,,,,,,,,,,,p,1,0.53227,space,0.31163,0,39,39,21,1,0_dist_green/trial22.png,,,1,0,greenverival,p,71,20,female,2021-02-17_14h21.03.461,exp11,2020.2.6,Win32,60,,,,,,,,,,,
,,,,,,,,,,,,,,a,1,0.578485,space,0.26741,0,40,40,145,1,0_targ_4_dist_green/trial21.png,,,0,4,greenverival,a,71,20,female,2021-02-17_14h21.03.461,exp11,2020.2.6,Win32,60,,,,,,,,,,,
,,,,,,,,,,,,,,a,1,0.669365,space,0.272290001,0,41,41,105,1,0_targ_1_dist_green/trial6.png,,,0,1,greenverival,a,71,20,female,2021-02-17_14h21.03.461,exp11,2020.2.6,Win32,60,,,,,,,,,,,
,,,,,,,,,,,,,,p,1,0.56156,space,0.21775,0,42,42,8,1,0_dist_green/trial9.png,,,1,0,greenverival,p,71,20,female,2021-02-17_14h21.03.461,exp11,2020.2.6,Win32,60,,,,,,,,,,,
,,,,,,,,,,,,,,a,1,0.61955,space,0.23789,0,43,43,174,1,0_targ_10_dist_green/trial25.png,,,0,10,greenverival,a,71,20,female,2021-02-17_14h21.03.461,exp11,2020.2.6,Win32,60,,,,,,,,,,,
,,,,,,,,,,,,,,a,0,0.66924,space,6.416865,0,44,44,59,1,9_dist_green/trial10.png,,,1,9,greenverival,p,71,20,female,2021-02-17_14h21.03.461,exp11,2020.2.6,Win32,60,,,,,,,,,,,
,,,,,,,,,,,,,,a,0,0.71182,space,3.311125,0,45,45,35,1,3_dist_green/trial11.png,,,1,3,greenverival,p,71,20,female,2021-02-17_14h21.03.461,exp11,2020.2.6,Win32,60,,,,,,,,,,,
,,,,,,,,,,,,,,a,1,1.367684999,space,2.759095,0,46,46,193,1,0_targ_16_dist_green/trial19.png,,,0,16,greenverival,a,71,20,female,2021-02-17_14h21.03.461,exp11,2020.2.6,Win32,60,,,,,,,,,,,
,,,,,,,,,,,,,,a,1,0.59734,space,0.571145,0,47,47,120,1,0_targ_1_dist_green/trial21.png,,,0,1,greenverival,a,71,20,female,2021-02-17_14h21.03.461,exp11,2020.2.6,Win32,60,,,,,,,,,,,
,,,,,,,,,,,,,,p,1,0.71108,space,0.74305,0,48,48,70,1,9_dist_green/trial21.png,,,1,9,greenverival,p,71,20,female,2021-02-17_14h21.03.461,exp11,2020.2.6,Win32,60,,,,,,,,,,,
,,,,,,,,,,,,,,p,1,0.628105001,space,1.633675,0,49,49,22,1,0_dist_green/trial23.png,,,1,0,greenverival,p,71,20,female,2021-02-17_14h21.03.461,exp11,2020.2.6,Win32,60,,,,,,,,,,,
,,,,,,,,,,,,,,p,1,0.617254999,space,0.446575,0,50,50,67,1,9_dist_green/trial18.png,,,1,9,greenverival,p,71,20,female,2021-02-17_14h21.03.461,exp11,2020.2.6,Win32,60,,,,,,,,,,,
,,,,,,,,,,,,,,p,1,0.752385,space,0.39181,0,51,51,28,1,3_dist_green/trial4.png,,,1,3,greenverival,p,71,20,female,2021-02-17_14h21.03.461,exp11,2020.2.6,Win32,60,,,,,,,,,,,
,,,,,,,,,,,,,,p,1,0.60793,space,0.379765,0,52,52,74,1,9_dist_green/trial25.png,,,1,9,greenverival,p,71,20,female,2021-02-17_14h21.03.461,exp11,2020.2.6,Win32,60,,,,,,,,,,,
,,,,,,,,,,,,,,p,1,0.80391,space,0.344695,0,53,53,73,1,9_dist_green/trial24.png,,,1,9,greenverival,p,71,20,female,2021-02-17_14h21.03.461,exp11,2020.2.6,Win32,60,,,,,,,,,,,
,,,,,,,,,,,,,,a,1,3.354,space,0.519375,0,54,54,164,1,0_targ_10_dist_green/trial15.png,,,0,10,greenverival,a,71,20,female,2021-02-17_14h21.03.461,exp11,2020.2.6,Win32,60,,,,,,,,,,,
,,,,,,,,,,,,,,a,1,0.76986,space,0.420045,0,55,55,198,1,0_targ_16_dist_green/trial24.png,,,0,16,greenverival,a,71,20,female,2021-02-17_14h21.03.461,exp11,2020.2.6,Win32,60,,,,,,,,,,,
,,,,,,,,,,,,,,a,1,0.782965,space,0.475265,0,56,56,109,1,0_targ_1_dist_green/trial10.png,,,0,1,greenverival,a,71,20,female,2021-02-17_14h21.03.461,exp11,2020.2.6,Win32,60,,,,,,,,,,,
,,,,,,,,,,,,,,p,1,0.610495,space,0.41034,0,57,57,66,1,9_dist_green/trial17.png,,,1,9,greenverival,p,71,20,female,2021-02-17_14h21.03.461,exp11,2020.2.6,Win32,60,,,,,,,,,,,
,,,,,,,,,,,,,,p,1,0.540695,space,0.270905,0,58,58,4,1,0_dist_green/trial5.png,,,1,0,greenverival,p,71,20,female,2021-02-17_14h21.03.461,exp11,2020.2.6,Win32,60,,,,,,,,,,,
,,,,,,,,,,,,,,p,1,0.749845,space,0.22597,0,59,59,77,1,15_dist_green/trial3.png,,,1,15,greenverival,p,71,20,female,2021-02-17_14h21.03.461,exp11,2020.2.6,Win32,60,,,,,,,,,,,
,,,,,,,,,,,,,,p,1,0.582275,space,0.263795,0,60,60,7,1,0_dist_green/trial8.png,,,1,0,greenverival,p,71,20,female,2021-02-17_14h21.03.461,exp11,2020.2.6,Win32,60,,,,,,,,,,,
,,,,,,,,,,,,,,a,1,0.673885,space,0.38699,0,61,61,106,1,0_targ_1_dist_green/trial7.png,,,0,1,greenverival,a,71,20,female,2021-02-17_14h21.03.461,exp11,2020.2.6,Win32,60,,,,,,,,,,,
,,,,,,,,,,,,,,p,1,0.664945,space,0.37336,0,62,62,57,1,9_dist_green/trial8.png,,,1,9,greenverival,p,71,20,female,2021-02-17_14h21.03.461,exp11,2020.2.6,Win32,60,,,,,,,,,,,
,,,,,,,,,,,,,,p,1,0.82065,space,0.210510001,0,63,63,81,1,15_dist_green/trial7.png,,,1,15,greenverival,p,71,20,female,2021-02-17_14h21.03.461,exp11,2020.2.6,Win32,60,,,,,,,,,,,
,,,,,,,,,,,,,,p,1,0.77598,space,0.167525,0,64,64,69,1,9_dist_green/trial20.png,,,1,9,greenverival,p,71,20,female,2021-02-17_14h21.03.461,exp11,2020.2.6,Win32,60,,,,,,,,,,,
,,,,,,,,,,,,,,p,0,0.658869999,space,1.088225,0,65,65,161,1,0_targ_10_dist_green/trial12.png,,,0,10,greenverival,a,71,20,female,2021-02-17_14h21.03.461,exp11,2020.2.6,Win32,60,,,,,,,,,,,
,,,,,,,,,,,,,,a,1,0.795715,space,0.32692,0,66,66,160,1,0_targ_10_dist_green/trial11.png,,,0,10,greenverival,a,71,20,female,2021-02-17_14h21.03.461,exp11,2020.2.6,Win32,60,,,,,,,,,,,
,,,,,,,,,,,,,,p,1,0.695400001,space,0.337765,0,67,67,30,1,3_dist_green/trial6.png,,,1,3,greenverival,p,71,20,female,2021-02-17_14h21.03.461,exp11,2020.2.6,Win32,60,,,,,,,,,,,
,,,,,,,,,,,,,,p,1,0.75373,space,0.285565,0,68,68,91,1,15_dist_green/trial17.png,,,1,15,greenverival,p,71,20,female,2021-02-17_14h21.03.461,exp11,2020.2.6,Win32,60,,,,,,,,,,,
,,,,,,,,,,,,,,p,1,0.641355,space,0.289925,0,69,69,60,1,9_dist_green/trial11.png,,,1,9,greenverival,p,71,20,female,2021-02-17_14h21.03.461,exp11,2020.2.6,Win32,60,,,,,,,,,,,
,,,,,,,,,,,,,,p,1,0.618975,space,0.25506,0,70,70,41,1,3_dist_green/trial17.png,,,1,3,greenverival,p,71,20,female,2021-02-17_14h21.03.461,exp11,2020.2.6,Win32,60,,,,,,,,,,,
,,,,,,,,,,,,,,p,1,0.72231,space,0.339070001,0,71,71,92,1,15_dist_green/trial18.png,,,1,15,greenverival,p,71,20,female,2021-02-17_14h21.03.461,exp11,2020.2.6,Win32,60,,,,,,,,,,,
,,,,,,,,,,,,,,a,1,0.692829999,space,0.253585,0,72,72,139,1,0_targ_4_dist_green/trial15.png,,,0,4,greenverival,a,71,20,female,2021-02-17_14h21.03.461,exp11,2020.2.6,Win32,60,,,,,,,,,,,
,,,,,,,,,,,,,,p,1,0.707780001,space,0.284495,0,73,73,3,1,0_dist_green/trial4.png,,,1,0,greenverival,p,71,20,female,2021-02-17_14h21.03.461,exp11,2020.2.6,Win32,60,,,,,,,,,,,
,,,,,,,,,,,,,,a,1,0.763294999,space,0.39659,0,74,74,184,1,0_targ_16_dist_green/trial10.png,,,0,16,greenverival,a,71,20,female,2021-02-17_14h21.03.461,exp11,2020.2.6,Win32,60,,,,,,,,,,,
,,,,,,,,,,,,,,p,1,0.77452,space,0.30136,0,75,75,46,1,3_dist_green/trial22.png,,,1,3,greenverival,p,71,20,female,2021-02-17_14h21.03.461,exp11,2020.2.6,Win32,60,,,,,,,,,,,
,,,,,,,,,,,,,,p,1,0.92916,space,0.252330001,0,76,76,83,1,15_dist_green/trial9.png,,,1,15,greenverival,p,71,20,female,2021-02-17_14h21.03.461,exp11,2020.2.6,Win32,60,,,,,,,,,,,
,,,,,,,,,,,,,,p,1,0.55981,space,0.333825,0,77,77,17,1,0_dist_green/trial18.png,,,1,0,greenverival,p,71,20,female,2021-02-17_14h21.03.461,exp11,2020.2.6,Win32,60,,,,,,,,,,,
,,,,,,,,,,,,,,a,1,0.926155,space,0.244505,0,78,78,172,1,0_targ_10_dist_green/trial23.png,,,0,10,greenverival,a,71,20,female,2021-02-17_14h21.03.461,exp11,2020.2.6,Win32,60,,,,,,,,,,,
,,,,,,,,,,,,,,a,1,1.651885,space,0.391415,0,79,79,163,1,0_targ_10_dist_green/trial14.png,,,0,10,greenverival,a,71,20,female,2021-02-17_14h21.03.461,exp11,2020.2.6,Win32,60,,,,,,,,,,,
,,,,,,,,,,,,,,a,1,0.733270001,space,0.336115,0,80,80,177,1,0_targ_16_dist_green/trial3.png,,,0,16,greenverival,a,71,20,female,2021-02-17_14h21.03.461,exp11,2020.2.6,Win32,60,,,,,,,,,,,
,,,,,,,,,,,,,,a,1,0.56501,space,0.390459999,0,81,81,129,1,0_targ_4_dist_green/trial5.png,,,0,4,greenverival,a,71,20,female,2021-02-17_14h21.03.461,exp11,2020.2.6,Win32,60,,,,,,,,,,,
,,,,,,,,,,,,,,a,1,0.52468,space,0.351365,0,82,82,101,1,0_targ_1_dist_green/trial2.png,,,0,1,greenverival,a,71,20,female,2021-02-17_14h21.03.461,exp11,2020.2.6,Win32,60,,,,,,,,,,,
,,,,,,,,,,,,,,p,1,0.547915,space,0.28677,0,83,83,31,1,3_dist_green/trial7.png,,,1,3,greenverival,p,71,20,female,2021-02-17_14h21.03.461,exp11,2020.2.6,Win32,60,,,,,,,,,,,
,,,,,,,,,,,,,,p,1,0.80279,space,0.306335,0,84,84,39,1,3_dist_green/trial15.png,,,1,3,greenverival,p,71,20,female,2021-02-17_14h21.03.461,exp11,2020.2.6,Win32,60,,,,,,,,,,,
,,,,,,,,,,,,,,p,1,0.67073,space,0.28591,0,85,85,85,1,15_dist_green/trial11.png,,,1,15,greenverival,p,71,20,female,2021-02-17_14h21.03.461,exp11,2020.2.6,Win32,60,,,,,,,,,,,
,,,,,,,,,,,,,,a,1,0.69158,space,0.212160001,0,86,86,169,1,0_targ_10_dist_green/trial20.png,,,0,10,greenverival,a,71,20,female,2021-02-17_14h21.03.461,exp11,2020.2.6,Win32,60,,,,,,,,,,,
,,,,,,,,,,,,,,a,0,0.69955,space,0.49564,0,87,87,86,1,15_dist_green/trial12.png,,,1,15,greenverival,p,71,20,female,2021-02-17_14h21.03.461,exp11,2020.2.6,Win32,60,,,,,,,,,,,
,,,,,,,,,,,,,,p,1,0.77481,space,0.32002,0,88,88,68,1,9_dist_green/trial19.png,,,1,9,greenverival,p,71,20,female,2021-02-17_14h21.03.461,exp11,2020.2.6,Win32,60,,,,,,,,,,,
,,,,,,,,,,,,,,a,1,0.751845,space,0.4036,0,89,89,166,1,0_targ_10_dist_green/trial17.png,,,0,10,greenverival,a,71,20,female,2021-02-17_14h21.03.461,exp11,2020.2.6,Win32,60,,,,,,,,,,,
,,,,,,,,,,,,,,p,1,0.988765,space,0.33574,0,90,90,80,1,15_dist_green/trial6.png,,,1,15,greenverival,p,71,20,female,2021-02-17_14h21.03.461,exp11,2020.2.6,Win32,60,,,,,,,,,,,
,,,,,,,,,,,,,,a,1,0.919815,space,0.721815,0,91,91,152,1,0_targ_10_dist_green/trial3.png,,,0,10,greenverival,a,71,20,female,2021-02-17_14h21.03.461,exp11,2020.2.6,Win32,60,,,,,,,,,,,
,,,,,,,,,,,,,,p,1,0.754315,space,0.32876,0,92,92,72,1,9_dist_green/trial23.png,,,1,9,greenverival,p,71,20,female,2021-02-17_14h21.03.461,exp11,2020.2.6,Win32,60,,,,,,,,,,,
,,,,,,,,,,,,,,a,1,0.74751,space,0.42619,0,93,93,186,1,0_targ_16_dist_green/trial12.png,,,0,16,greenverival,a,71,20,female,2021-02-17_14h21.03.461,exp11,2020.2.6,Win32,60,,,,,,,,,,,
,,,,,,,,,,,,,,a,1,0.97032,space,0.3719,0,94,94,196,1,0_targ_16_dist_green/trial22.png,,,0,16,greenverival,a,71,20,female,2021-02-17_14h21.03.461,exp11,2020.2.6,Win32,60,,,,,,,,,,,
,,,,,,,,,,,,,,a,1,0.72452,space,0.31303,0,95,95,181,1,0_targ_16_dist_green/trial7.png,,,0,16,greenverival,a,71,20,female,2021-02-17_14h21.03.461,exp11,2020.2.6,Win32,60,,,,,,,,,,,
,,,,,,,,,,,,,,p,1,0.53853,space,0.320535,0,96,96,10,1,0_dist_green/trial11.png,,,1,0,greenverival,p,71,20,female,2021-02-17_14h21.03.461,exp11,2020.2.6,Win32,60,,,,,,,,,,,
,,,,,,,,,,,,,,p,1,0.704,space,0.232975001,0,97,97,84,1,15_dist_green/trial10.png,,,1,15,greenverival,p,71,20,female,2021-02-17_14h21.03.461,exp11,2020.2.6,Win32,60,,,,,,,,,,,
,,,,,,,,,,,,,,p,1,0.622325,space,0.29469,0,98,98,2,1,0_dist_green/trial3.png,,,1,0,greenverival,p,71,20,female,2021-02-17_14h21.03.461,exp11,2020.2.6,Win32,60,,,,,,,,,,,
,,,,,,,,,,,,,,a,1,1.07938,space,7.72838,0,99,99,162,1,0_targ_10_dist_green/trial13.png,,,0,10,greenverival,a,71,20,female,2021-02-17_14h21.03.461,exp11,2020.2.6,Win32,60,,,,,,,,,,,
,,,,,,,,,,,,,,p,1,0.704895,space,0.684830001,0,100,100,24,1,0_dist_green/trial25.png,,,1,0,greenverival,p,71,20,female,2021-02-17_14h21.03.461,exp11,2020.2.6,Win32,60,,,,,,,,,,,
,,,,,,,,,,,,,,a,1,0.83433,space,0.518815001,0,101,101,151,1,0_targ_10_dist_green/trial2.png,,,0,10,greenverival,a,71,20,female,2021-02-17_14h21.03.461,exp11,2020.2.6,Win32,60,,,,,,,,,,,
,,,,,,,,,,,,,,a,1,0.774879999,space,0.390694999,0,102,102,146,1,0_targ_4_dist_green/trial22.png,,,0,4,greenverival,a,71,20,female,2021-02-17_14h21.03.461,exp11,2020.2.6,Win32,60,,,,,,,,,,,
,,,,,,,,,,,,,,a,1,0.5603,space,0.402679999,0,103,103,140,1,0_targ_4_dist_green/trial6.png,,,0,4,greenverival,a,71,20,female,2021-02-17_14h21.03.461,exp11,2020.2.6,Win32,60,,,,,,,,,,,
,,,,,,,,,,,,,,a,1,0.792305,space,0.369395,0,104,104,175,1,0_targ_16_dist_green/trial1.png,,,0,16,greenverival,a,71,20,female,2021-02-17_14h21.03.461,exp11,2020.2.6,Win32,60,,,,,,,,,,,
,,,,,,,,,,,,,,p,1,0.56874,space,0.254665,0,105,105,19,1,0_dist_green/trial20.png,,,1,0,greenverival,p,71,20,female,2021-02-17_14h21.03.461,exp11,2020.2.6,Win32,60,,,,,,,,,,,
,,,,,,,,,,,,,,p,1,0.741125001,space,0.234355,0,106,106,96,1,15_dist_green/trial22.png,,,1,15,greenverival,p,71,20,female,2021-02-17_14h21.03.461,exp11,2020.2.6,Win32,60,,,,,,,,,,,
,,,,,,,,,,,,,,p,1,0.60621,space,0.32017,0,107,107,38,1,3_dist_green/trial14.png,,,1,3,greenverival,p,71,20,female,2021-02-17_14h21.03.461,exp11,2020.2.6,Win32,60,,,,,,,,,,,
,,,,,,,,,,,,,,a,1,0.59388,space,0.31874,0,108,108,112,1,0_targ_1_dist_green/trial13.png,,,0,1,greenverival,a,71,20,female,2021-02-17_14h21.03.461,exp11,2020.2.6,Win32,60,,,,,,,,,,,
,,,,,,,,,,,,,,a,1,1.681735,space,9.134125001,0,109,109,173,1,0_targ_10_dist_green/trial24.png,,,0,10,greenverival,a,71,20,female,2021-02-17_14h21.03.461,exp11,2020.2.6,Win32,60,,,,,,,,,,,
,,,,,,,,,,,,,,p,1,0.625270001,space,0.203665,0,110,110,56,1,9_dist_green/trial7.png,,,1,9,greenverival,p,71,20,female,2021-02-17_14h21.03.461,exp11,2020.2.6,Win32,60,,,,,,,,,,,
,,,,,,,,,,,,,,a,1,0.532605,space,0.301845,0,111,111,153,1,0_targ_10_dist_green/trial4.png,,,0,10,greenverival,a,71,20,female,2021-02-17_14h21.03.461,exp11,2020.2.6,Win32,60,,,,,,,,,,,
,,,,,,,,,,,,,,p,1,0.92774,space,0.168494999,0,112,112,50,1,9_dist_green/trial1.png,,,1,9,greenverival,p,71,20,female,2021-02-17_14h21.03.461,exp11,2020.2.6,Win32,60,,,,,,,,,,,
,,,,,,,,,,,,,,a,1,0.62233,space,0.30252,0,113,113,115,1,0_targ_1_dist_green/trial6.png,,,0,1,greenverival,a,71,20,female,2021-02-17_14h21.03.461,exp11,2020.2.6,Win32,60,,,,,,,,,,,
,,,,,,,,,,,,,,a,1,0.827255,space,0.368705,0,114,114,195,1,0_targ_16_dist_green/trial21.png,,,0,16,greenverival,a,71,20,female,2021-02-17_14h21.03.461,exp11,2020.2.6,Win32,60,,,,,,,,,,,
,,,,,,,,,,,,,,a,1,0.667155,space,0.384980001,0,115,115,167,1,0_targ_10_dist_green/trial18.png,,,0,10,greenverival,a,71,20,female,2021-02-17_14h21.03.461,exp11,2020.2.6,Win32,60,,,,,,,,,,,
,,,,,,,,,,,,,,a,1,0.543254999,space,0.35104,0,116,116,119,1,0_targ_1_dist_green/trial20.png,,,0,1,greenverival,a,71,20,female,2021-02-17_14h21.03.461,exp11,2020.2.6,Win32,60,,,,,,,,,,,
,,,,,,,,,,,,,,a,1,0.543815,space,0.323240001,0,117,117,183,1,0_targ_16_dist_green/trial9.png,,,0,16,greenverival,a,71,20,female,2021-02-17_14h21.03.461,exp11,2020.2.6,Win32,60,,,,,,,,,,,
,,,,,,,,,,,,,,p,1,0.71557,space,0.24582,0,118,118,13,1,0_dist_green/trial14.png,,,1,0,greenverival,p,71,20,female,2021-02-17_14h21.03.461,exp11,2020.2.6,Win32,60,,,,,,,,,,,
,,,,,,,,,,,,,,a,1,0.77399,space,0.334485,0,119,119,133,1,0_targ_4_dist_green/trial9.png,,,0,4,greenverival,a,71,20,female,2021-02-17_14h21.03.461,exp11,2020.2.6,Win32,60,,,,,,,,,,,
,,,,,,,,,,,,,,a,1,0.96146,space,0.260855,0,120,120,144,1,0_targ_4_dist_green/trial20.png,,,0,4,greenverival,a,71,20,female,2021-02-17_14h21.03.461,exp11,2020.2.6,Win32,60,,,,,,,,,,,
,,,,,,,,,,,,,,p,1,1.01327,space,0.333725,0,121,121,79,1,15_dist_green/trial5.png,,,1,15,greenverival,p,71,20,female,2021-02-17_14h21.03.461,exp11,2020.2.6,Win32,60,,,,,,,,,,,
,,,,,,,,,,,,,,a,1,1.17097,space,0.55421,0,122,122,126,1,0_targ_4_dist_green/trial2.png,,,0,4,greenverival,a,71,20,female,2021-02-17_14h21.03.461,exp11,2020.2.6,Win32,60,,,,,,,,,,,
,,,,,,,,,,,,,,p,1,0.726225,space,0.219645,0,123,123,98,1,15_dist_green/trial24.png,,,1,15,greenverival,p,71,20,female,2021-02-17_14h21.03.461,exp11,2020.2.6,Win32,60,,,,,,,,,,,
,,,,,,,,,,,,,,a,1,1.609475001,space,0.603565,0,124,124,114,1,0_targ_1_dist_green/trial15.png,,,0,1,greenverival,a,71,20,female,2021-02-17_14h21.03.461,exp11,2020.2.6,Win32,60,,,,,,,,,,,
,,,,,,,,,,,,,,a,1,0.665010001,space,0.35388,0,125,125,159,1,0_targ_10_dist_green/trial10.png,,,0,10,greenverival,a,71,20,female,2021-02-17_14h21.03.461,exp11,2020.2.6,Win32,60,,,,,,,,,,,
,,,,,,,,,,,,,,p,1,1.10376,space,0.185005,0,126,126,58,1,9_dist_green/trial9.png,,,1,9,greenverival,p,71,20,female,2021-02-17_14h21.03.461,exp11,2020.2.6,Win32,60,,,,,,,,,,,
,,,,,,,,,,,,,,a,1,0.684775,space,0.37857,0,127,127,155,1,0_targ_10_dist_green/trial6.png,,,0,10,greenverival,a,71,20,female,2021-02-17_14h21.03.461,exp11,2020.2.6,Win32,60,,,,,,,,,,,
,,,,,,,,,,,,,,p,1,0.938019999,space,0.290255,0,128,128,34,1,3_dist_green/trial10.png,,,1,3,greenverival,p,71,20,female,2021-02-17_14h21.03.461,exp11,2020.2.6,Win32,60,,,,,,,,,,,
,,,,,,,,,,,,,,a,1,0.704545,space,0.47578,0,129,129,136,1,0_targ_4_dist_green/trial12.png,,,0,4,greenverival,a,71,20,female,2021-02-17_14h21.03.461,exp11,2020.2.6,Win32,60,,,,,,,,,,,
,,,,,,,,,,,,,,a,1,1.126095001,space,0.216765,0,130,130,104,1,0_targ_1_dist_green/trial5.png,,,0,1,greenverival,a,71,20,female,2021-02-17_14h21.03.461,exp11,2020.2.6,Win32,60,,,,,,,,,,,
,,,,,,,,,,,,,,a,1,0.52626,space,0.30849,0,131,131,135,1,0_targ_4_dist_green/trial11.png,,,0,4,greenverival,a,71,20,female,2021-02-17_14h21.03.461,exp11,2020.2.6,Win32,60,,,,,,,,,,,
,,,,,,,,,,,,,,a,1,0.38722,space,0.253435,0,132,132,108,1,0_targ_1_dist_green/trial9.png,,,0,1,greenverival,a,71,20,female,2021-02-17_14h21.03.461,exp11,2020.2.6,Win32,60,,,,,,,,,,,
,,,,,,,,,,,,,,a,1,0.436075,space,0.16851,0,133,133,149,1,0_targ_4_dist_green/trial25.png,,,0,4,greenverival,a,71,20,female,2021-02-17_14h21.03.461,exp11,2020.2.6,Win32,60,,,,,,,,,,,
,,,,,,,,,,,,,,p,1,0.608895,space,0.22467,0,134,134,53,1,9_dist_green/trial4.png,,,1,9,greenverival,p,71,20,female,2021-02-17_14h21.03.461,exp11,2020.2.6,Win32,60,,,,,,,,,,,
,,,,,,,,,,,,,,a,1,0.794525,space,0.168234999,0,135,135,141,1,0_targ_4_dist_green/trial17.png,,,0,4,greenverival,a,71,20,female,2021-02-17_14h21.03.461,exp11,2020.2.6,Win32,60,,,,,,,,,,,
,,,,,,,,,,,,,,a,1,0.55681,space,0.210095,0,136,136,148,1,0_targ_4_dist_green/trial24.png,,,0,4,greenverival,a,71,20,female,2021-02-17_14h21.03.461,exp11,2020.2.6,Win32,60,,,,,,,,,,,
,,,,,,,,,,,,,,p,1,1.5748,space,0.33564,0,137,137,78,1,15_dist_green/trial4.png,,,1,15,greenverival,p,71,20,female,2021-02-17_14h21.03.461,exp11,2020.2.6,Win32,60,,,,,,,,,,,
,,,,,,,,,,,,,,a,1,0.95654,space,0.285025001,0,138,138,113,1,0_targ_1_dist_green/trial14.png,,,0,1,greenverival,a,71,20,female,2021-02-17_14h21.03.461,exp11,2020.2.6,Win32,60,,,,,,,,,,,
,,,,,,,,,,,,,,a,1,0.759075,space,0.238335,0,139,139,188,1,0_targ_16_dist_green/trial14.png,,,0,16,greenverival,a,71,20,female,2021-02-17_14h21.03.461,exp11,2020.2.6,Win32,60,,,,,,,,,,,
,,,,,,,,,,,,,,a,1,0.57932,space,0.283685001,0,140,140,121,1,0_targ_1_dist_green/trial22.png,,,0,1,greenverival,a,71,20,female,2021-02-17_14h21.03.461,exp11,2020.2.6,Win32,60,,,,,,,,,,,
,,,,,,,,,,,,,,a,1,0.346355,space,0.24489,0,141,141,116,1,0_targ_1_dist_green/trial17.png,,,0,1,greenverival,a,71,20,female,2021-02-17_14h21.03.461,exp11,2020.2.6,Win32,60,,,,,,,,,,,
,,,,,,,,,,,,,,p,1,0.555095,space,0.169334999,0,142,142,37,1,3_dist_green/trial13.png,,,1,3,greenverival,p,71,20,female,2021-02-17_14h21.03.461,exp11,2020.2.6,Win32,60,,,,,,,,,,,
,,,,,,,,,,,,,,p,1,0.62132,space,0.12016,0,143,143,52,1,9_dist_green/trial3.png,,,1,9,greenverival,p,71,20,female,2021-02-17_14h21.03.461,exp11,2020.2.6,Win32,60,,,,,,,,,,,
,,,,,,,,,,,,,,a,1,0.62835,space,0.11021,0,144,144,178,1,0_targ_16_dist_green/trial4.png,,,0,16,greenverival,a,71,20,female,2021-02-17_14h21.03.461,exp11,2020.2.6,Win32,60,,,,,,,,,,,
,,,,,,,,,,,,,,p,1,0.781905,space,0.083769999,0,145,145,23,1,0_dist_green/trial24.png,,,1,0,greenverival,p,71,20,female,2021-02-17_14h21.03.461,exp11,2020.2.6,Win32,60,,,,,,,,,,,
,,,,,,,,,,,,,,a,1,0.6316,space,0.1349,0,146,146,130,1,0_targ_4_dist_green/trial6.png,,,0,4,greenverival,a,71,20,female,2021-02-17_14h21.03.461,exp11,2020.2.6,Win32,60,,,,,,,,,,,
,,,,,,,,,,,,,,p,1,0.51368,space,0.361895,0,147,147,49,1,3_dist_green/trial25.png,,,1,3,greenverival,p,71,20,female,2021-02-17_14h21.03.461,exp11,2020.2.6,Win32,60,,,,,,,,,,,
,,,,,,,,,,,,,,a,1,0.775830001,space,0.157559999,0,148,148,185,1,0_targ_16_dist_green/trial11.png,,,0,16,greenverival,a,71,20,female,2021-02-17_14h21.03.461,exp11,2020.2.6,Win32,60,,,,,,,,,,,
,,,,,,,,,,,,,,p,1,0.703795,space,0.1441,0,149,149,63,1,9_dist_green/trial14.png,,,1,9,greenverival,p,71,20,female,2021-02-17_14h21.03.461,exp11,2020.2.6,Win32,60,,,,,,,,,,,
,,,,,,,,,,,,,,p,1,0.56715,space,0.104855,0,150,150,5,1,0_dist_green/trial6.png,,,1,0,greenverival,p,71,20,female,2021-02-17_14h21.03.461,exp11,2020.2.6,Win32,60,,,,,,,,,,,
,,,,,,,,,,,,,,p,1,0.657895,space,0.17502,0,151,151,43,1,3_dist_green/trial19.png,,,1,3,greenverival,p,71,20,female,2021-02-17_14h21.03.461,exp11,2020.2.6,Win32,60,,,,,,,,,,,
,,,,,,,,,,,,,,p,1,0.45552,space,0.11932,0,152,152,42,1,3_dist_green/trial18.png,,,1,3,greenverival,p,71,20,female,2021-02-17_14h21.03.461,exp11,2020.2.6,Win32,60,,,,,,,,,,,
,,,,,,,,,,,,,,p,1,0.573580001,space,0.101535,0,153,153,94,1,15_dist_green/trial20.png,,,1,15,greenverival,p,71,20,female,2021-02-17_14h21.03.461,exp11,2020.2.6,Win32,60,,,,,,,,,,,
,,,,,,,,,,,,,,p,1,0.486195001,space,0.15989,0,154,154,36,1,3_dist_green/trial12.png,,,1,3,greenverival,p,71,20,female,2021-02-17_14h21.03.461,exp11,2020.2.6,Win32,60,,,,,,,,,,,
,,,,,,,,,,,,,,p,1,0.445345,space,0.170175,0,155,155,6,1,0_dist_green/trial7.png,,,1,0,greenverival,p,71,20,female,2021-02-17_14h21.03.461,exp11,2020.2.6,Win32,60,,,,,,,,,,,
,,,,,,,,,,,,,,p,1,0.64046,space,0.45431,0,156,156,40,1,3_dist_green/trial16.png,,,1,3,greenverival,p,71,20,female,2021-02-17_14h21.03.461,exp11,2020.2.6,Win32,60,,,,,,,,,,,
,,,,,,,,,,,,,,a,1,0.58913,space,0.177554999,0,157,157,170,1,0_targ_10_dist_green/trial21.png,,,0,10,greenverival,a,71,20,female,2021-02-17_14h21.03.461,exp11,2020.2.6,Win32,60,,,,,,,,,,,
,,,,,,,,,,,,,,a,1,0.453525,space,0.166054999,0,158,158,111,1,0_targ_1_dist_green/trial12.png,,,0,1,greenverival,a,71,20,female,2021-02-17_14h21.03.461,exp11,2020.2.6,Win32,60,,,,,,,,,,,
,,,,,,,,,,,,,,p,1,0.623875,space,0.17409,0,159,159,88,1,15_dist_green/trial14.png,,,1,15,greenverival,p,71,20,female,2021-02-17_14h21.03.461,exp11,2020.2.6,Win32,60,,,,,,,,,,,
,,,,,,,,,,,,,,a,1,0.73012,space,0.1517,0,160,160,187,1,0_targ_16_dist_green/trial13.png,,,0,16,greenverival,a,71,20,female,2021-02-17_14h21.03.461,exp11,2020.2.6,Win32,60,,,,,,,,,,,
,,,,,,,,,,,,,,p,1,0.916185,space,0.19155,0,161,161,76,1,15_dist_green/trial2.png,,,1,15,greenverival,p,71,20,female,2021-02-17_14h21.03.461,exp11,2020.2.6,Win32,60,,,,,,,,,,,
,,,,,,,,,,,,,,p,1,0.887365,space,0.208395,0,162,162,89,1,15_dist_green/trial15.png,,,1,15,greenverival,p,71,20,female,2021-02-17_14h21.03.461,exp11,2020.2.6,Win32,60,,,,,,,,,,,
,,,,,,,,,,,,,,a,0,0.606315,space,0.63724,0,163,163,82,1,15_dist_green/trial8.png,,,1,15,greenverival,p,71,20,female,2021-02-17_14h21.03.461,exp11,2020.2.6,Win32,60,,,,,,,,,,,
,,,,,,,,,,,,,,p,1,0.61782,space,0.118055,0,164,164,47,1,3_dist_green/trial23.png,,,1,3,greenverival,p,71,20,female,2021-02-17_14h21.03.461,exp11,2020.2.6,Win32,60,,,,,,,,,,,
,,,,,,,,,,,,,,a,1,1.04131,space,0.150805,0,165,165,150,1,0_targ_10_dist_green/trial1.png,,,0,10,greenverival,a,71,20,female,2021-02-17_14h21.03.461,exp11,2020.2.6,Win32,60,,,,,,,,,,,
,,,,,,,,,,,,,,p,1,1.06277,space,0.23343,0,166,166,25,1,3_dist_green/trial1.png,,,1,3,greenverival,p,71,20,female,2021-02-17_14h21.03.461,exp11,2020.2.6,Win32,60,,,,,,,,,,,
,,,,,,,,,,,,,,a,1,0.770615,space,0.668055,0,167,167,191,1,0_targ_16_dist_green/trial17.png,,,0,16,greenverival,a,71,20,female,2021-02-17_14h21.03.461,exp11,2020.2.6,Win32,60,,,,,,,,,,,
,,,,,,,,,,,,,,a,1,1.27492,space,0.306009999,0,168,168,102,1,0_targ_1_dist_green/trial3.png,,,0,1,greenverival,a,71,20,female,2021-02-17_14h21.03.461,exp11,2020.2.6,Win32,60,,,,,,,,,,,
,,,,,,,,,,,,,,p,1,0.589375,space,0.203715,0,169,169,20,1,0_dist_green/trial21.png,,,1,0,greenverival,p,71,20,female,2021-02-17_14h21.03.461,exp11,2020.2.6,Win32,60,,,,,,,,,,,
,,,,,,,,,,,,,,p,1,0.570485,space,0.194365,0,170,170,48,1,3_dist_green/trial24.png,,,1,3,greenverival,p,71,20,female,2021-02-17_14h21.03.461,exp11,2020.2.6,Win32,60,,,,,,,,,,,
,,,,,,,,,,,,,,p,1,0.767205,space,0.217025001,0,171,171,95,1,15_dist_green/trial21.png,,,1,15,greenverival,p,71,20,female,2021-02-17_14h21.03.461,exp11,2020.2.6,Win32,60,,,,,,,,,,,
,,,,,,,,,,,,,,a,1,1.043165,space,0.346255,0,172,172,192,1,0_targ_16_dist_green/trial18.png,,,0,16,greenverival,a,71,20,female,2021-02-17_14h21.03.461,exp11,2020.2.6,Win32,60,,,,,,,,,,,
,,,,,,,,,,,,,,p,1,0.843085,space,0.276265,0,173,173,18,1,0_dist_green/trial19.png,,,1,0,greenverival,p,71,20,female,2021-02-17_14h21.03.461,exp11,2020.2.6,Win32,60,,,,,,,,,,,
,,,,,,,,,,,,,,a,1,1.093,space,0.285379999,0,174,174,199,1,0_targ_16_dist_green/trial25.png,,,0,16,greenverival,a,71,20,female,2021-02-17_14h21.03.461,exp11,2020.2.6,Win32,60,,,,,,,,,,,
,,,,,,,,,,,,,,a,1,0.832065,space,0.313695,0,175,175,122,1,0_targ_1_dist_green/trial23.png,,,0,1,greenverival,a,71,20,female,2021-02-17_14h21.03.461,exp11,2020.2.6,Win32,60,,,,,,,,,,,
,,,,,,,,,,,,,,a,1,0.705085,space,0.306595,0,176,176,194,1,0_targ_16_dist_green/trial20.png,,,0,16,greenverival,a,71,20,female,2021-02-17_14h21.03.461,exp11,2020.2.6,Win32,60,,,,,,,,,,,
,,,,,,,,,,,,,,a,1,0.57539,space,0.336335,0,177,177,179,1,0_targ_16_dist_green/trial5.png,,,0,16,greenverival,a,71,20,female,2021-02-17_14h21.03.461,exp11,2020.2.6,Win32,60,,,,,,,,,,,
,,,,,,,,,,,,,,a,1,0.54231,space,0.30083,0,178,178,107,1,0_targ_1_dist_green/trial8.png,,,0,1,greenverival,a,71,20,female,2021-02-17_14h21.03.461,exp11,2020.2.6,Win32,60,,,,,,,,,,,
,,,,,,,,,,,,,,p,1,0.609655,space,0.20203,0,179,179,99,1,15_dist_green/trial25.png,,,1,15,greenverival,p,71,20,female,2021-02-17_14h21.03.461,exp11,2020.2.6,Win32,60,,,,,,,,,,,
,,,,,,,,,,,,,,a,0,0.728855,space,0.445945,0,180,180,87,1,15_dist_green/trial13.png,,,1,15,greenverival,p,71,20,female,2021-02-17_14h21.03.461,exp11,2020.2.6,Win32,60,,,,,,,,,,,
,,,,,,,,,,,,,,a,1,0.841205,space,0.454945001,0,181,181,124,1,0_targ_1_dist_green/trial25.png,,,0,1,greenverival,a,71,20,female,2021-02-17_14h21.03.461,exp11,2020.2.6,Win32,60,,,,,,,,,,,
,,,,,,,,,,,,,,p,1,1.588855,space,0.317594999,0,182,182,51,1,9_dist_green/trial2.png,,,1,9,greenverival,p,71,20,female,2021-02-17_14h21.03.461,exp11,2020.2.6,Win32,60,,,,,,,,,,,
,,,,,,,,,,,,,,p,1,0.805445001,space,0.17017,0,183,183,16,1,0_dist_green/trial17.png,,,1,0,greenverival,p,71,20,female,2021-02-17_14h21.03.461,exp11,2020.2.6,Win32,60,,,,,,,,,,,
,,,,,,,,,,,,,,p,1,0.583325,space,0.14281,0,184,184,45,1,3_dist_green/trial21.png,,,1,3,greenverival,p,71,20,female,2021-02-17_14h21.03.461,exp11,2020.2.6,Win32,60,,,,,,,,,,,
,,,,,,,,,,,,,,a,1,0.814325,space,0.157725,0,185,185,137,1,0_targ_4_dist_green/trial13.png,,,0,4,greenverival,a,71,20,female,2021-02-17_14h21.03.461,exp11,2020.2.6,Win32,60,,,,,,,,,,,
,,,,,,,,,,,,,,a,1,1.65795,space,0.172895,0,186,186,157,1,0_targ_10_dist_green/trial8.png,,,0,10,greenverival,a,71,20,female,2021-02-17_14h21.03.461,exp11,2020.2.6,Win32,60,,,,,,,,,,,
,,,,,,,,,,,,,,p,1,0.802505,space,0.184905,0,187,187,44,1,3_dist_green/trial20.png,,,1,3,greenverival,p,71,20,female,2021-02-17_14h21.03.461,exp11,2020.2.6,Win32,60,,,,,,,,,,,
,,,,,,,,,,,,,,a,1,0.84418,space,0.18902,0,188,188,154,1,0_targ_10_dist_green/trial5.png,,,0,10,greenverival,a,71,20,female,2021-02-17_14h21.03.461,exp11,2020.2.6,Win32,60,,,,,,,,,,,
,,,,,,,,,,,,,,p,1,0.652500001,space,0.167909999,0,189,189,97,1,15_dist_green/trial23.png,,,1,15,greenverival,p,71,20,female,2021-02-17_14h21.03.461,exp11,2020.2.6,Win32,60,,,,,,,,,,,
,,,,,,,,,,,,,,a,1,0.687565,space,0.18438,0,190,190,171,1,0_targ_10_dist_green/trial22.png,,,0,10,greenverival,a,71,20,female,2021-02-17_14h21.03.461,exp11,2020.2.6,Win32,60,,,,,,,,,,,
,,,,,,,,,,,,,,a,1,0.551545001,space,0.202695,0,191,191,147,1,0_targ_4_dist_green/trial23.png,,,0,4,greenverival,a,71,20,female,2021-02-17_14h21.03.461,exp11,2020.2.6,Win32,60,,,,,,,,,,,
,,,,,,,,,,,,,,a,1,0.645945,space,0.215415,0,192,192,189,1,0_targ_16_dist_green/trial15.png,,,0,16,greenverival,a,71,20,female,2021-02-17_14h21.03.461,exp11,2020.2.6,Win32,60,,,,,,,,,,,
,,,,,,,,,,,,,,a,1,0.497965,space,0.36908,0,193,193,156,1,0_targ_10_dist_green/trial7.png,,,0,10,greenverival,a,71,20,female,2021-02-17_14h21.03.461,exp11,2020.2.6,Win32,60,,,,,,,,,,,
,,,,,,,,,,,,,,a,1,0.424454999,space,0.335295,0,194,194,118,1,0_targ_1_dist_green/trial19.png,,,0,1,greenverival,a,71,20,female,2021-02-17_14h21.03.461,exp11,2020.2.6,Win32,60,,,,,,,,,,,
,,,,,,,,,,,,,,p,1,0.484465,space,0.259545,0,195,195,1,1,0_dist_green/trial2.png,,,1,0,greenverival,p,71,20,female,2021-02-17_14h21.03.461,exp11,2020.2.6,Win32,60,,,,,,,,,,,
,,,,,,,,,,,,,,p,1,0.637075,space,0.26205,0,196,196,33,1,3_dist_green/trial9.png,,,1,3,greenverival,p,71,20,female,2021-02-17_14h21.03.461,exp11,2020.2.6,Win32,60,,,,,,,,,,,
,,,,,,,,,,,,,,a,1,0.522135,space,0.317709999,0,197,197,132,1,0_targ_4_dist_green/trial8.png,,,0,4,greenverival,a,71,20,female,2021-02-17_14h21.03.461,exp11,2020.2.6,Win32,60,,,,,,,,,,,
,,,,,,,,,,,,,,a,1,0.38044,space,0.336985,0,198,198,142,1,0_targ_4_dist_green/trial18.png,,,0,4,greenverival,a,71,20,female,2021-02-17_14h21.03.461,exp11,2020.2.6,Win32,60,,,,,,,,,,,
,,,,,,,,,,,,,,a,0,0.464365,space,1.443755,0,199,199,90,1,15_dist_green/trial16.png,,,1,15,greenverival,p,71,20,female,2021-02-17_14h21.03.461,exp11,2020.2.6,Win32,60,,,,,,,,,,,
,,,,,,,,,,,,,,,,,,,,,,,,,,,,,,,71,20,female,2021-02-17_14h21.03.461,exp11,2020.2.6,Win32,60,0,0,0,0,1,conGreen.xlsx,green vertical,Look for green vertical bar (target) and indicate if it is present or absent in the array. If green vertical target is present press 'p' and if absent press 'a'. Press SPACE to start.,,,
,,,,,,,,,,space,36.384865,space,2.540004999,p,1,1.02901,space,0.24715,0,0,0,56,1,9_dist_red/trial7.png,,,1,9,redHorizontal,p,71,20,female,2021-02-17_14h21.03.461,exp11,2020.2.6,Win32,60,,,,,,,,,,,
,,,,,,,,,,,,,,p,1,0.528035,space,0.258545,0,1,1,21,1,0_dist_red/trial22.png,,,1,0,redHorizontal,p,71,20,female,2021-02-17_14h21.03.461,exp11,2020.2.6,Win32,60,,,,,,,,,,,
,,,,,,,,,,,,,,p,1,0.592055,space,0.239705,0,2,2,86,1,15_dist_red/trial12.png,,,1,15,redHorizontal,p,71,20,female,2021-02-17_14h21.03.461,exp11,2020.2.6,Win32,60,,,,,,,,,,,
,,,,,,,,,,,,,,a,1,0.63474,space,0.308499999,0,3,3,110,1,0_targ_1_dist_red/trial11.png,,,0,1,redHorizontal,a,71,20,female,2021-02-17_14h21.03.461,exp11,2020.2.6,Win32,60,,,,,,,,,,,
,,,,,,,,,,,,,,p,1,0.54893,space,0.251515,0,4,4,71,1,9_dist_red/trial22.png,,,1,9,redHorizontal,p,71,20,female,2021-02-17_14h21.03.461,exp11,2020.2.6,Win32,60,,,,,,,,,,,
,,,,,,,,,,,,,,a,1,0.5913,space,0.322120001,0,5,5,144,1,0_targ_4_dist_red/trial20.png,,,0,4,redHorizontal,a,71,20,female,2021-02-17_14h21.03.461,exp11,2020.2.6,Win32,60,,,,,,,,,,,
,,,,,,,,,,,,,,a,1,0.574695,space,0.35583,0,6,6,104,1,0_targ_1_dist_red/trial5.png,,,0,1,redHorizontal,a,71,20,female,2021-02-17_14h21.03.461,exp11,2020.2.6,Win32,60,,,,,,,,,,,
,,,,,,,,,,,,,,a,1,0.63909,space,0.251885,0,7,7,155,1,0_targ_10_dist_red/trial6.png,,,0,10,redHorizontal,a,71,20,female,2021-02-17_14h21.03.461,exp11,2020.2.6,Win32,60,,,,,,,,,,,
,,,,,,,,,,,,,,a,1,0.493975,space,0.287199999,0,8,8,168,1,0_targ_10_dist_red/trial19.png,,,0,10,redHorizontal,a,71,20,female,2021-02-17_14h21.03.461,exp11,2020.2.6,Win32,60,,,,,,,,,,,
,,,,,,,,,,,,,,a,1,0.518935001,space,0.334430001,0,9,9,145,1,0_targ_4_dist_red/trial21.png,,,0,4,redHorizontal,a,71,20,female,2021-02-17_14h21.03.461,exp11,2020.2.6,Win32,60,,,,,,,,,,,
,,,,,,,,,,,,,,a,0,0.54382,space,0.708354999,0,10,10,98,1,15_dist_red/trial24.png,,,1,15,redHorizontal,p,71,20,female,2021-02-17_14h21.03.461,exp11,2020.2.6,Win32,60,,,,,,,,,,,
,,,,,,,,,,,,,,a,1,1.291055,space,0.87749,0,11,11,135,1,0_targ_4_dist_red/trial11.png,,,0,4,redHorizontal,a,71,20,female,2021-02-17_14h21.03.461,exp11,2020.2.6,Win32,60,,,,,,,,,,,
,,,,,,,,,,,,,,a,1,0.431575,space,0.335955,0,12,12,134,1,0_targ_4_dist_red/trial10.png,,,0,4,redHorizontal,a,71,20,female,2021-02-17_14h21.03.461,exp11,2020.2.6,Win32,60,,,,,,,,,,,
,,,,,,,,,,,,,,p,1,0.6207,space,0.277775,0,13,13,72,1,9_dist_red/trial23.png,,,1,9,redHorizontal,p,71,20,female,2021-02-17_14h21.03.461,exp11,2020.2.6,Win32,60,,,,,,,,,,,
,,,,,,,,,,,,,,p,1,0.476295,space,0.275275,0,14,14,20,1,0_dist_red/trial21.png,,,1,0,redHorizontal,p,71,20,female,2021-02-17_14h21.03.461,exp11,2020.2.6,Win32,60,,,,,,,,,,,
,,,,,,,,,,,,,,a,1,0.77082,space,0.334199999,0,15,15,160,1,0_targ_10_dist_red/trial11.png,,,0,10,redHorizontal,a,71,20,female,2021-02-17_14h21.03.461,exp11,2020.2.6,Win32,60,,,,,,,,,,,
,,,,,,,,,,,,,,a,1,0.809405,space,0.37938,0,16,16,190,1,0_targ_16_dist_red/trial16.png,,,0,16,redHorizontal,a,71,20,female,2021-02-17_14h21.03.461,exp11,2020.2.6,Win32,60,,,,,,,,,,,
,,,,,,,,,,,,,,p,1,0.76578,space,0.272515,0,17,17,76,1,15_dist_red/trial2.png,,,1,15,redHorizontal,p,71,20,female,2021-02-17_14h21.03.461,exp11,2020.2.6,Win32,60,,,,,,,,,,,
,,,,,,,,,,,,,,p,1,0.591390001,space,0.209925,0,18,18,3,1,0_dist_red/trial4.png,,,1,0,redHorizontal,p,71,20,female,2021-02-17_14h21.03.461,exp11,2020.2.6,Win32,60,,,,,,,,,,,
,,,,,,,,,,,,,,a,1,0.641115,space,0.333339999,0,19,19,153,1,0_targ_10_dist_red/trial4.png,,,0,10,redHorizontal,a,71,20,female,2021-02-17_14h21.03.461,exp11,2020.2.6,Win32,60,,,,,,,,,,,
,,,,,,,,,,,,,,a,1,0.942675,space,0.324270001,0,20,20,184,1,0_targ_16_dist_red/trial10.png,,,0,16,redHorizontal,a,71,20,female,2021-02-17_14h21.03.461,exp11,2020.2.6,Win32,60,,,,,,,,,,,
,,,,,,,,,,,,,,p,1,0.653615,space,0.27036,0,21,21,64,1,9_dist_red/trial15.png,,,1,9,redHorizontal,p,71,20,female,2021-02-17_14h21.03.461,exp11,2020.2.6,Win32,60,,,,,,,,,,,
,,,,,,,,,,,,,,p,1,0.62094,space,0.279155,0,22,22,87,1,15_dist_red/trial13.png,,,1,15,redHorizontal,p,71,20,female,2021-02-17_14h21.03.461,exp11,2020.2.6,Win32,60,,,,,,,,,,,
,,,,,,,,,,,,,,a,0,0.7076,space,1.393225,0,23,23,55,1,9_dist_red/trial6.png,,,1,9,redHorizontal,p,71,20,female,2021-02-17_14h21.03.461,exp11,2020.2.6,Win32,60,,,,,,,,,,,
,,,,,,,,,,,,,,p,1,0.750010001,space,0.26292,0,24,24,25,1,3_dist_red/trial1.png,,,1,3,redHorizontal,p,71,20,female,2021-02-17_14h21.03.461,exp11,2020.2.6,Win32,60,,,,,,,,,,,
,,,,,,,,,,,,,,a,1,0.70647,space,0.3752,0,25,25,111,1,0_targ_1_dist_red/trial12.png,,,0,1,redHorizontal,a,71,20,female,2021-02-17_14h21.03.461,exp11,2020.2.6,Win32,60,,,,,,,,,,,
,,,,,,,,,,,,,,a,1,0.889365,space,0.335445,0,26,26,192,1,0_targ_16_dist_red/trial18.png,,,0,16,redHorizontal,a,71,20,female,2021-02-17_14h21.03.461,exp11,2020.2.6,Win32,60,,,,,,,,,,,
,,,,,,,,,,,,,,p,1,0.68353,space,0.16137,0,27,27,6,1,0_dist_red/trial7.png,,,1,0,redHorizontal,p,71,20,female,2021-02-17_14h21.03.461,exp11,2020.2.6,Win32,60,,,,,,,,,,,
,,,,,,,,,,,,,,a,1,0.70519,space,0.2424,0,28,28,115,1,0_targ_1_dist_red/trial6.png,,,0,1,redHorizontal,a,71,20,female,2021-02-17_14h21.03.461,exp11,2020.2.6,Win32,60,,,,,,,,,,,
,,,,,,,,,,,,,,p,1,0.587925,space,0.221650001,0,29,29,27,1,3_dist_red/trial3.png,,,1,3,redHorizontal,p,71,20,female,2021-02-17_14h21.03.461,exp11,2020.2.6,Win32,60,,,,,,,,,,,
,,,,,,,,,,,,,,p,1,0.73601,space,0.17071,0,30,30,85,1,15_dist_red/trial11.png,,,1,15,redHorizontal,p,71,20,female,2021-02-17_14h21.03.461,exp11,2020.2.6,Win32,60,,,,,,,,,,,
,,,,,,,,,,,,,,a,1,0.708090001,space,0.202865001,0,31,31,121,1,0_targ_1_dist_red/trial22.png,,,0,1,redHorizontal,a,71,20,female,2021-02-17_14h21.03.461,exp11,2020.2.6,Win32,60,,,,,,,,,,,
,,,,,,,,,,,,,,a,0,0.92681,space,0.271795,0,32,32,70,1,9_dist_red/trial21.png,,,1,9,redHorizontal,p,71,20,female,2021-02-17_14h21.03.461,exp11,2020.2.6,Win32,60,,,,,,,,,,,
,,,,,,,,,,,,,,p,1,0.875395,space,0.14062,0,33,33,31,1,3_dist_red/trial7.png,,,1,3,redHorizontal,p,71,20,female,2021-02-17_14h21.03.461,exp11,2020.2.6,Win32,60,,,,,,,,,,,
,,,,,,,,,,,,,,p,1,0.614604999,space,0.254825,0,34,34,33,1,3_dist_red/trial9.png,,,1,3,redHorizontal,p,71,20,female,2021-02-17_14h21.03.461,exp11,2020.2.6,Win32,60,,,,,,,,,,,
,,,,,,,,,,,,,,p,1,0.523205,space,0.339424999,0,35,35,43,1,3_dist_red/trial19.png,,,1,3,redHorizontal,p,71,20,female,2021-02-17_14h21.03.461,exp11,2020.2.6,Win32,60,,,,,,,,,,,
,,,,,,,,,,,,,,p,1,0.689085,space,0.37385,0,36,36,74,1,9_dist_red/trial25.png,,,1,9,redHorizontal,p,71,20,female,2021-02-17_14h21.03.461,exp11,2020.2.6,Win32,60,,,,,,,,,,,
,,,,,,,,,,,,,,p,1,0.58862,space,0.3205,0,37,37,66,1,9_dist_red/trial17.png,,,1,9,redHorizontal,p,71,20,female,2021-02-17_14h21.03.461,exp11,2020.2.6,Win32,60,,,,,,,,,,,
,,,,,,,,,,,,,,p,1,0.504000001,space,0.373565,0,38,38,8,1,0_dist_red/trial9.png,,,1,0,redHorizontal,p,71,20,female,2021-02-17_14h21.03.461,exp11,2020.2.6,Win32,60,,,,,,,,,,,
,,,,,,,,,,,,,,a,1,0.86944,space,0.28754,0,39,39,193,1,0_targ_16_dist_red/trial19.png,,,0,16,redHorizontal,a,71,20,female,2021-02-17_14h21.03.461,exp11,2020.2.6,Win32,60,,,,,,,,,,,
,,,,,,,,,,,,,,a,1,0.555775,space,0.177685,0,40,40,143,1,0_targ_4_dist_red/trial19.png,,,0,4,redHorizontal,a,71,20,female,2021-02-17_14h21.03.461,exp11,2020.2.6,Win32,60,,,,,,,,,,,
,,,,,,,,,,,,,,a,1,0.612735,space,0.136315,0,41,41,152,1,0_targ_10_dist_red/trial3.png,,,0,10,redHorizontal,a,71,20,female,2021-02-17_14h21.03.461,exp11,2020.2.6,Win32,60,,,,,,,,,,,
,,,,,,,,,,,,,,p,1,0.620235,space,0.23534,0,42,42,67,1,9_dist_red/trial18.png,,,1,9,redHorizontal,p,71,20,female,2021-02-17_14h21.03.461,exp11,2020.2.6,Win32,60,,,,,,,,,,,
,,,,,,,,,,,,,,a,1,0.574250001,space,0.221635,0,43,43,147,1,0_targ_4_dist_red/trial23.png,,,0,4,redHorizontal,a,71,20,female,2021-02-17_14h21.03.461,exp11,2020.2.6,Win32,60,,,,,,,,,,,
,,,,,,,,,,,,,,p,1,0.75974,space,0.27139,0,44,44,29,1,3_dist_red/trial5.png,,,1,3,redHorizontal,p,71,20,female,2021-02-17_14h21.03.461,exp11,2020.2.6,Win32,60,,,,,,,,,,,
,,,,,,,,,,,,,,a,1,1.330755,space,0.201555001,0,45,45,141,1,0_targ_4_dist_red/trial17.png,,,0,4,redHorizontal,a,71,20,female,2021-02-17_14h21.03.461,exp11,2020.2.6,Win32,60,,,,,,,,,,,
,,,,,,,,,,,,,,p,1,0.488535,space,0.267765,0,46,46,16,1,0_dist_red/trial17.png,,,1,0,redHorizontal,p,71,20,female,2021-02-17_14h21.03.461,exp11,2020.2.6,Win32,60,,,,,,,,,,,
,,,,,,,,,,,,,,a,1,0.573679999,space,0.33648,0,47,47,102,1,0_targ_1_dist_red/trial3.png,,,0,1,redHorizontal,a,71,20,female,2021-02-17_14h21.03.461,exp11,2020.2.6,Win32,60,,,,,,,,,,,
,,,,,,,,,,,,,,a,1,0.465785,space,0.28518,0,48,48,106,1,0_targ_1_dist_red/trial7.png,,,0,1,redHorizontal,a,71,20,female,2021-02-17_14h21.03.461,exp11,2020.2.6,Win32,60,,,,,,,,,,,
,,,,,,,,,,,,,,a,1,0.539495,space,0.316535,0,49,49,173,1,0_targ_10_dist_red/trial24.png,,,0,10,redHorizontal,a,71,20,female,2021-02-17_14h21.03.461,exp11,2020.2.6,Win32,60,,,,,,,,,,,
,,,,,,,,,,,,,,a,1,0.491855,space,0.384435,0,50,50,159,1,0_targ_10_dist_red/trial10.png,,,0,10,redHorizontal,a,71,20,female,2021-02-17_14h21.03.461,exp11,2020.2.6,Win32,60,,,,,,,,,,,
,,,,,,,,,,,,,,a,1,0.409829999,space,0.39548,0,51,51,113,1,0_targ_1_dist_red/trial14.png,,,0,1,redHorizontal,a,71,20,female,2021-02-17_14h21.03.461,exp11,2020.2.6,Win32,60,,,,,,,,,,,
,,,,,,,,,,,,,,p,1,0.672440001,space,0.26772,0,52,52,53,1,9_dist_red/trial4.png,,,1,9,redHorizontal,p,71,20,female,2021-02-17_14h21.03.461,exp11,2020.2.6,Win32,60,,,,,,,,,,,
,,,,,,,,,,,,,,a,1,0.579525,space,0.318659999,0,53,53,126,1,0_targ_4_dist_red/trial2.png,,,0,4,redHorizontal,a,71,20,female,2021-02-17_14h21.03.461,exp11,2020.2.6,Win32,60,,,,,,,,,,,
,,,,,,,,,,,,,,a,1,0.632935001,space,0.337245,0,54,54,157,1,0_targ_10_dist_red/trial8.png,,,0,10,redHorizontal,a,71,20,female,2021-02-17_14h21.03.461,exp11,2020.2.6,Win32,60,,,,,,,,,,,
,,,,,,,,,,,,,,p,1,0.65601,space,0.301645,0,55,55,22,1,0_dist_red/trial23.png,,,1,0,redHorizontal,p,71,20,female,2021-02-17_14h21.03.461,exp11,2020.2.6,Win32,60,,,,,,,,,,,
,,,,,,,,,,,,,,a,1,0.58953,space,0.291735,0,56,56,129,1,0_targ_4_dist_red/trial5.png,,,0,4,redHorizontal,a,71,20,female,2021-02-17_14h21.03.461,exp11,2020.2.6,Win32,60,,,,,,,,,,,
,,,,,,,,,,,,,,p,1,0.67616,space,0.27307,0,57,57,0,1,0_dist_red/trial1.png,,,1,0,redHorizontal,p,71,20,female,2021-02-17_14h21.03.461,exp11,2020.2.6,Win32,60,,,,,,,,,,,
,,,,,,,,,,,,,,p,1,0.9281,space,0.25231,0,58,58,95,1,15_dist_red/trial21.png,,,1,15,redHorizontal,p,71,20,female,2021-02-17_14h21.03.461,exp11,2020.2.6,Win32,60,,,,,,,,,,,
,,,,,,,,,,,,,,a,1,0.655750001,space,0.269295,0,59,59,131,1,0_targ_4_dist_red/trial7.png,,,0,4,redHorizontal,a,71,20,female,2021-02-17_14h21.03.461,exp11,2020.2.6,Win32,60,,,,,,,,,,,
,,,,,,,,,,,,,,a,1,0.758394999,space,0.279435,0,60,60,196,1,0_targ_16_dist_red/trial22.png,,,0,16,redHorizontal,a,71,20,female,2021-02-17_14h21.03.461,exp11,2020.2.6,Win32,60,,,,,,,,,,,
,,,,,,,,,,,,,,p,1,0.630055,space,0.237685,0,61,61,12,1,0_dist_red/trial13.png,,,1,0,redHorizontal,p,71,20,female,2021-02-17_14h21.03.461,exp11,2020.2.6,Win32,60,,,,,,,,,,,
,,,,,,,,,,,,,,a,1,0.521085001,space,0.339295,0,62,62,100,1,0_targ_1_dist_red/trial1.png,,,0,1,redHorizontal,a,71,20,female,2021-02-17_14h21.03.461,exp11,2020.2.6,Win32,60,,,,,,,,,,,
,,,,,,,,,,,,,,a,1,0.649245,space,0.267945,0,63,63,122,1,0_targ_1_dist_red/trial23.png,,,0,1,redHorizontal,a,71,20,female,2021-02-17_14h21.03.461,exp11,2020.2.6,Win32,60,,,,,,,,,,,
,,,,,,,,,,,,,,a,1,0.43359,space,0.30025,0,64,64,107,1,0_targ_1_dist_red/trial8.png,,,0,1,redHorizontal,a,71,20,female,2021-02-17_14h21.03.461,exp11,2020.2.6,Win32,60,,,,,,,,,,,
,,,,,,,,,,,,,,p,1,0.544425,space,0.240295,0,65,65,48,1,3_dist_red/trial24.png,,,1,3,redHorizontal,p,71,20,female,2021-02-17_14h21.03.461,exp11,2020.2.6,Win32,60,,,,,,,,,,,
,,,,,,,,,,,,,,p,1,1.85799,space,0.126445,0,66,66,10,1,0_dist_red/trial11.png,,,1,0,redHorizontal,p,71,20,female,2021-02-17_14h21.03.461,exp11,2020.2.6,Win32,60,,,,,,,,,,,
,,,,,,,,,,,,,,p,1,0.5601,space,0.19057,0,67,67,11,1,0_dist_red/trial12.png,,,1,0,redHorizontal,p,71,20,female,2021-02-17_14h21.03.461,exp11,2020.2.6,Win32,60,,,,,,,,,,,
,,,,,,,,,,,,,,a,1,0.566380001,space,0.155235001,0,68,68,116,1,0_targ_1_dist_red/trial17.png,,,0,1,redHorizontal,a,71,20,female,2021-02-17_14h21.03.461,exp11,2020.2.6,Win32,60,,,,,,,,,,,
,,,,,,,,,,,,,,a,1,1.019575,space,0.39178,0,69,69,124,1,0_targ_1_dist_red/trial25.png,,,0,1,redHorizontal,a,71,20,female,2021-02-17_14h21.03.461,exp11,2020.2.6,Win32,60,,,,,,,,,,,
,,,,,,,,,,,,,,p,1,0.543345,space,0.20774,0,70,70,15,1,0_dist_red/trial16.png,,,1,0,redHorizontal,p,71,20,female,2021-02-17_14h21.03.461,exp11,2020.2.6,Win32,60,,,,,,,,,,,
,,,,,,,,,,,,,,p,1,0.809635,space,0.23471,0,71,71,36,1,3_dist_red/trial12.png,,,1,3,redHorizontal,p,71,20,female,2021-02-17_14h21.03.461,exp11,2020.2.6,Win32,60,,,,,,,,,,,
,,,,,,,,,,,,,,p,1,0.382815,space,0.223885,0,72,72,41,1,3_dist_red/trial17.png,,,1,3,redHorizontal,p,71,20,female,2021-02-17_14h21.03.461,exp11,2020.2.6,Win32,60,,,,,,,,,,,
,,,,,,,,,,,,,,a,1,0.67023,space,0.25119,0,73,73,148,1,0_targ_4_dist_red/trial24.png,,,0,4,redHorizontal,a,71,20,female,2021-02-17_14h21.03.461,exp11,2020.2.6,Win32,60,,,,,,,,,,,
,,,,,,,,,,,,,,p,1,0.546739999,space,0.21646,0,74,74,26,1,3_dist_red/trial2.png,,,1,3,redHorizontal,p,71,20,female,2021-02-17_14h21.03.461,exp11,2020.2.6,Win32,60,,,,,,,,,,,
,,,,,,,,,,,,,,p,1,0.64061,space,0.119785,0,75,75,91,1,15_dist_red/trial17.png,,,1,15,redHorizontal,p,71,20,female,2021-02-17_14h21.03.461,exp11,2020.2.6,Win32,60,,,,,,,,,,,
,,,,,,,,,,,,,,p,1,0.47707,space,0.140044999,0,76,76,92,1,15_dist_red/trial18.png,,,1,15,redHorizontal,p,71,20,female,2021-02-17_14h21.03.461,exp11,2020.2.6,Win32,60,,,,,,,,,,,
,,,,,,,,,,,,,,a,1,0.61906,space,0.118195,0,77,77,172,1,0_targ_10_dist_red/trial23.png,,,0,10,redHorizontal,a,71,20,female,2021-02-17_14h21.03.461,exp11,2020.2.6,Win32,60,,,,,,,,,,,
,,,,,,,,,,,,,,p,0,0.727005,space,0.65088,0,78,78,101,1,0_targ_1_dist_red/trial2.png,,,0,1,redHorizontal,a,71,20,female,2021-02-17_14h21.03.461,exp11,2020.2.6,Win32,60,,,,,,,,,,,
,,,,,,,,,,,,,,a,1,0.82828,space,0.520335,0,79,79,146,1,0_targ_4_dist_red/trial22.png,,,0,4,redHorizontal,a,71,20,female,2021-02-17_14h21.03.461,exp11,2020.2.6,Win32,60,,,,,,,,,,,
,,,,,,,,,,,,,,p,1,0.703755,space,0.139885,0,80,80,18,1,0_dist_red/trial19.png,,,1,0,redHorizontal,p,71,20,female,2021-02-17_14h21.03.461,exp11,2020.2.6,Win32,60,,,,,,,,,,,
,,,,,,,,,,,,,,a,1,0.60645,space,0.30196,0,81,81,149,1,0_targ_4_dist_red/trial25.png,,,0,4,redHorizontal,a,71,20,female,2021-02-17_14h21.03.461,exp11,2020.2.6,Win32,60,,,,,,,,,,,
,,,,,,,,,,,,,,a,1,0.78807,space,0.22162,0,82,82,182,1,0_targ_16_dist_red/trial8.png,,,0,16,redHorizontal,a,71,20,female,2021-02-17_14h21.03.461,exp11,2020.2.6,Win32,60,,,,,,,,,,,
,,,,,,,,,,,,,,p,1,0.641505,space,0.168005001,0,83,83,30,1,3_dist_red/trial6.png,,,1,3,redHorizontal,p,71,20,female,2021-02-17_14h21.03.461,exp11,2020.2.6,Win32,60,,,,,,,,,,,
,,,,,,,,,,,,,,a,1,0.949890001,space,0.34204,0,84,84,114,1,0_targ_1_dist_red/trial15.png,,,0,1,redHorizontal,a,71,20,female,2021-02-17_14h21.03.461,exp11,2020.2.6,Win32,60,,,,,,,,,,,
,,,,,,,,,,,,,,a,1,1.65672,space,0.277565,0,85,85,179,1,0_targ_16_dist_red/trial5.png,,,0,16,redHorizontal,a,71,20,female,2021-02-17_14h21.03.461,exp11,2020.2.6,Win32,60,,,,,,,,,,,
,,,,,,,,,,,,,,a,1,0.555745,space,0.335205,0,86,86,140,1,0_targ_4_dist_red/trial6.png,,,0,4,redHorizontal,a,71,20,female,2021-02-17_14h21.03.461,exp11,2020.2.6,Win32,60,,,,,,,,,,,
,,,,,,,,,,,,,,a,1,0.54591,space,0.35322,0,87,87,183,1,0_targ_16_dist_red/trial9.png,,,0,16,redHorizontal,a,71,20,female,2021-02-17_14h21.03.461,exp11,2020.2.6,Win32,60,,,,,,,,,,,
,,,,,,,,,,,,,,p,1,1.092085,space,0.186480001,0,88,88,80,1,15_dist_red/trial6.png,,,1,15,redHorizontal,p,71,20,female,2021-02-17_14h21.03.461,exp11,2020.2.6,Win32,60,,,,,,,,,,,
,,,,,,,,,,,,,,p,1,0.575475,space,0.1584,0,89,89,62,1,9_dist_red/trial13.png,,,1,9,redHorizontal,p,71,20,female,2021-02-17_14h21.03.461,exp11,2020.2.6,Win32,60,,,,,,,,,,,
,,,,,,,,,,,,,,a,1,0.888025,space,0.13756,0,90,90,162,1,0_targ_10_dist_red/trial13.png,,,0,10,redHorizontal,a,71,20,female,2021-02-17_14h21.03.461,exp11,2020.2.6,Win32,60,,,,,,,,,,,
,,,,,,,,,,,,,,a,1,0.719564999,space,0.531029999,0,91,91,136,1,0_targ_4_dist_red/trial12.png,,,0,4,redHorizontal,a,71,20,female,2021-02-17_14h21.03.461,exp11,2020.2.6,Win32,60,,,,,,,,,,,
,,,,,,,,,,,,,,a,0,0.720995,space,0.673995,0,92,92,83,1,15_dist_red/trial9.png,,,1,15,redHorizontal,p,71,20,female,2021-02-17_14h21.03.461,exp11,2020.2.6,Win32,60,,,,,,,,,,,
,,,,,,,,,,,,,,a,1,0.689075,space,0.196765,0,93,93,175,1,0_targ_16_dist_red/trial1.png,,,0,16,redHorizontal,a,71,20,female,2021-02-17_14h21.03.461,exp11,2020.2.6,Win32,60,,,,,,,,,,,
,,,,,,,,,,,,,,a,1,0.94261,space,0.34379,0,94,94,194,1,0_targ_16_dist_red/trial20.png,,,0,16,redHorizontal,a,71,20,female,2021-02-17_14h21.03.461,exp11,2020.2.6,Win32,60,,,,,,,,,,,
,,,,,,,,,,,,,,p,1,0.688349999,space,0.202535001,0,95,95,77,1,15_dist_red/trial3.png,,,1,15,redHorizontal,p,71,20,female,2021-02-17_14h21.03.461,exp11,2020.2.6,Win32,60,,,,,,,,,,,
,,,,,,,,,,,,,,p,1,0.71016,space,0.118495,0,96,96,7,1,0_dist_red/trial8.png,,,1,0,redHorizontal,p,71,20,female,2021-02-17_14h21.03.461,exp11,2020.2.6,Win32,60,,,,,,,,,,,
,,,,,,,,,,,,,,p,1,0.508775,space,0.18453,0,97,97,82,1,15_dist_red/trial8.png,,,1,15,redHorizontal,p,71,20,female,2021-02-17_14h21.03.461,exp11,2020.2.6,Win32,60,,,,,,,,,,,
,,,,,,,,,,,,,,a,1,0.679,space,0.237005,0,98,98,164,1,0_targ_10_dist_red/trial15.png,,,0,10,redHorizontal,a,71,20,female,2021-02-17_14h21.03.461,exp11,2020.2.6,Win32,60,,,,,,,,,,,
,,,,,,,,,,,,,,a,1,0.774535,space,0.133745,0,99,99,195,1,0_targ_16_dist_red/trial21.png,,,0,16,redHorizontal,a,71,20,female,2021-02-17_14h21.03.461,exp11,2020.2.6,Win32,60,,,,,,,,,,,
,,,,,,,,,,,,,,p,1,0.797685,space,0.167695,0,100,100,89,1,15_dist_red/trial15.png,,,1,15,redHorizontal,p,71,20,female,2021-02-17_14h21.03.461,exp11,2020.2.6,Win32,60,,,,,,,,,,,
,,,,,,,,,,,,,,a,1,0.59267,space,0.168275001,0,101,101,103,1,0_targ_1_dist_red/trial4.png,,,0,1,redHorizontal,a,71,20,female,2021-02-17_14h21.03.461,exp11,2020.2.6,Win32,60,,,,,,,,,,,
,,,,,,,,,,,,,,a,1,0.74242,space,0.12308,0,102,102,178,1,0_targ_16_dist_red/trial4.png,,,0,16,redHorizontal,a,71,20,female,2021-02-17_14h21.03.461,exp11,2020.2.6,Win32,60,,,,,,,,,,,
,,,,,,,,,,,,,,p,1,0.606354999,space,0.17029,0,103,103,57,1,9_dist_red/trial8.png,,,1,9,redHorizontal,p,71,20,female,2021-02-17_14h21.03.461,exp11,2020.2.6,Win32,60,,,,,,,,,,,
,,,,,,,,,,,,,,p,1,0.730825,space,0.168075001,0,104,104,75,1,15_dist_red/trial1.png,,,1,15,redHorizontal,p,71,20,female,2021-02-17_14h21.03.461,exp11,2020.2.6,Win32,60,,,,,,,,,,,
,,,,,,,,,,,,,,p,1,0.54785,space,0.089245,0,105,105,40,1,3_dist_red/trial16.png,,,1,3,redHorizontal,p,71,20,female,2021-02-17_14h21.03.461,exp11,2020.2.6,Win32,60,,,,,,,,,,,
,,,,,,,,,,,,,,a,1,0.9856,space,0.735625001,0,106,106,120,1,0_targ_1_dist_red/trial21.png,,,0,1,redHorizontal,a,71,20,female,2021-02-17_14h21.03.461,exp11,2020.2.6,Win32,60,,,,,,,,,,,
,,,,,,,,,,,,,,a,1,3.499085,space,7.663375,0,107,107,165,1,0_targ_10_dist_red/trial16.png,,,0,10,redHorizontal,a,71,20,female,2021-02-17_14h21.03.461,exp11,2020.2.6,Win32,60,,,,,,,,,,,
,,,,,,,,,,,,,,p,1,0.49133,space,0.287945,0,108,108,58,1,9_dist_red/trial9.png,,,1,9,redHorizontal,p,71,20,female,2021-02-17_14h21.03.461,exp11,2020.2.6,Win32,60,,,,,,,,,,,
,,,,,,,,,,,,,,p,1,1.195835,space,0.25454,0,109,109,32,1,3_dist_red/trial8.png,,,1,3,redHorizontal,p,71,20,female,2021-02-17_14h21.03.461,exp11,2020.2.6,Win32,60,,,,,,,,,,,
,,,,,,,,,,,,,,a,1,0.507815001,space,0.309735,0,110,110,133,1,0_targ_4_dist_red/trial9.png,,,0,4,redHorizontal,a,71,20,female,2021-02-17_14h21.03.461,exp11,2020.2.6,Win32,60,,,,,,,,,,,
,,,,,,,,,,,,,,p,1,0.70411,space,0.21839,0,111,111,97,1,15_dist_red/trial23.png,,,1,15,redHorizontal,p,71,20,female,2021-02-17_14h21.03.461,exp11,2020.2.6,Win32,60,,,,,,,,,,,
,,,,,,,,,,,,,,a,1,0.676635,space,0.440149999,0,112,112,170,1,0_targ_10_dist_red/trial21.png,,,0,10,redHorizontal,a,71,20,female,2021-02-17_14h21.03.461,exp11,2020.2.6,Win32,60,,,,,,,,,,,
,,,,,,,,,,,,,,p,1,0.735805,space,0.25079,0,113,113,39,1,3_dist_red/trial15.png,,,1,3,redHorizontal,p,71,20,female,2021-02-17_14h21.03.461,exp11,2020.2.6,Win32,60,,,,,,,,,,,
,,,,,,,,,,,,,,p,1,0.680035001,space,0.217885001,0,114,114,96,1,15_dist_red/trial22.png,,,1,15,redHorizontal,p,71,20,female,2021-02-17_14h21.03.461,exp11,2020.2.6,Win32,60,,,,,,,,,,,
,,,,,,,,,,,,,,a,1,0.651335,space,0.274985,0,115,115,199,1,0_targ_16_dist_red/trial25.png,,,0,16,redHorizontal,a,71,20,female,2021-02-17_14h21.03.461,exp11,2020.2.6,Win32,60,,,,,,,,,,,
,,,,,,,,,,,,,,a,0,1.018465,space,0.068504999,0,116,116,94,1,15_dist_red/trial20.png,,,1,15,redHorizontal,p,71,20,female,2021-02-17_14h21.03.461,exp11,2020.2.6,Win32,60,,,,,,,,,,,
,,,,,,,,,,,,,,p,1,0.690915,space,0.303155,0,117,117,47,1,3_dist_red/trial23.png,,,1,3,redHorizontal,p,71,20,female,2021-02-17_14h21.03.461,exp11,2020.2.6,Win32,60,,,,,,,,,,,
,,,,,,,,,,,,,,p,1,0.569985,space,0.235309999,0,118,118,69,1,9_dist_red/trial20.png,,,1,9,redHorizontal,p,71,20,female,2021-02-17_14h21.03.461,exp11,2020.2.6,Win32,60,,,,,,,,,,,
,,,,,,,,,,,,,,p,1,0.458845001,space,0.18437,0,119,119,46,1,3_dist_red/trial22.png,,,1,3,redHorizontal,p,71,20,female,2021-02-17_14h21.03.461,exp11,2020.2.6,Win32,60,,,,,,,,,,,
,,,,,,,,,,,,,,a,1,0.72629,space,0.134565,0,120,120,186,1,0_targ_16_dist_red/trial12.png,,,0,16,redHorizontal,a,71,20,female,2021-02-17_14h21.03.461,exp11,2020.2.6,Win32,60,,,,,,,,,,,
,,,,,,,,,,,,,,a,1,0.572645,space,0.193495,0,121,121,177,1,0_targ_16_dist_red/trial3.png,,,0,16,redHorizontal,a,71,20,female,2021-02-17_14h21.03.461,exp11,2020.2.6,Win32,60,,,,,,,,,,,
,,,,,,,,,,,,,,p,1,0.79726,space,0.183715,0,122,122,49,1,3_dist_red/trial25.png,,,1,3,redHorizontal,p,71,20,female,2021-02-17_14h21.03.461,exp11,2020.2.6,Win32,60,,,,,,,,,,,
,,,,,,,,,,,,,,a,1,0.758695,space,0.150685,0,123,123,150,1,0_targ_10_dist_red/trial1.png,,,0,10,redHorizontal,a,71,20,female,2021-02-17_14h21.03.461,exp11,2020.2.6,Win32,60,,,,,,,,,,,
,,,,,,,,,,,,,,p,1,0.683755,space,0.184915,0,124,124,37,1,3_dist_red/trial13.png,,,1,3,redHorizontal,p,71,20,female,2021-02-17_14h21.03.461,exp11,2020.2.6,Win32,60,,,,,,,,,,,
,,,,,,,,,,,,,,a,1,0.564499999,space,0.522024999,0,125,125,174,1,0_targ_10_dist_red/trial25.png,,,0,10,redHorizontal,a,71,20,female,2021-02-17_14h21.03.461,exp11,2020.2.6,Win32,60,,,,,,,,,,,
,,,,,,,,,,,,,,a,1,0.94078,space,0.242425,0,126,126,176,1,0_targ_16_dist_red/trial2.png,,,0,16,redHorizontal,a,71,20,female,2021-02-17_14h21.03.461,exp11,2020.2.6,Win32,60,,,,,,,,,,,
,,,,,,,,,,,,,,p,1,0.548835,space,0.23535,0,127,127,4,1,0_dist_red/trial5.png,,,1,0,redHorizontal,p,71,20,female,2021-02-17_14h21.03.461,exp11,2020.2.6,Win32,60,,,,,,,,,,,
,,,,,,,,,,,,,,p,1,0.5665,space,0.202415,0,128,128,78,1,15_dist_red/trial4.png,,,1,15,redHorizontal,p,71,20,female,2021-02-17_14h21.03.461,exp11,2020.2.6,Win32,60,,,,,,,,,,,
,,,,,,,,,,,,,,p,1,0.737365,space,0.123555,0,129,129,79,1,15_dist_red/trial5.png,,,1,15,redHorizontal,p,71,20,female,2021-02-17_14h21.03.461,exp11,2020.2.6,Win32,60,,,,,,,,,,,
,,,,,,,,,,,,,,a,1,0.878385,space,0.13343,0,130,130,180,1,0_targ_16_dist_red/trial6.png,,,0,16,redHorizontal,a,71,20,female,2021-02-17_14h21.03.461,exp11,2020.2.6,Win32,60,,,,,,,,,,,
,,,,,,,,,,,,,,p,1,0.587739999,space,0.20218,0,131,131,1,1,0_dist_red/trial2.png,,,1,0,redHorizontal,p,71,20,female,2021-02-17_14h21.03.461,exp11,2020.2.6,Win32,60,,,,,,,,,,,
,,,,,,,,,,,,,,p,1,0.98822,space,0.118989999,0,132,132,65,1,9_dist_red/trial16.png,,,1,9,redHorizontal,p,71,20,female,2021-02-17_14h21.03.461,exp11,2020.2.6,Win32,60,,,,,,,,,,,
,,,,,,,,,,,,,,p,1,0.566425,space,0.094045,0,133,133,35,1,3_dist_red/trial11.png,,,1,3,redHorizontal,p,71,20,female,2021-02-17_14h21.03.461,exp11,2020.2.6,Win32,60,,,,,,,,,,,
,,,,,,,,,,,,,,a,1,0.926905,space,0.11836,0,134,134,108,1,0_targ_1_dist_red/trial9.png,,,0,1,redHorizontal,a,71,20,female,2021-02-17_14h21.03.461,exp11,2020.2.6,Win32,60,,,,,,,,,,,
,,,,,,,,,,,,,,p,1,1.43621,space,0.203989999,0,135,135,34,1,3_dist_red/trial10.png,,,1,3,redHorizontal,p,71,20,female,2021-02-17_14h21.03.461,exp11,2020.2.6,Win32,60,,,,,,,,,,,
,,,,,,,,,,,,,,p,1,0.549740001,space,0.067435,0,136,136,44,1,3_dist_red/trial20.png,,,1,3,redHorizontal,p,71,20,female,2021-02-17_14h21.03.461,exp11,2020.2.6,Win32,60,,,,,,,,,,,
,,,,,,,,,,,,,,p,1,0.859035,space,0.184315,0,137,137,90,1,15_dist_red/trial16.png,,,1,15,redHorizontal,p,71,20,female,2021-02-17_14h21.03.461,exp11,2020.2.6,Win32,60,,,,,,,,,,,
,,,,,,,,,,,,,,a,1,0.72236,space,0.14304,0,138,138,166,1,0_targ_10_dist_red/trial17.png,,,0,10,redHorizontal,a,71,20,female,2021-02-17_14h21.03.461,exp11,2020.2.6,Win32,60,,,,,,,,,,,
,,,,,,,,,,,,,,a,1,0.60795,space,0.20566,0,139,139,169,1,0_targ_10_dist_red/trial20.png,,,0,10,redHorizontal,a,71,20,female,2021-02-17_14h21.03.461,exp11,2020.2.6,Win32,60,,,,,,,,,,,
,,,,,,,,,,,,,,a,1,0.559465,space,0.1853,0,140,140,118,1,0_targ_1_dist_red/trial19.png,,,0,1,redHorizontal,a,71,20,female,2021-02-17_14h21.03.461,exp11,2020.2.6,Win32,60,,,,,,,,,,,
,,,,,,,,,,,,,,a,1,2.726115,space,0.127835001,0,141,141,191,1,0_targ_16_dist_red/trial17.png,,,0,16,redHorizontal,a,71,20,female,2021-02-17_14h21.03.461,exp11,2020.2.6,Win32,60,,,,,,,,,,,
,,,,,,,,,,,,,,p,1,0.78513,space,0.150655,0,142,142,68,1,9_dist_red/trial19.png,,,1,9,redHorizontal,p,71,20,female,2021-02-17_14h21.03.461,exp11,2020.2.6,Win32,60,,,,,,,,,,,
,,,,,,,,,,,,,,p,1,0.615075,space,0.1383,0,143,143,14,1,0_dist_red/trial15.png,,,1,0,redHorizontal,p,71,20,female,2021-02-17_14h21.03.461,exp11,2020.2.6,Win32,60,,,,,,,,,,,
,,,,,,,,,,,,,,a,1,0.632355,space,0.377295,0,144,144,137,1,0_targ_4_dist_red/trial13.png,,,0,4,redHorizontal,a,71,20,female,2021-02-17_14h21.03.461,exp11,2020.2.6,Win32,60,,,,,,,,,,,
,,,,,,,,,,,,,,a,1,0.85934,space,0.151865,0,145,145,187,1,0_targ_16_dist_red/trial13.png,,,0,16,redHorizontal,a,71,20,female,2021-02-17_14h21.03.461,exp11,2020.2.6,Win32,60,,,,,,,,,,,
,,,,,,,,,,,,,,a,1,0.45847,space,0.1679,0,146,146,105,1,0_targ_1_dist_red/trial6.png,,,0,1,redHorizontal,a,71,20,female,2021-02-17_14h21.03.461,exp11,2020.2.6,Win32,60,,,,,,,,,,,
,,,,,,,,,,,,,,a,1,0.56253,space,0.05273,0,147,147,161,1,0_targ_10_dist_red/trial12.png,,,0,10,redHorizontal,a,71,20,female,2021-02-17_14h21.03.461,exp11,2020.2.6,Win32,60,,,,,,,,,,,
,,,,,,,,,,,,,,a,0,0.59293,space,0.354459999,0,148,148,50,1,9_dist_red/trial1.png,,,1,9,redHorizontal,p,71,20,female,2021-02-17_14h21.03.461,exp11,2020.2.6,Win32,60,,,,,,,,,,,
,,,,,,,,,,,,,,a,1,0.779795,space,0.075285,0,149,149,125,1,0_targ_4_dist_red/trial1.png,,,0,4,redHorizontal,a,71,20,female,2021-02-17_14h21.03.461,exp11,2020.2.6,Win32,60,,,,,,,,,,,
,,,,,,,,,,,,,,a,1,0.52408,space,0.06919,0,150,150,109,1,0_targ_1_dist_red/trial10.png,,,0,1,redHorizontal,a,71,20,female,2021-02-17_14h21.03.461,exp11,2020.2.6,Win32,60,,,,,,,,,,,
,,,,,,,,,,,,,,a,0,0.59571,space,0.259834999,0,151,151,51,1,9_dist_red/trial2.png,,,1,9,redHorizontal,p,71,20,female,2021-02-17_14h21.03.461,exp11,2020.2.6,Win32,60,,,,,,,,,,,
,,,,,,,,,,,,,,a,1,0.82567,space,0.287915001,0,152,152,142,1,0_targ_4_dist_red/trial18.png,,,0,4,redHorizontal,a,71,20,female,2021-02-17_14h21.03.461,exp11,2020.2.6,Win32,60,,,,,,,,,,,
,,,,,,,,,,,,,,p,0,0.667015,space,0.235825,0,153,153,123,1,0_targ_1_dist_red/trial24.png,,,0,1,redHorizontal,a,71,20,female,2021-02-17_14h21.03.461,exp11,2020.2.6,Win32,60,,,,,,,,,,,
,,,,,,,,,,,,,,a,1,0.50681,space,0.42964,0,154,154,138,1,0_targ_4_dist_red/trial14.png,,,0,4,redHorizontal,a,71,20,female,2021-02-17_14h21.03.461,exp11,2020.2.6,Win32,60,,,,,,,,,,,
,,,,,,,,,,,,,,p,1,1.295545,space,0.084380001,0,155,155,81,1,15_dist_red/trial7.png,,,1,15,redHorizontal,p,71,20,female,2021-02-17_14h21.03.461,exp11,2020.2.6,Win32,60,,,,,,,,,,,
,,,,,,,,,,,,,,p,1,0.738305,space,0.086665,0,156,156,60,1,9_dist_red/trial11.png,,,1,9,redHorizontal,p,71,20,female,2021-02-17_14h21.03.461,exp11,2020.2.6,Win32,60,,,,,,,,,,,
,,,,,,,,,,,,,,a,1,0.581189999,space,0.103385,0,157,157,127,1,0_targ_4_dist_red/trial3.png,,,0,4,redHorizontal,a,71,20,female,2021-02-17_14h21.03.461,exp11,2020.2.6,Win32,60,,,,,,,,,,,
,,,,,,,,,,,,,,a,1,0.54664,space,0.066875,0,158,158,128,1,0_targ_4_dist_red/trial4.png,,,0,4,redHorizontal,a,71,20,female,2021-02-17_14h21.03.461,exp11,2020.2.6,Win32,60,,,,,,,,,,,
,,,,,,,,,,,,,,a,1,0.63934,space,0.04019,0,159,159,158,1,0_targ_10_dist_red/trial9.png,,,0,10,redHorizontal,a,71,20,female,2021-02-17_14h21.03.461,exp11,2020.2.6,Win32,60,,,,,,,,,,,
,,,,,,,,,,,,,,p,1,0.849345,space,0.05599,0,160,160,59,1,9_dist_red/trial10.png,,,1,9,redHorizontal,p,71,20,female,2021-02-17_14h21.03.461,exp11,2020.2.6,Win32,60,,,,,,,,,,,
,,,,,,,,,,,,,,a,1,0.90711,space,0.06189,0,161,161,154,1,0_targ_10_dist_red/trial5.png,,,0,10,redHorizontal,a,71,20,female,2021-02-17_14h21.03.461,exp11,2020.2.6,Win32,60,,,,,,,,,,,
,,,,,,,,,,,,,,a,1,0.768054999,space,0.08746,0,162,162,181,1,0_targ_16_dist_red/trial7.png,,,0,16,redHorizontal,a,71,20,female,2021-02-17_14h21.03.461,exp11,2020.2.6,Win32,60,,,,,,,,,,,
,,,,,,,,,,,,,,p,1,0.557895,space,0.090525,0,163,163,9,1,0_dist_red/trial10.png,,,1,0,redHorizontal,p,71,20,female,2021-02-17_14h21.03.461,exp11,2020.2.6,Win32,60,,,,,,,,,,,
,,,,,,,,,,,,,,a,1,0.091724999,space,1.03646,0,164,164,112,1,0_targ_1_dist_red/trial13.png,,,0,1,redHorizontal,a,71,20,female,2021-02-17_14h21.03.461,exp11,2020.2.6,Win32,60,,,,,,,,,,,
,,,,,,,,,,,,,,a,1,1.740675,space,0.12176,0,165,165,188,1,0_targ_16_dist_red/trial14.png,,,0,16,redHorizontal,a,71,20,female,2021-02-17_14h21.03.461,exp11,2020.2.6,Win32,60,,,,,,,,,,,
,,,,,,,,,,,,,,a,1,1.11161,space,0.102405,0,166,166,171,1,0_targ_10_dist_red/trial22.png,,,0,10,redHorizontal,a,71,20,female,2021-02-17_14h21.03.461,exp11,2020.2.6,Win32,60,,,,,,,,,,,
,,,,,,,,,,,,,,p,1,0.783555,space,0.152114999,0,167,167,45,1,3_dist_red/trial21.png,,,1,3,redHorizontal,p,71,20,female,2021-02-17_14h21.03.461,exp11,2020.2.6,Win32,60,,,,,,,,,,,
,,,,,,,,,,,,,,a,1,0.82843,space,0.19006,0,168,168,197,1,0_targ_16_dist_red/trial23.png,,,0,16,redHorizontal,a,71,20,female,2021-02-17_14h21.03.461,exp11,2020.2.6,Win32,60,,,,,,,,,,,
,,,,,,,,,,,,,,p,1,1.050235,space,0.12879,0,169,169,99,1,15_dist_red/trial25.png,,,1,15,redHorizontal,p,71,20,female,2021-02-17_14h21.03.461,exp11,2020.2.6,Win32,60,,,,,,,,,,,
,,,,,,,,,,,,,,a,1,0.63697,space,0.11776,0,170,170,167,1,0_targ_10_dist_red/trial18.png,,,0,10,redHorizontal,a,71,20,female,2021-02-17_14h21.03.461,exp11,2020.2.6,Win32,60,,,,,,,,,,,
,,,,,,,,,,,,,,p,1,0.614920001,space,0.120585,0,171,171,52,1,9_dist_red/trial3.png,,,1,9,redHorizontal,p,71,20,female,2021-02-17_14h21.03.461,exp11,2020.2.6,Win32,60,,,,,,,,,,,
,,,,,,,,,,,,,,a,0,0.119665,space,0.093885,0,172,172,28,1,3_dist_red/trial4.png,,,1,3,redHorizontal,p,71,20,female,2021-02-17_14h21.03.461,exp11,2020.2.6,Win32,60,,,,,,,,,,,
,,,,,,,,,,,,,,a,1,1.22607,space,0.101805,0,173,173,185,1,0_targ_16_dist_red/trial11.png,,,0,16,redHorizontal,a,71,20,female,2021-02-17_14h21.03.461,exp11,2020.2.6,Win32,60,,,,,,,,,,,
,,,,,,,,,,,,,,a,1,0.863455,space,0.068384999,0,174,174,189,1,0_targ_16_dist_red/trial15.png,,,0,16,redHorizontal,a,71,20,female,2021-02-17_14h21.03.461,exp11,2020.2.6,Win32,60,,,,,,,,,,,
,,,,,,,,,,,,,,p,1,1.042285,space,0.151649999,0,175,175,54,1,9_dist_red/trial5.png,,,1,9,redHorizontal,p,71,20,female,2021-02-17_14h21.03.461,exp11,2020.2.6,Win32,60,,,,,,,,,,,
,,,,,,,,,,,,,,a,1,0.73463,space,0.167865,0,176,176,156,1,0_targ_10_dist_red/trial7.png,,,0,10,redHorizontal,a,71,20,female,2021-02-17_14h21.03.461,exp11,2020.2.6,Win32,60,,,,,,,,,,,
,,,,,,,,,,,,,,p,1,0.894289999,space,0.139475,0,177,177,93,1,15_dist_red/trial19.png,,,1,15,redHorizontal,p,71,20,female,2021-02-17_14h21.03.461,exp11,2020.2.6,Win32,60,,,,,,,,,,,
,,,,,,,,,,,,,,a,1,1.427364999,space,0.08825,0,178,178,130,1,0_targ_4_dist_red/trial6.png,,,0,4,redHorizontal,a,71,20,female,2021-02-17_14h21.03.461,exp11,2020.2.6,Win32,60,,,,,,,,,,,
,,,,,,,,,,,,,,a,1,0.878535,space,0.141085001,0,179,179,151,1,0_targ_10_dist_red/trial2.png,,,0,10,redHorizontal,a,71,20,female,2021-02-17_14h21.03.461,exp11,2020.2.6,Win32,60,,,,,,,,,,,
,,,,,,,,,,,,,,p,1,0.88769,space,0.07173,0,180,180,63,1,9_dist_red/trial14.png,,,1,9,redHorizontal,p,71,20,female,2021-02-17_14h21.03.461,exp11,2020.2.6,Win32,60,,,,,,,,,,,
,,,,,,,,,,,,,,p,1,0.890925,space,0.100749999,0,181,181,42,1,3_dist_red/trial18.png,,,1,3,redHorizontal,p,71,20,female,2021-02-17_14h21.03.461,exp11,2020.2.6,Win32,60,,,,,,,,,,,
,,,,,,,,,,,,,,a,1,0.772075,space,0.093095,0,182,182,198,1,0_targ_16_dist_red/trial24.png,,,0,16,redHorizontal,a,71,20,female,2021-02-17_14h21.03.461,exp11,2020.2.6,Win32,60,,,,,,,,,,,
,,,,,,,,,,,,,,p,1,0.803564999,space,0.068105,0,183,183,23,1,0_dist_red/trial24.png,,,1,0,redHorizontal,p,71,20,female,2021-02-17_14h21.03.461,exp11,2020.2.6,Win32,60,,,,,,,,,,,
,,,,,,,,,,,,,,a,1,0.608,space,0.201245,0,184,184,163,1,0_targ_10_dist_red/trial14.png,,,0,10,redHorizontal,a,71,20,female,2021-02-17_14h21.03.461,exp11,2020.2.6,Win32,60,,,,,,,,,,,
,,,,,,,,,,,,,,p,1,0.75508,space,0.072509999,0,185,185,38,1,3_dist_red/trial14.png,,,1,3,redHorizontal,p,71,20,female,2021-02-17_14h21.03.461,exp11,2020.2.6,Win32,60,,,,,,,,,,,
,,,,,,,,,,,,,,p,1,0.865705,space,0.06658,0,186,186,19,1,0_dist_red/trial20.png,,,1,0,redHorizontal,p,71,20,female,2021-02-17_14h21.03.461,exp11,2020.2.6,Win32,60,,,,,,,,,,,
,,,,,,,,,,,,,,p,1,0.72766,space,0.04686,0,187,187,73,1,9_dist_red/trial24.png,,,1,9,redHorizontal,p,71,20,female,2021-02-17_14h21.03.461,exp11,2020.2.6,Win32,60,,,,,,,,,,,
,,,,,,,,,,,,,,a,1,0.690795,space,0.100485,0,188,188,119,1,0_targ_1_dist_red/trial20.png,,,0,1,redHorizontal,a,71,20,female,2021-02-17_14h21.03.461,exp11,2020.2.6,Win32,60,,,,,,,,,,,
,,,,,,,,,,,,,,p,0,0.589675,space,0.145605,0,189,189,132,1,0_targ_4_dist_red/trial8.png,,,0,4,redHorizontal,a,71,20,female,2021-02-17_14h21.03.461,exp11,2020.2.6,Win32,60,,,,,,,,,,,
,,,,,,,,,,,,,,p,1,1.044075,space,0.07048,0,190,190,61,1,9_dist_red/trial12.png,,,1,9,redHorizontal,p,71,20,female,2021-02-17_14h21.03.461,exp11,2020.2.6,Win32,60,,,,,,,,,,,
,,,,,,,,,,,,,,p,1,0.527005,space,0.103015,0,191,191,17,1,0_dist_red/trial18.png,,,1,0,redHorizontal,p,71,20,female,2021-02-17_14h21.03.461,exp11,2020.2.6,Win32,60,,,,,,,,,,,
,,,,,,,,,,,,,,p,1,0.401195,space,0.11825,0,192,192,13,1,0_dist_red/trial14.png,,,1,0,redHorizontal,p,71,20,female,2021-02-17_14h21.03.461,exp11,2020.2.6,Win32,60,,,,,,,,,,,
,,,,,,,,,,,,,,p,1,0.44226,space,0.15445,0,193,193,24,1,0_dist_red/trial25.png,,,1,0,redHorizontal,p,71,20,female,2021-02-17_14h21.03.461,exp11,2020.2.6,Win32,60,,,,,,,,,,,
,,,,,,,,,,,,,,a,1,0.58279,space,0.10613,0,194,194,139,1,0_targ_4_dist_red/trial15.png,,,0,4,redHorizontal,a,71,20,female,2021-02-17_14h21.03.461,exp11,2020.2.6,Win32,60,,,,,,,,,,,
,,,,,,,,,,,,,,p,1,0.790934999,space,0.058759999,0,195,195,84,1,15_dist_red/trial10.png,,,1,15,redHorizontal,p,71,20,female,2021-02-17_14h21.03.461,exp11,2020.2.6,Win32,60,,,,,,,,,,,
,,,,,,,,,,,,,,a,1,1.061594999,space,0.105725,0,196,196,117,1,0_targ_1_dist_red/trial18.png,,,0,1,redHorizontal,a,71,20,female,2021-02-17_14h21.03.461,exp11,2020.2.6,Win32,60,,,,,,,,,,,
,,,,,,,,,,,,,,p,1,0.580915,space,0.153715,0,197,197,5,1,0_dist_red/trial6.png,,,1,0,redHorizontal,p,71,20,female,2021-02-17_14h21.03.461,exp11,2020.2.6,Win32,60,,,,,,,,,,,
,,,,,,,,,,,,,,p,1,0.489755,space,0.035979999,0,198,198,2,1,0_dist_red/trial3.png,,,1,0,redHorizontal,p,71,20,female,2021-02-17_14h21.03.461,exp11,2020.2.6,Win32,60,,,,,,,,,,,
,,,,,,,,,,,,,,p,1,0.623945001,space,0.109345,0,199,199,88,1,15_dist_red/trial14.png,,,1,15,redHorizontal,p,71,20,female,2021-02-17_14h21.03.461,exp11,2020.2.6,Win32,60,,,,,,,,,,,
,,,,,,,,,,,,,,,,,,,,,,,,,,,,,,,71,20,female,2021-02-17_14h21.03.461,exp11,2020.2.6,Win32,60,0,1,1,1,1,conRed.xlsx,red horizontal,Look for red horizontal bar (target) and indicate if it is present or absent in the array. If red horizontal target is present press 'p' and if absent press 'a'. Press SPACE to start.,,,
