key_resp_6.keys,key_resp_6.rt,key_resp_7.keys,key_resp_7.rt,key_resp_8.keys,key_resp_8.rt,key_resp_10.keys,key_resp_10.rt,key_resp_9.keys,key_resp_9.rt,key_resp_3.keys,key_resp_3.rt,key_resp_5.keys,key_resp_5.rt,key_resp.keys,key_resp.corr,key_resp.rt,key_resp_4.keys,key_resp_4.rt,trials.thisRepN,trials.thisTrialN,trials.thisN,trials.thisIndex,trials.ran,ImageFile,tarPos,tarSize,targPres,numDist,targetName,correctAns,participant,age,sex,date,expName,psychopyVersion,OS,frameRate,trials_2.thisRepN,trials_2.thisTrialN,trials_2.thisN,trials_2.thisIndex,trials_2.ran,condsFile,targName,instructionText,colTarget,sizeTarg,posit
space,4.500155,space,20.273745,space,4.283445,space,10.39646,space,4.3896,space,18.115055,space,8.793105,p,1,0.493315,space,3.100455,0,0,0,2,1,0_dist_green/trial3.png,,,1,0,greenverival,p,72,21,female,2021-02-22_17h41.53.706,exp11,2020.2.6,Win32,60,,,,,,,,,,,
,,,,,,,,,,,,,,a,1,1.321695,space,2.43373,0,1,1,157,1,0_targ_10_dist_green/trial8.png,,,0,10,greenverival,a,72,21,female,2021-02-22_17h41.53.706,exp11,2020.2.6,Win32,60,,,,,,,,,,,
,,,,,,,,,,,,,,a,1,0.90346,space,0.424845,0,2,2,134,1,0_targ_4_dist_green/trial10.png,,,0,4,greenverival,a,72,21,female,2021-02-22_17h41.53.706,exp11,2020.2.6,Win32,60,,,,,,,,,,,
,,,,,,,,,,,,,,a,1,0.571955,space,0.5089,0,3,3,142,1,0_targ_4_dist_green/trial18.png,,,0,4,greenverival,a,72,21,female,2021-02-22_17h41.53.706,exp11,2020.2.6,Win32,60,,,,,,,,,,,
,,,,,,,,,,,,,,a,1,0.985715,space,0.74693,0,4,4,199,1,0_targ_16_dist_green/trial25.png,,,0,16,greenverival,a,72,21,female,2021-02-22_17h41.53.706,exp11,2020.2.6,Win32,60,,,,,,,,,,,
,,,,,,,,,,,,,,p,1,0.78251,space,0.885225,0,5,5,75,1,15_dist_green/trial1.png,,,1,15,greenverival,p,72,21,female,2021-02-22_17h41.53.706,exp11,2020.2.6,Win32,60,,,,,,,,,,,
,,,,,,,,,,,,,,p,1,0.626745,space,0.46449,0,6,6,58,1,9_dist_green/trial9.png,,,1,9,greenverival,p,72,21,female,2021-02-22_17h41.53.706,exp11,2020.2.6,Win32,60,,,,,,,,,,,
,,,,,,,,,,,,,,p,1,0.621415,space,0.524225,0,7,7,27,1,3_dist_green/trial3.png,,,1,3,greenverival,p,72,21,female,2021-02-22_17h41.53.706,exp11,2020.2.6,Win32,60,,,,,,,,,,,
,,,,,,,,,,,,,,a,0,0.635455,space,0.33397,0,8,8,81,1,15_dist_green/trial7.png,,,1,15,greenverival,p,72,21,female,2021-02-22_17h41.53.706,exp11,2020.2.6,Win32,60,,,,,,,,,,,
,,,,,,,,,,,,,,p,1,0.81341,space,1.247265,0,9,9,61,1,9_dist_green/trial12.png,,,1,9,greenverival,p,72,21,female,2021-02-22_17h41.53.706,exp11,2020.2.6,Win32,60,,,,,,,,,,,
,,,,,,,,,,,,,,a,1,0.548885,space,0.467215,0,10,10,109,1,0_targ_1_dist_green/trial10.png,,,0,1,greenverival,a,72,21,female,2021-02-22_17h41.53.706,exp11,2020.2.6,Win32,60,,,,,,,,,,,
,,,,,,,,,,,,,,p,1,0.671465,space,0.593885,0,11,11,89,1,15_dist_green/trial15.png,,,1,15,greenverival,p,72,21,female,2021-02-22_17h41.53.706,exp11,2020.2.6,Win32,60,,,,,,,,,,,
,,,,,,,,,,,,,,p,1,0.469435,space,0.551705,0,12,12,11,1,0_dist_green/trial12.png,,,1,0,greenverival,p,72,21,female,2021-02-22_17h41.53.706,exp11,2020.2.6,Win32,60,,,,,,,,,,,
,,,,,,,,,,,,,,p,1,0.59929,space,0.485845,0,13,13,7,1,0_dist_green/trial8.png,,,1,0,greenverival,p,72,21,female,2021-02-22_17h41.53.706,exp11,2020.2.6,Win32,60,,,,,,,,,,,
,,,,,,,,,,,,,,a,1,0.80151,space,0.41757,0,14,14,121,1,0_targ_1_dist_green/trial22.png,,,0,1,greenverival,a,72,21,female,2021-02-22_17h41.53.706,exp11,2020.2.6,Win32,60,,,,,,,,,,,
,,,,,,,,,,,,,,a,1,0.59653,space,0.45653,0,15,15,118,1,0_targ_1_dist_green/trial19.png,,,0,1,greenverival,a,72,21,female,2021-02-22_17h41.53.706,exp11,2020.2.6,Win32,60,,,,,,,,,,,
,,,,,,,,,,,,,,a,1,1.006255,space,0.488745,0,16,16,185,1,0_targ_16_dist_green/trial11.png,,,0,16,greenverival,a,72,21,female,2021-02-22_17h41.53.706,exp11,2020.2.6,Win32,60,,,,,,,,,,,
,,,,,,,,,,,,,,p,1,0.68185,space,0.41725,0,17,17,9,1,0_dist_green/trial10.png,,,1,0,greenverival,p,72,21,female,2021-02-22_17h41.53.706,exp11,2020.2.6,Win32,60,,,,,,,,,,,
,,,,,,,,,,,,,,p,1,0.641675,space,0.454045,0,18,18,94,1,15_dist_green/trial20.png,,,1,15,greenverival,p,72,21,female,2021-02-22_17h41.53.706,exp11,2020.2.6,Win32,60,,,,,,,,,,,
,,,,,,,,,,,,,,p,1,0.573835,space,0.493345,0,19,19,16,1,0_dist_green/trial17.png,,,1,0,greenverival,p,72,21,female,2021-02-22_17h41.53.706,exp11,2020.2.6,Win32,60,,,,,,,,,,,
,,,,,,,,,,,,,,p,1,0.53222,space,0.501255,0,20,20,68,1,9_dist_green/trial19.png,,,1,9,greenverival,p,72,21,female,2021-02-22_17h41.53.706,exp11,2020.2.6,Win32,60,,,,,,,,,,,
,,,,,,,,,,,,,,a,1,0.583205,space,0.555755,0,21,21,152,1,0_targ_10_dist_green/trial3.png,,,0,10,greenverival,a,72,21,female,2021-02-22_17h41.53.706,exp11,2020.2.6,Win32,60,,,,,,,,,,,
,,,,,,,,,,,,,,p,1,0.620535,space,0.4567,0,22,22,73,1,9_dist_green/trial24.png,,,1,9,greenverival,p,72,21,female,2021-02-22_17h41.53.706,exp11,2020.2.6,Win32,60,,,,,,,,,,,
,,,,,,,,,,,,,,p,1,0.540675,space,0.64846,0,23,23,21,1,0_dist_green/trial22.png,,,1,0,greenverival,p,72,21,female,2021-02-22_17h41.53.706,exp11,2020.2.6,Win32,60,,,,,,,,,,,
,,,,,,,,,,,,,,a,0,0.56479,space,1.1576,0,24,24,31,1,3_dist_green/trial7.png,,,1,3,greenverival,p,72,21,female,2021-02-22_17h41.53.706,exp11,2020.2.6,Win32,60,,,,,,,,,,,
,,,,,,,,,,,,,,a,1,1.04421,space,0.500885,0,25,25,168,1,0_targ_10_dist_green/trial19.png,,,0,10,greenverival,a,72,21,female,2021-02-22_17h41.53.706,exp11,2020.2.6,Win32,60,,,,,,,,,,,
,,,,,,,,,,,,,,a,1,1.017715,space,0.57445,0,26,26,177,1,0_targ_16_dist_green/trial3.png,,,0,16,greenverival,a,72,21,female,2021-02-22_17h41.53.706,exp11,2020.2.6,Win32,60,,,,,,,,,,,
,,,,,,,,,,,,,,a,1,0.57811,space,0.480545,0,27,27,163,1,0_targ_10_dist_green/trial14.png,,,0,10,greenverival,a,72,21,female,2021-02-22_17h41.53.706,exp11,2020.2.6,Win32,60,,,,,,,,,,,
,,,,,,,,,,,,,,a,1,0.60914,space,0.58689,0,28,28,162,1,0_targ_10_dist_green/trial13.png,,,0,10,greenverival,a,72,21,female,2021-02-22_17h41.53.706,exp11,2020.2.6,Win32,60,,,,,,,,,,,
,,,,,,,,,,,,,,p,1,0.57749,space,0.57992,0,29,29,14,1,0_dist_green/trial15.png,,,1,0,greenverival,p,72,21,female,2021-02-22_17h41.53.706,exp11,2020.2.6,Win32,60,,,,,,,,,,,
,,,,,,,,,,,,,,a,1,0.822385,space,0.43607,0,30,30,151,1,0_targ_10_dist_green/trial2.png,,,0,10,greenverival,a,72,21,female,2021-02-22_17h41.53.706,exp11,2020.2.6,Win32,60,,,,,,,,,,,
,,,,,,,,,,,,,,a,1,0.48928,space,0.52995,0,31,31,133,1,0_targ_4_dist_green/trial9.png,,,0,4,greenverival,a,72,21,female,2021-02-22_17h41.53.706,exp11,2020.2.6,Win32,60,,,,,,,,,,,
,,,,,,,,,,,,,,a,1,0.648015,space,0.408485,0,32,32,155,1,0_targ_10_dist_green/trial6.png,,,0,10,greenverival,a,72,21,female,2021-02-22_17h41.53.706,exp11,2020.2.6,Win32,60,,,,,,,,,,,
,,,,,,,,,,,,,,p,1,0.483045,space,0.40346,0,33,33,63,1,9_dist_green/trial14.png,,,1,9,greenverival,p,72,21,female,2021-02-22_17h41.53.706,exp11,2020.2.6,Win32,60,,,,,,,,,,,
,,,,,,,,,,,,,,a,1,0.52141,space,0.393795,0,34,34,125,1,0_targ_4_dist_green/trial1.png,,,0,4,greenverival,a,72,21,female,2021-02-22_17h41.53.706,exp11,2020.2.6,Win32,60,,,,,,,,,,,
,,,,,,,,,,,,,,a,1,0.643435,space,0.41993,0,35,35,175,1,0_targ_16_dist_green/trial1.png,,,0,16,greenverival,a,72,21,female,2021-02-22_17h41.53.706,exp11,2020.2.6,Win32,60,,,,,,,,,,,
,,,,,,,,,,,,,,p,1,0.582365,space,0.35799,0,36,36,45,1,3_dist_green/trial21.png,,,1,3,greenverival,p,72,21,female,2021-02-22_17h41.53.706,exp11,2020.2.6,Win32,60,,,,,,,,,,,
,,,,,,,,,,,,,,a,1,0.692495,space,0.426455,0,37,37,145,1,0_targ_4_dist_green/trial21.png,,,0,4,greenverival,a,72,21,female,2021-02-22_17h41.53.706,exp11,2020.2.6,Win32,60,,,,,,,,,,,
,,,,,,,,,,,,,,p,1,0.52972,space,0.39596,0,38,38,8,1,0_dist_green/trial9.png,,,1,0,greenverival,p,72,21,female,2021-02-22_17h41.53.706,exp11,2020.2.6,Win32,60,,,,,,,,,,,
,,,,,,,,,,,,,,p,1,0.796165,space,0.43856,0,39,39,71,1,9_dist_green/trial22.png,,,1,9,greenverival,p,72,21,female,2021-02-22_17h41.53.706,exp11,2020.2.6,Win32,60,,,,,,,,,,,
,,,,,,,,,,,,,,a,1,1.018125,space,0.40709,0,40,40,119,1,0_targ_1_dist_green/trial20.png,,,0,1,greenverival,a,72,21,female,2021-02-22_17h41.53.706,exp11,2020.2.6,Win32,60,,,,,,,,,,,
,,,,,,,,,,,,,,p,1,0.760965,space,0.35105,0,41,41,98,1,15_dist_green/trial24.png,,,1,15,greenverival,p,72,21,female,2021-02-22_17h41.53.706,exp11,2020.2.6,Win32,60,,,,,,,,,,,
,,,,,,,,,,,,,,a,1,0.613885,space,0.427165,0,42,42,149,1,0_targ_4_dist_green/trial25.png,,,0,4,greenverival,a,72,21,female,2021-02-22_17h41.53.706,exp11,2020.2.6,Win32,60,,,,,,,,,,,
,,,,,,,,,,,,,,a,0,0.56027,space,3.20184,0,43,43,80,1,15_dist_green/trial6.png,,,1,15,greenverival,p,72,21,female,2021-02-22_17h41.53.706,exp11,2020.2.6,Win32,60,,,,,,,,,,,
,,,,,,,,,,,,,,a,1,0.741065,space,0.31822,0,44,44,141,1,0_targ_4_dist_green/trial17.png,,,0,4,greenverival,a,72,21,female,2021-02-22_17h41.53.706,exp11,2020.2.6,Win32,60,,,,,,,,,,,
,,,,,,,,,,,,,,a,0,0.50155,space,0.381065,0,45,45,26,1,3_dist_green/trial2.png,,,1,3,greenverival,p,72,21,female,2021-02-22_17h41.53.706,exp11,2020.2.6,Win32,60,,,,,,,,,,,
,,,,,,,,,,,,,,a,1,0.832465,space,0.59424,0,46,46,116,1,0_targ_1_dist_green/trial17.png,,,0,1,greenverival,a,72,21,female,2021-02-22_17h41.53.706,exp11,2020.2.6,Win32,60,,,,,,,,,,,
,,,,,,,,,,,,,,p,1,0.421835,space,0.38531,0,47,47,15,1,0_dist_green/trial16.png,,,1,0,greenverival,p,72,21,female,2021-02-22_17h41.53.706,exp11,2020.2.6,Win32,60,,,,,,,,,,,
,,,,,,,,,,,,,,p,1,0.717855,space,0.6131,0,48,48,54,1,9_dist_green/trial5.png,,,1,9,greenverival,p,72,21,female,2021-02-22_17h41.53.706,exp11,2020.2.6,Win32,60,,,,,,,,,,,
,,,,,,,,,,,,,,a,1,0.671,space,0.408965,0,49,49,129,1,0_targ_4_dist_green/trial5.png,,,0,4,greenverival,a,72,21,female,2021-02-22_17h41.53.706,exp11,2020.2.6,Win32,60,,,,,,,,,,,
,,,,,,,,,,,,,,a,1,0.849535,space,0.32012,0,50,50,158,1,0_targ_10_dist_green/trial9.png,,,0,10,greenverival,a,72,21,female,2021-02-22_17h41.53.706,exp11,2020.2.6,Win32,60,,,,,,,,,,,
,,,,,,,,,,,,,,p,1,1.01738,space,0.40318,0,51,51,82,1,15_dist_green/trial8.png,,,1,15,greenverival,p,72,21,female,2021-02-22_17h41.53.706,exp11,2020.2.6,Win32,60,,,,,,,,,,,
,,,,,,,,,,,,,,a,1,1.05187,space,0.358145,0,52,52,189,1,0_targ_16_dist_green/trial15.png,,,0,16,greenverival,a,72,21,female,2021-02-22_17h41.53.706,exp11,2020.2.6,Win32,60,,,,,,,,,,,
,,,,,,,,,,,,,,a,1,0.86687,space,0.501605,0,53,53,150,1,0_targ_10_dist_green/trial1.png,,,0,10,greenverival,a,72,21,female,2021-02-22_17h41.53.706,exp11,2020.2.6,Win32,60,,,,,,,,,,,
,,,,,,,,,,,,,,p,1,0.88485,space,0.350755,0,54,54,97,1,15_dist_green/trial23.png,,,1,15,greenverival,p,72,21,female,2021-02-22_17h41.53.706,exp11,2020.2.6,Win32,60,,,,,,,,,,,
,,,,,,,,,,,,,,a,1,0.61274,space,0.33447,0,55,55,147,1,0_targ_4_dist_green/trial23.png,,,0,4,greenverival,a,72,21,female,2021-02-22_17h41.53.706,exp11,2020.2.6,Win32,60,,,,,,,,,,,
,,,,,,,,,,,,,,a,1,0.72144,space,1.12847,0,56,56,124,1,0_targ_1_dist_green/trial25.png,,,0,1,greenverival,a,72,21,female,2021-02-22_17h41.53.706,exp11,2020.2.6,Win32,60,,,,,,,,,,,
,,,,,,,,,,,,,,a,1,0.61242,space,0.36436,0,57,57,166,1,0_targ_10_dist_green/trial17.png,,,0,10,greenverival,a,72,21,female,2021-02-22_17h41.53.706,exp11,2020.2.6,Win32,60,,,,,,,,,,,
,,,,,,,,,,,,,,p,1,0.8407,space,0.368535,0,58,58,85,1,15_dist_green/trial11.png,,,1,15,greenverival,p,72,21,female,2021-02-22_17h41.53.706,exp11,2020.2.6,Win32,60,,,,,,,,,,,
,,,,,,,,,,,,,,p,1,0.80137,space,0.33801,0,59,59,48,1,3_dist_green/trial24.png,,,1,3,greenverival,p,72,21,female,2021-02-22_17h41.53.706,exp11,2020.2.6,Win32,60,,,,,,,,,,,
,,,,,,,,,,,,,,p,1,0.440685,space,0.408,0,60,60,18,1,0_dist_green/trial19.png,,,1,0,greenverival,p,72,21,female,2021-02-22_17h41.53.706,exp11,2020.2.6,Win32,60,,,,,,,,,,,
,,,,,,,,,,,,,,p,1,0.6453,space,0.357175,0,61,61,53,1,9_dist_green/trial4.png,,,1,9,greenverival,p,72,21,female,2021-02-22_17h41.53.706,exp11,2020.2.6,Win32,60,,,,,,,,,,,
,,,,,,,,,,,,,,a,0,0.654435,space,0.493135,0,62,62,90,1,15_dist_green/trial16.png,,,1,15,greenverival,p,72,21,female,2021-02-22_17h41.53.706,exp11,2020.2.6,Win32,60,,,,,,,,,,,
,,,,,,,,,,,,,,a,1,0.965525,space,0.469845,0,63,63,173,1,0_targ_10_dist_green/trial24.png,,,0,10,greenverival,a,72,21,female,2021-02-22_17h41.53.706,exp11,2020.2.6,Win32,60,,,,,,,,,,,
,,,,,,,,,,,,,,a,1,0.614245,space,0.377535,0,64,64,130,1,0_targ_4_dist_green/trial6.png,,,0,4,greenverival,a,72,21,female,2021-02-22_17h41.53.706,exp11,2020.2.6,Win32,60,,,,,,,,,,,
,,,,,,,,,,,,,,a,1,0.76884,space,0.438995,0,65,65,192,1,0_targ_16_dist_green/trial18.png,,,0,16,greenverival,a,72,21,female,2021-02-22_17h41.53.706,exp11,2020.2.6,Win32,60,,,,,,,,,,,
,,,,,,,,,,,,,,a,1,0.6565,space,0.617925,0,66,66,123,1,0_targ_1_dist_green/trial24.png,,,0,1,greenverival,a,72,21,female,2021-02-22_17h41.53.706,exp11,2020.2.6,Win32,60,,,,,,,,,,,
,,,,,,,,,,,,,,p,1,0.576335,space,0.356235,0,67,67,38,1,3_dist_green/trial14.png,,,1,3,greenverival,p,72,21,female,2021-02-22_17h41.53.706,exp11,2020.2.6,Win32,60,,,,,,,,,,,
,,,,,,,,,,,,,,a,1,0.614495,space,0.400615,0,68,68,140,1,0_targ_4_dist_green/trial6.png,,,0,4,greenverival,a,72,21,female,2021-02-22_17h41.53.706,exp11,2020.2.6,Win32,60,,,,,,,,,,,
,,,,,,,,,,,,,,a,1,0.573505,space,0.368715,0,69,69,120,1,0_targ_1_dist_green/trial21.png,,,0,1,greenverival,a,72,21,female,2021-02-22_17h41.53.706,exp11,2020.2.6,Win32,60,,,,,,,,,,,
,,,,,,,,,,,,,,a,1,0.607535,space,0.335385,0,70,70,137,1,0_targ_4_dist_green/trial13.png,,,0,4,greenverival,a,72,21,female,2021-02-22_17h41.53.706,exp11,2020.2.6,Win32,60,,,,,,,,,,,
,,,,,,,,,,,,,,p,1,0.798665,space,0.38749,0,71,71,78,1,15_dist_green/trial4.png,,,1,15,greenverival,p,72,21,female,2021-02-22_17h41.53.706,exp11,2020.2.6,Win32,60,,,,,,,,,,,
,,,,,,,,,,,,,,a,1,0.630365,space,0.36767,0,72,72,127,1,0_targ_4_dist_green/trial3.png,,,0,4,greenverival,a,72,21,female,2021-02-22_17h41.53.706,exp11,2020.2.6,Win32,60,,,,,,,,,,,
,,,,,,,,,,,,,,a,1,0.581135,space,0.418635,0,73,73,161,1,0_targ_10_dist_green/trial12.png,,,0,10,greenverival,a,72,21,female,2021-02-22_17h41.53.706,exp11,2020.2.6,Win32,60,,,,,,,,,,,
,,,,,,,,,,,,,,a,0,0.61327,space,0.452545,0,74,74,35,1,3_dist_green/trial11.png,,,1,3,greenverival,p,72,21,female,2021-02-22_17h41.53.706,exp11,2020.2.6,Win32,60,,,,,,,,,,,
,,,,,,,,,,,,,,p,1,0.817175,space,0.45145,0,75,75,57,1,9_dist_green/trial8.png,,,1,9,greenverival,p,72,21,female,2021-02-22_17h41.53.706,exp11,2020.2.6,Win32,60,,,,,,,,,,,
,,,,,,,,,,,,,,p,1,0.510365,space,0.40678,0,76,76,55,1,9_dist_green/trial6.png,,,1,9,greenverival,p,72,21,female,2021-02-22_17h41.53.706,exp11,2020.2.6,Win32,60,,,,,,,,,,,
,,,,,,,,,,,,,,p,1,0.5151,space,0.446805,0,77,77,59,1,9_dist_green/trial10.png,,,1,9,greenverival,p,72,21,female,2021-02-22_17h41.53.706,exp11,2020.2.6,Win32,60,,,,,,,,,,,
,,,,,,,,,,,,,,a,1,0.660275,space,0.466405,0,78,78,132,1,0_targ_4_dist_green/trial8.png,,,0,4,greenverival,a,72,21,female,2021-02-22_17h41.53.706,exp11,2020.2.6,Win32,60,,,,,,,,,,,
,,,,,,,,,,,,,,p,1,0.610865,space,0.409725,0,79,79,30,1,3_dist_green/trial6.png,,,1,3,greenverival,p,72,21,female,2021-02-22_17h41.53.706,exp11,2020.2.6,Win32,60,,,,,,,,,,,
,,,,,,,,,,,,,,a,1,0.613995,space,0.4733,0,80,80,143,1,0_targ_4_dist_green/trial19.png,,,0,4,greenverival,a,72,21,female,2021-02-22_17h41.53.706,exp11,2020.2.6,Win32,60,,,,,,,,,,,
,,,,,,,,,,,,,,a,1,0.522265,space,0.40369,0,81,81,110,1,0_targ_1_dist_green/trial11.png,,,0,1,greenverival,a,72,21,female,2021-02-22_17h41.53.706,exp11,2020.2.6,Win32,60,,,,,,,,,,,
,,,,,,,,,,,,,,a,1,0.626,space,0.390565,0,82,82,144,1,0_targ_4_dist_green/trial20.png,,,0,4,greenverival,a,72,21,female,2021-02-22_17h41.53.706,exp11,2020.2.6,Win32,60,,,,,,,,,,,
,,,,,,,,,,,,,,p,1,0.704055,space,0.4664,0,83,83,70,1,9_dist_green/trial21.png,,,1,9,greenverival,p,72,21,female,2021-02-22_17h41.53.706,exp11,2020.2.6,Win32,60,,,,,,,,,,,
,,,,,,,,,,,,,,p,1,0.644215,space,0.417735,0,84,84,74,1,9_dist_green/trial25.png,,,1,9,greenverival,p,72,21,female,2021-02-22_17h41.53.706,exp11,2020.2.6,Win32,60,,,,,,,,,,,
,,,,,,,,,,,,,,p,1,0.746195,space,0.52455,0,85,85,29,1,3_dist_green/trial5.png,,,1,3,greenverival,p,72,21,female,2021-02-22_17h41.53.706,exp11,2020.2.6,Win32,60,,,,,,,,,,,
,,,,,,,,,,,,,,a,1,0.59685,space,0.534775,0,86,86,105,1,0_targ_1_dist_green/trial6.png,,,0,1,greenverival,a,72,21,female,2021-02-22_17h41.53.706,exp11,2020.2.6,Win32,60,,,,,,,,,,,
,,,,,,,,,,,,,,a,1,0.599115,space,0.443075,0,87,87,122,1,0_targ_1_dist_green/trial23.png,,,0,1,greenverival,a,72,21,female,2021-02-22_17h41.53.706,exp11,2020.2.6,Win32,60,,,,,,,,,,,
,,,,,,,,,,,,,,p,1,0.788345,space,0.43688,0,88,88,1,1,0_dist_green/trial2.png,,,1,0,greenverival,p,72,21,female,2021-02-22_17h41.53.706,exp11,2020.2.6,Win32,60,,,,,,,,,,,
,,,,,,,,,,,,,,a,1,1.250565,space,0.79192,0,89,89,184,1,0_targ_16_dist_green/trial10.png,,,0,16,greenverival,a,72,21,female,2021-02-22_17h41.53.706,exp11,2020.2.6,Win32,60,,,,,,,,,,,
,,,,,,,,,,,,,,p,1,0.53271,space,0.436675,0,90,90,93,1,15_dist_green/trial19.png,,,1,15,greenverival,p,72,21,female,2021-02-22_17h41.53.706,exp11,2020.2.6,Win32,60,,,,,,,,,,,
,,,,,,,,,,,,,,a,1,0.5826,space,0.609255,0,91,91,136,1,0_targ_4_dist_green/trial12.png,,,0,4,greenverival,a,72,21,female,2021-02-22_17h41.53.706,exp11,2020.2.6,Win32,60,,,,,,,,,,,
,,,,,,,,,,,,,,p,1,0.580115,space,0.363675,0,92,92,10,1,0_dist_green/trial11.png,,,1,0,greenverival,p,72,21,female,2021-02-22_17h41.53.706,exp11,2020.2.6,Win32,60,,,,,,,,,,,
,,,,,,,,,,,,,,p,1,0.557495,space,0.438105,0,93,93,5,1,0_dist_green/trial6.png,,,1,0,greenverival,p,72,21,female,2021-02-22_17h41.53.706,exp11,2020.2.6,Win32,60,,,,,,,,,,,
,,,,,,,,,,,,,,a,1,0.66385,space,0.461205,0,94,94,179,1,0_targ_16_dist_green/trial5.png,,,0,16,greenverival,a,72,21,female,2021-02-22_17h41.53.706,exp11,2020.2.6,Win32,60,,,,,,,,,,,
,,,,,,,,,,,,,,a,1,0.8402,space,0.427435,0,95,95,190,1,0_targ_16_dist_green/trial16.png,,,0,16,greenverival,a,72,21,female,2021-02-22_17h41.53.706,exp11,2020.2.6,Win32,60,,,,,,,,,,,
,,,,,,,,,,,,,,a,1,0.602975,space,0.539895,0,96,96,139,1,0_targ_4_dist_green/trial15.png,,,0,4,greenverival,a,72,21,female,2021-02-22_17h41.53.706,exp11,2020.2.6,Win32,60,,,,,,,,,,,
,,,,,,,,,,,,,,p,1,0.7443,space,0.38978,0,97,97,96,1,15_dist_green/trial22.png,,,1,15,greenverival,p,72,21,female,2021-02-22_17h41.53.706,exp11,2020.2.6,Win32,60,,,,,,,,,,,
,,,,,,,,,,,,,,p,1,0.508245,space,0.48897,0,98,98,56,1,9_dist_green/trial7.png,,,1,9,greenverival,p,72,21,female,2021-02-22_17h41.53.706,exp11,2020.2.6,Win32,60,,,,,,,,,,,
,,,,,,,,,,,,,,a,1,0.587275,space,0.705915,0,99,99,153,1,0_targ_10_dist_green/trial4.png,,,0,10,greenverival,a,72,21,female,2021-02-22_17h41.53.706,exp11,2020.2.6,Win32,60,,,,,,,,,,,
,,,,,,,,,,,,,,p,1,0.53117,space,0.39576,0,100,100,22,1,0_dist_green/trial23.png,,,1,0,greenverival,p,72,21,female,2021-02-22_17h41.53.706,exp11,2020.2.6,Win32,60,,,,,,,,,,,
,,,,,,,,,,,,,,a,0,0.46113,space,0.335835,0,101,101,52,1,9_dist_green/trial3.png,,,1,9,greenverival,p,72,21,female,2021-02-22_17h41.53.706,exp11,2020.2.6,Win32,60,,,,,,,,,,,
,,,,,,,,,,,,,,p,1,0.627275,space,0.39604,0,102,102,28,1,3_dist_green/trial4.png,,,1,3,greenverival,p,72,21,female,2021-02-22_17h41.53.706,exp11,2020.2.6,Win32,60,,,,,,,,,,,
,,,,,,,,,,,,,,p,1,0.715375,space,0.514425,0,103,103,91,1,15_dist_green/trial17.png,,,1,15,greenverival,p,72,21,female,2021-02-22_17h41.53.706,exp11,2020.2.6,Win32,60,,,,,,,,,,,
,,,,,,,,,,,,,,a,1,0.60927,space,0.477885,0,104,104,170,1,0_targ_10_dist_green/trial21.png,,,0,10,greenverival,a,72,21,female,2021-02-22_17h41.53.706,exp11,2020.2.6,Win32,60,,,,,,,,,,,
,,,,,,,,,,,,,,p,1,0.58561,space,0.415305,0,105,105,24,1,0_dist_green/trial25.png,,,1,0,greenverival,p,72,21,female,2021-02-22_17h41.53.706,exp11,2020.2.6,Win32,60,,,,,,,,,,,
,,,,,,,,,,,,,,a,1,0.82626,space,0.64898,0,106,106,193,1,0_targ_16_dist_green/trial19.png,,,0,16,greenverival,a,72,21,female,2021-02-22_17h41.53.706,exp11,2020.2.6,Win32,60,,,,,,,,,,,
,,,,,,,,,,,,,,a,1,0.699445,space,0.42843,0,107,107,159,1,0_targ_10_dist_green/trial10.png,,,0,10,greenverival,a,72,21,female,2021-02-22_17h41.53.706,exp11,2020.2.6,Win32,60,,,,,,,,,,,
,,,,,,,,,,,,,,p,1,0.50293,space,0.401445,0,108,108,39,1,3_dist_green/trial15.png,,,1,3,greenverival,p,72,21,female,2021-02-22_17h41.53.706,exp11,2020.2.6,Win32,60,,,,,,,,,,,
,,,,,,,,,,,,,,a,1,0.646535,space,0.452875,0,109,109,176,1,0_targ_16_dist_green/trial2.png,,,0,16,greenverival,a,72,21,female,2021-02-22_17h41.53.706,exp11,2020.2.6,Win32,60,,,,,,,,,,,
,,,,,,,,,,,,,,a,1,0.546255,space,0.41164,0,110,110,165,1,0_targ_10_dist_green/trial16.png,,,0,10,greenverival,a,72,21,female,2021-02-22_17h41.53.706,exp11,2020.2.6,Win32,60,,,,,,,,,,,
,,,,,,,,,,,,,,p,1,0.60518,space,0.515205,0,111,111,87,1,15_dist_green/trial13.png,,,1,15,greenverival,p,72,21,female,2021-02-22_17h41.53.706,exp11,2020.2.6,Win32,60,,,,,,,,,,,
,,,,,,,,,,,,,,p,1,0.557485,space,0.51924,0,112,112,32,1,3_dist_green/trial8.png,,,1,3,greenverival,p,72,21,female,2021-02-22_17h41.53.706,exp11,2020.2.6,Win32,60,,,,,,,,,,,
,,,,,,,,,,,,,,a,1,0.635985,space,0.58022,0,113,113,182,1,0_targ_16_dist_green/trial8.png,,,0,16,greenverival,a,72,21,female,2021-02-22_17h41.53.706,exp11,2020.2.6,Win32,60,,,,,,,,,,,
,,,,,,,,,,,,,,a,1,0.917395,space,0.63953,0,114,114,112,1,0_targ_1_dist_green/trial13.png,,,0,1,greenverival,a,72,21,female,2021-02-22_17h41.53.706,exp11,2020.2.6,Win32,60,,,,,,,,,,,
,,,,,,,,,,,,,,p,1,0.49681,space,0.4179,0,115,115,19,1,0_dist_green/trial20.png,,,1,0,greenverival,p,72,21,female,2021-02-22_17h41.53.706,exp11,2020.2.6,Win32,60,,,,,,,,,,,
,,,,,,,,,,,,,,a,1,0.998645,space,0.411675,0,116,116,186,1,0_targ_16_dist_green/trial12.png,,,0,16,greenverival,a,72,21,female,2021-02-22_17h41.53.706,exp11,2020.2.6,Win32,60,,,,,,,,,,,
,,,,,,,,,,,,,,a,1,0.572605,space,0.43846,0,117,117,148,1,0_targ_4_dist_green/trial24.png,,,0,4,greenverival,a,72,21,female,2021-02-22_17h41.53.706,exp11,2020.2.6,Win32,60,,,,,,,,,,,
,,,,,,,,,,,,,,p,1,0.734795,space,0.422155,0,118,118,40,1,3_dist_green/trial16.png,,,1,3,greenverival,p,72,21,female,2021-02-22_17h41.53.706,exp11,2020.2.6,Win32,60,,,,,,,,,,,
,,,,,,,,,,,,,,a,1,0.73827,space,0.356105,0,119,119,178,1,0_targ_16_dist_green/trial4.png,,,0,16,greenverival,a,72,21,female,2021-02-22_17h41.53.706,exp11,2020.2.6,Win32,60,,,,,,,,,,,
,,,,,,,,,,,,,,p,1,0.4362,space,0.384985,0,120,120,47,1,3_dist_green/trial23.png,,,1,3,greenverival,p,72,21,female,2021-02-22_17h41.53.706,exp11,2020.2.6,Win32,60,,,,,,,,,,,
,,,,,,,,,,,,,,a,1,1.260385,space,0.341315,0,121,121,114,1,0_targ_1_dist_green/trial15.png,,,0,1,greenverival,a,72,21,female,2021-02-22_17h41.53.706,exp11,2020.2.6,Win32,60,,,,,,,,,,,
,,,,,,,,,,,,,,p,1,0.6734,space,0.38558,0,122,122,88,1,15_dist_green/trial14.png,,,1,15,greenverival,p,72,21,female,2021-02-22_17h41.53.706,exp11,2020.2.6,Win32,60,,,,,,,,,,,
,,,,,,,,,,,,,,a,1,0.6983,space,0.347265,0,123,123,195,1,0_targ_16_dist_green/trial21.png,,,0,16,greenverival,a,72,21,female,2021-02-22_17h41.53.706,exp11,2020.2.6,Win32,60,,,,,,,,,,,
,,,,,,,,,,,,,,p,1,0.603645,space,0.374635,0,124,124,64,1,9_dist_green/trial15.png,,,1,9,greenverival,p,72,21,female,2021-02-22_17h41.53.706,exp11,2020.2.6,Win32,60,,,,,,,,,,,
,,,,,,,,,,,,,,p,1,0.57325,space,0.3799,0,125,125,67,1,9_dist_green/trial18.png,,,1,9,greenverival,p,72,21,female,2021-02-22_17h41.53.706,exp11,2020.2.6,Win32,60,,,,,,,,,,,
,,,,,,,,,,,,,,p,1,0.626075,space,0.417885,0,126,126,42,1,3_dist_green/trial18.png,,,1,3,greenverival,p,72,21,female,2021-02-22_17h41.53.706,exp11,2020.2.6,Win32,60,,,,,,,,,,,
,,,,,,,,,,,,,,p,1,0.498055,space,0.389705,0,127,127,33,1,3_dist_green/trial9.png,,,1,3,greenverival,p,72,21,female,2021-02-22_17h41.53.706,exp11,2020.2.6,Win32,60,,,,,,,,,,,
,,,,,,,,,,,,,,p,1,0.57854,space,0.42432,0,128,128,72,1,9_dist_green/trial23.png,,,1,9,greenverival,p,72,21,female,2021-02-22_17h41.53.706,exp11,2020.2.6,Win32,60,,,,,,,,,,,
,,,,,,,,,,,,,,a,1,0.542045,space,0.391065,0,129,129,128,1,0_targ_4_dist_green/trial4.png,,,0,4,greenverival,a,72,21,female,2021-02-22_17h41.53.706,exp11,2020.2.6,Win32,60,,,,,,,,,,,
,,,,,,,,,,,,,,p,1,0.885265,space,0.406175,0,130,130,25,1,3_dist_green/trial1.png,,,1,3,greenverival,p,72,21,female,2021-02-22_17h41.53.706,exp11,2020.2.6,Win32,60,,,,,,,,,,,
,,,,,,,,,,,,,,a,1,0.66069,space,0.626135,0,131,131,102,1,0_targ_1_dist_green/trial3.png,,,0,1,greenverival,a,72,21,female,2021-02-22_17h41.53.706,exp11,2020.2.6,Win32,60,,,,,,,,,,,
,,,,,,,,,,,,,,p,1,0.480315,space,0.44479,0,132,132,66,1,9_dist_green/trial17.png,,,1,9,greenverival,p,72,21,female,2021-02-22_17h41.53.706,exp11,2020.2.6,Win32,60,,,,,,,,,,,
,,,,,,,,,,,,,,p,1,0.648215,space,0.429155,0,133,133,84,1,15_dist_green/trial10.png,,,1,15,greenverival,p,72,21,female,2021-02-22_17h41.53.706,exp11,2020.2.6,Win32,60,,,,,,,,,,,
,,,,,,,,,,,,,,a,1,0.639815,space,0.40795,0,134,134,181,1,0_targ_16_dist_green/trial7.png,,,0,16,greenverival,a,72,21,female,2021-02-22_17h41.53.706,exp11,2020.2.6,Win32,60,,,,,,,,,,,
,,,,,,,,,,,,,,p,1,0.68891,space,0.367775,0,135,135,43,1,3_dist_green/trial19.png,,,1,3,greenverival,p,72,21,female,2021-02-22_17h41.53.706,exp11,2020.2.6,Win32,60,,,,,,,,,,,
,,,,,,,,,,,,,,a,1,0.56058,space,0.3962,0,136,136,108,1,0_targ_1_dist_green/trial9.png,,,0,1,greenverival,a,72,21,female,2021-02-22_17h41.53.706,exp11,2020.2.6,Win32,60,,,,,,,,,,,
,,,,,,,,,,,,,,a,1,0.80794,space,0.397005,0,137,137,164,1,0_targ_10_dist_green/trial15.png,,,0,10,greenverival,a,72,21,female,2021-02-22_17h41.53.706,exp11,2020.2.6,Win32,60,,,,,,,,,,,
,,,,,,,,,,,,,,p,1,0.729485,space,0.36881,0,138,138,76,1,15_dist_green/trial2.png,,,1,15,greenverival,p,72,21,female,2021-02-22_17h41.53.706,exp11,2020.2.6,Win32,60,,,,,,,,,,,
,,,,,,,,,,,,,,a,1,0.51932,space,0.425,0,139,139,131,1,0_targ_4_dist_green/trial7.png,,,0,4,greenverival,a,72,21,female,2021-02-22_17h41.53.706,exp11,2020.2.6,Win32,60,,,,,,,,,,,
,,,,,,,,,,,,,,p,1,0.55493,space,0.56219,0,140,140,6,1,0_dist_green/trial7.png,,,1,0,greenverival,p,72,21,female,2021-02-22_17h41.53.706,exp11,2020.2.6,Win32,60,,,,,,,,,,,
,,,,,,,,,,,,,,a,0,0.42127,space,2.79123,0,141,141,95,1,15_dist_green/trial21.png,,,1,15,greenverival,p,72,21,female,2021-02-22_17h41.53.706,exp11,2020.2.6,Win32,60,,,,,,,,,,,
,,,,,,,,,,,,,,p,1,0.602665,space,0.3404,0,142,142,20,1,0_dist_green/trial21.png,,,1,0,greenverival,p,72,21,female,2021-02-22_17h41.53.706,exp11,2020.2.6,Win32,60,,,,,,,,,,,
,,,,,,,,,,,,,,a,1,1.034495,space,0.380325,0,143,143,198,1,0_targ_16_dist_green/trial24.png,,,0,16,greenverival,a,72,21,female,2021-02-22_17h41.53.706,exp11,2020.2.6,Win32,60,,,,,,,,,,,
,,,,,,,,,,,,,,p,1,0.52017,space,0.39027,0,144,144,0,1,0_dist_green/trial1.png,,,1,0,greenverival,p,72,21,female,2021-02-22_17h41.53.706,exp11,2020.2.6,Win32,60,,,,,,,,,,,
,,,,,,,,,,,,,,p,1,0.66341,space,0.37782,0,145,145,65,1,9_dist_green/trial16.png,,,1,9,greenverival,p,72,21,female,2021-02-22_17h41.53.706,exp11,2020.2.6,Win32,60,,,,,,,,,,,
,,,,,,,,,,,,,,a,1,0.596095,space,0.356765,0,146,146,126,1,0_targ_4_dist_green/trial2.png,,,0,4,greenverival,a,72,21,female,2021-02-22_17h41.53.706,exp11,2020.2.6,Win32,60,,,,,,,,,,,
,,,,,,,,,,,,,,p,1,0.44127,space,0.401335,0,147,147,44,1,3_dist_green/trial20.png,,,1,3,greenverival,p,72,21,female,2021-02-22_17h41.53.706,exp11,2020.2.6,Win32,60,,,,,,,,,,,
,,,,,,,,,,,,,,a,1,0.51857,space,0.414565,0,148,148,104,1,0_targ_1_dist_green/trial5.png,,,0,1,greenverival,a,72,21,female,2021-02-22_17h41.53.706,exp11,2020.2.6,Win32,60,,,,,,,,,,,
,,,,,,,,,,,,,,p,1,0.72668,space,0.368745,0,149,149,23,1,0_dist_green/trial24.png,,,1,0,greenverival,p,72,21,female,2021-02-22_17h41.53.706,exp11,2020.2.6,Win32,60,,,,,,,,,,,
,,,,,,,,,,,,,,a,1,1.197065,space,0.47306,0,150,150,154,1,0_targ_10_dist_green/trial5.png,,,0,10,greenverival,a,72,21,female,2021-02-22_17h41.53.706,exp11,2020.2.6,Win32,60,,,,,,,,,,,
,,,,,,,,,,,,,,a,1,0.732585,space,0.39336,0,151,151,111,1,0_targ_1_dist_green/trial12.png,,,0,1,greenverival,a,72,21,female,2021-02-22_17h41.53.706,exp11,2020.2.6,Win32,60,,,,,,,,,,,
,,,,,,,,,,,,,,p,1,0.515735,space,0.393955,0,152,152,36,1,3_dist_green/trial12.png,,,1,3,greenverival,p,72,21,female,2021-02-22_17h41.53.706,exp11,2020.2.6,Win32,60,,,,,,,,,,,
,,,,,,,,,,,,,,a,1,0.524095,space,0.45625,0,153,153,197,1,0_targ_16_dist_green/trial23.png,,,0,16,greenverival,a,72,21,female,2021-02-22_17h41.53.706,exp11,2020.2.6,Win32,60,,,,,,,,,,,
,,,,,,,,,,,,,,a,1,0.65071,space,0.396975,0,154,154,171,1,0_targ_10_dist_green/trial22.png,,,0,10,greenverival,a,72,21,female,2021-02-22_17h41.53.706,exp11,2020.2.6,Win32,60,,,,,,,,,,,
,,,,,,,,,,,,,,a,1,0.597435,space,0.39506,0,155,155,169,1,0_targ_10_dist_green/trial20.png,,,0,10,greenverival,a,72,21,female,2021-02-22_17h41.53.706,exp11,2020.2.6,Win32,60,,,,,,,,,,,
,,,,,,,,,,,,,,a,1,0.46013,space,0.398115,0,156,156,115,1,0_targ_1_dist_green/trial6.png,,,0,1,greenverival,a,72,21,female,2021-02-22_17h41.53.706,exp11,2020.2.6,Win32,60,,,,,,,,,,,
,,,,,,,,,,,,,,a,1,0.413005,space,0.46821,0,157,157,107,1,0_targ_1_dist_green/trial8.png,,,0,1,greenverival,a,72,21,female,2021-02-22_17h41.53.706,exp11,2020.2.6,Win32,60,,,,,,,,,,,
,,,,,,,,,,,,,,p,1,0.658085,space,0.431505,0,158,158,62,1,9_dist_green/trial13.png,,,1,9,greenverival,p,72,21,female,2021-02-22_17h41.53.706,exp11,2020.2.6,Win32,60,,,,,,,,,,,
,,,,,,,,,,,,,,a,1,0.667885,space,0.77259,0,159,159,183,1,0_targ_16_dist_green/trial9.png,,,0,16,greenverival,a,72,21,female,2021-02-22_17h41.53.706,exp11,2020.2.6,Win32,60,,,,,,,,,,,
,,,,,,,,,,,,,,p,1,0.57833,space,0.38877,0,160,160,86,1,15_dist_green/trial12.png,,,1,15,greenverival,p,72,21,female,2021-02-22_17h41.53.706,exp11,2020.2.6,Win32,60,,,,,,,,,,,
,,,,,,,,,,,,,,a,0,0.631505,space,2.72174,0,161,161,77,1,15_dist_green/trial3.png,,,1,15,greenverival,p,72,21,female,2021-02-22_17h41.53.706,exp11,2020.2.6,Win32,60,,,,,,,,,,,
,,,,,,,,,,,,,,p,1,0.62861,space,0.42408,0,162,162,41,1,3_dist_green/trial17.png,,,1,3,greenverival,p,72,21,female,2021-02-22_17h41.53.706,exp11,2020.2.6,Win32,60,,,,,,,,,,,
,,,,,,,,,,,,,,a,1,0.514155,space,0.40787,0,163,163,156,1,0_targ_10_dist_green/trial7.png,,,0,10,greenverival,a,72,21,female,2021-02-22_17h41.53.706,exp11,2020.2.6,Win32,60,,,,,,,,,,,
,,,,,,,,,,,,,,p,1,0.646675,space,0.38511,0,164,164,34,1,3_dist_green/trial10.png,,,1,3,greenverival,p,72,21,female,2021-02-22_17h41.53.706,exp11,2020.2.6,Win32,60,,,,,,,,,,,
,,,,,,,,,,,,,,a,1,0.464095,space,0.378595,0,165,165,194,1,0_targ_16_dist_green/trial20.png,,,0,16,greenverival,a,72,21,female,2021-02-22_17h41.53.706,exp11,2020.2.6,Win32,60,,,,,,,,,,,
,,,,,,,,,,,,,,p,0,0.473655,space,2.560855,0,166,166,146,1,0_targ_4_dist_green/trial22.png,,,0,4,greenverival,a,72,21,female,2021-02-22_17h41.53.706,exp11,2020.2.6,Win32,60,,,,,,,,,,,
,,,,,,,,,,,,,,a,1,0.6854,space,0.349325,0,167,167,160,1,0_targ_10_dist_green/trial11.png,,,0,10,greenverival,a,72,21,female,2021-02-22_17h41.53.706,exp11,2020.2.6,Win32,60,,,,,,,,,,,
,,,,,,,,,,,,,,p,1,0.61236,space,0.409205,0,168,168,46,1,3_dist_green/trial22.png,,,1,3,greenverival,p,72,21,female,2021-02-22_17h41.53.706,exp11,2020.2.6,Win32,60,,,,,,,,,,,
,,,,,,,,,,,,,,a,1,0.51229,space,0.393885,0,169,169,174,1,0_targ_10_dist_green/trial25.png,,,0,10,greenverival,a,72,21,female,2021-02-22_17h41.53.706,exp11,2020.2.6,Win32,60,,,,,,,,,,,
,,,,,,,,,,,,,,p,1,0.57208,space,0.35843,0,170,170,12,1,0_dist_green/trial13.png,,,1,0,greenverival,p,72,21,female,2021-02-22_17h41.53.706,exp11,2020.2.6,Win32,60,,,,,,,,,,,
,,,,,,,,,,,,,,a,1,0.74724,space,0.447035,0,171,171,188,1,0_targ_16_dist_green/trial14.png,,,0,16,greenverival,a,72,21,female,2021-02-22_17h41.53.706,exp11,2020.2.6,Win32,60,,,,,,,,,,,
,,,,,,,,,,,,,,p,1,0.55379,space,0.421295,0,172,172,49,1,3_dist_green/trial25.png,,,1,3,greenverival,p,72,21,female,2021-02-22_17h41.53.706,exp11,2020.2.6,Win32,60,,,,,,,,,,,
,,,,,,,,,,,,,,a,1,0.54818,space,0.469975,0,173,173,138,1,0_targ_4_dist_green/trial14.png,,,0,4,greenverival,a,72,21,female,2021-02-22_17h41.53.706,exp11,2020.2.6,Win32,60,,,,,,,,,,,
,,,,,,,,,,,,,,a,1,0.90937,space,0.40693,0,174,174,117,1,0_targ_1_dist_green/trial18.png,,,0,1,greenverival,a,72,21,female,2021-02-22_17h41.53.706,exp11,2020.2.6,Win32,60,,,,,,,,,,,
,,,,,,,,,,,,,,p,1,0.571165,space,0.425145,0,175,175,37,1,3_dist_green/trial13.png,,,1,3,greenverival,p,72,21,female,2021-02-22_17h41.53.706,exp11,2020.2.6,Win32,60,,,,,,,,,,,
,,,,,,,,,,,,,,a,1,0.56373,space,0.468425,0,176,176,113,1,0_targ_1_dist_green/trial14.png,,,0,1,greenverival,a,72,21,female,2021-02-22_17h41.53.706,exp11,2020.2.6,Win32,60,,,,,,,,,,,
,,,,,,,,,,,,,,p,1,0.87763,space,0.402285,0,177,177,99,1,15_dist_green/trial25.png,,,1,15,greenverival,p,72,21,female,2021-02-22_17h41.53.706,exp11,2020.2.6,Win32,60,,,,,,,,,,,
,,,,,,,,,,,,,,p,1,0.71088,space,0.41764,0,178,178,60,1,9_dist_green/trial11.png,,,1,9,greenverival,p,72,21,female,2021-02-22_17h41.53.706,exp11,2020.2.6,Win32,60,,,,,,,,,,,
,,,,,,,,,,,,,,p,1,0.80493,space,0.40945,0,179,179,50,1,9_dist_green/trial1.png,,,1,9,greenverival,p,72,21,female,2021-02-22_17h41.53.706,exp11,2020.2.6,Win32,60,,,,,,,,,,,
,,,,,,,,,,,,,,p,1,0.867295,space,0.401035,0,180,180,79,1,15_dist_green/trial5.png,,,1,15,greenverival,p,72,21,female,2021-02-22_17h41.53.706,exp11,2020.2.6,Win32,60,,,,,,,,,,,
,,,,,,,,,,,,,,a,1,0.60383,space,0.41759,0,181,181,135,1,0_targ_4_dist_green/trial11.png,,,0,4,greenverival,a,72,21,female,2021-02-22_17h41.53.706,exp11,2020.2.6,Win32,60,,,,,,,,,,,
,,,,,,,,,,,,,,a,1,0.58053,space,0.41794,0,182,182,172,1,0_targ_10_dist_green/trial23.png,,,0,10,greenverival,a,72,21,female,2021-02-22_17h41.53.706,exp11,2020.2.6,Win32,60,,,,,,,,,,,
,,,,,,,,,,,,,,p,1,0.708325,space,0.3808,0,183,183,83,1,15_dist_green/trial9.png,,,1,15,greenverival,p,72,21,female,2021-02-22_17h41.53.706,exp11,2020.2.6,Win32,60,,,,,,,,,,,
,,,,,,,,,,,,,,p,1,0.70558,space,0.418075,0,184,184,51,1,9_dist_green/trial2.png,,,1,9,greenverival,p,72,21,female,2021-02-22_17h41.53.706,exp11,2020.2.6,Win32,60,,,,,,,,,,,
,,,,,,,,,,,,,,a,1,0.71757,space,0.38104,0,185,185,100,1,0_targ_1_dist_green/trial1.png,,,0,1,greenverival,a,72,21,female,2021-02-22_17h41.53.706,exp11,2020.2.6,Win32,60,,,,,,,,,,,
,,,,,,,,,,,,,,p,1,0.573915,space,0.35592,0,186,186,13,1,0_dist_green/trial14.png,,,1,0,greenverival,p,72,21,female,2021-02-22_17h41.53.706,exp11,2020.2.6,Win32,60,,,,,,,,,,,
,,,,,,,,,,,,,,a,1,0.430335,space,1.069095,0,187,187,101,1,0_targ_1_dist_green/trial2.png,,,0,1,greenverival,a,72,21,female,2021-02-22_17h41.53.706,exp11,2020.2.6,Win32,60,,,,,,,,,,,
,,,,,,,,,,,,,,p,1,0.65252,space,0.29074,0,188,188,17,1,0_dist_green/trial18.png,,,1,0,greenverival,p,72,21,female,2021-02-22_17h41.53.706,exp11,2020.2.6,Win32,60,,,,,,,,,,,
,,,,,,,,,,,,,,p,1,0.56346,space,0.390945,0,189,189,3,1,0_dist_green/trial4.png,,,1,0,greenverival,p,72,21,female,2021-02-22_17h41.53.706,exp11,2020.2.6,Win32,60,,,,,,,,,,,
,,,,,,,,,,,,,,a,1,1.01394,space,0.35565,0,190,190,187,1,0_targ_16_dist_green/trial13.png,,,0,16,greenverival,a,72,21,female,2021-02-22_17h41.53.706,exp11,2020.2.6,Win32,60,,,,,,,,,,,
,,,,,,,,,,,,,,a,1,0.64237,space,0.334125,0,191,191,106,1,0_targ_1_dist_green/trial7.png,,,0,1,greenverival,a,72,21,female,2021-02-22_17h41.53.706,exp11,2020.2.6,Win32,60,,,,,,,,,,,
,,,,,,,,,,,,,,a,0,0.488355,space,3.30155,0,192,192,4,1,0_dist_green/trial5.png,,,1,0,greenverival,p,72,21,female,2021-02-22_17h41.53.706,exp11,2020.2.6,Win32,60,,,,,,,,,,,
,,,,,,,,,,,,,,a,1,0.744765,space,0.554755,0,193,193,180,1,0_targ_16_dist_green/trial6.png,,,0,16,greenverival,a,72,21,female,2021-02-22_17h41.53.706,exp11,2020.2.6,Win32,60,,,,,,,,,,,
,,,,,,,,,,,,,,p,1,0.528015,space,0.442205,0,194,194,69,1,9_dist_green/trial20.png,,,1,9,greenverival,p,72,21,female,2021-02-22_17h41.53.706,exp11,2020.2.6,Win32,60,,,,,,,,,,,
,,,,,,,,,,,,,,p,1,0.56772,space,0.4618,0,195,195,92,1,15_dist_green/trial18.png,,,1,15,greenverival,p,72,21,female,2021-02-22_17h41.53.706,exp11,2020.2.6,Win32,60,,,,,,,,,,,
,,,,,,,,,,,,,,a,1,0.61735,space,0.43728,0,196,196,167,1,0_targ_10_dist_green/trial18.png,,,0,10,greenverival,a,72,21,female,2021-02-22_17h41.53.706,exp11,2020.2.6,Win32,60,,,,,,,,,,,
,,,,,,,,,,,,,,a,1,0.659765,space,0.47724,0,197,197,191,1,0_targ_16_dist_green/trial17.png,,,0,16,greenverival,a,72,21,female,2021-02-22_17h41.53.706,exp11,2020.2.6,Win32,60,,,,,,,,,,,
,,,,,,,,,,,,,,a,1,0.471745,space,0.43468,0,198,198,103,1,0_targ_1_dist_green/trial4.png,,,0,1,greenverival,a,72,21,female,2021-02-22_17h41.53.706,exp11,2020.2.6,Win32,60,,,,,,,,,,,
,,,,,,,,,,,,,,a,1,0.65771,space,0.456615,0,199,199,196,1,0_targ_16_dist_green/trial22.png,,,0,16,greenverival,a,72,21,female,2021-02-22_17h41.53.706,exp11,2020.2.6,Win32,60,,,,,,,,,,,
,,,,,,,,,,,,,,,,,,,,,,,,,,,,,,,72,21,female,2021-02-22_17h41.53.706,exp11,2020.2.6,Win32,60,0,0,0,0,1,conGreen.xlsx,green vertical,Look for green vertical bar (target) and indicate if it is present or absent in the array. If green vertical target is present press 'p' and if absent press 'a'. Press SPACE to start.,,,
,,,,,,,,,,space,8.381315,space,1.90474,p,0,0.73404,space,3.406265,0,0,0,193,1,0_targ_16_dist_red/trial19.png,,,0,16,redHorizontal,a,72,21,female,2021-02-22_17h41.53.706,exp11,2020.2.6,Win32,60,,,,,,,,,,,
,,,,,,,,,,,,,,a,1,0.971005,space,0.505375,0,1,1,162,1,0_targ_10_dist_red/trial13.png,,,0,10,redHorizontal,a,72,21,female,2021-02-22_17h41.53.706,exp11,2020.2.6,Win32,60,,,,,,,,,,,
,,,,,,,,,,,,,,a,1,0.50432,space,0.477185,0,2,2,171,1,0_targ_10_dist_red/trial22.png,,,0,10,redHorizontal,a,72,21,female,2021-02-22_17h41.53.706,exp11,2020.2.6,Win32,60,,,,,,,,,,,
,,,,,,,,,,,,,,a,0,0.581355,space,1.091575,0,3,3,57,1,9_dist_red/trial8.png,,,1,9,redHorizontal,p,72,21,female,2021-02-22_17h41.53.706,exp11,2020.2.6,Win32,60,,,,,,,,,,,
,,,,,,,,,,,,,,p,0,1.490465,space,1.51289,0,4,4,154,1,0_targ_10_dist_red/trial5.png,,,0,10,redHorizontal,a,72,21,female,2021-02-22_17h41.53.706,exp11,2020.2.6,Win32,60,,,,,,,,,,,
,,,,,,,,,,,,,,a,1,0.82005,space,0.440505,0,5,5,109,1,0_targ_1_dist_red/trial10.png,,,0,1,redHorizontal,a,72,21,female,2021-02-22_17h41.53.706,exp11,2020.2.6,Win32,60,,,,,,,,,,,
,,,,,,,,,,,,,,a,1,0.79928,space,0.456665,0,6,6,159,1,0_targ_10_dist_red/trial10.png,,,0,10,redHorizontal,a,72,21,female,2021-02-22_17h41.53.706,exp11,2020.2.6,Win32,60,,,,,,,,,,,
,,,,,,,,,,,,,,a,1,0.645955,space,0.447965,0,7,7,191,1,0_targ_16_dist_red/trial17.png,,,0,16,redHorizontal,a,72,21,female,2021-02-22_17h41.53.706,exp11,2020.2.6,Win32,60,,,,,,,,,,,
,,,,,,,,,,,,,,a,1,0.621125,space,0.49622,0,8,8,182,1,0_targ_16_dist_red/trial8.png,,,0,16,redHorizontal,a,72,21,female,2021-02-22_17h41.53.706,exp11,2020.2.6,Win32,60,,,,,,,,,,,
,,,,,,,,,,,,,,a,1,0.6284,space,0.46313,0,9,9,137,1,0_targ_4_dist_red/trial13.png,,,0,4,redHorizontal,a,72,21,female,2021-02-22_17h41.53.706,exp11,2020.2.6,Win32,60,,,,,,,,,,,
,,,,,,,,,,,,,,p,1,0.53839,space,0.513175,0,10,10,67,1,9_dist_red/trial18.png,,,1,9,redHorizontal,p,72,21,female,2021-02-22_17h41.53.706,exp11,2020.2.6,Win32,60,,,,,,,,,,,
,,,,,,,,,,,,,,a,0,0.501545,space,2.51313,0,11,11,60,1,9_dist_red/trial11.png,,,1,9,redHorizontal,p,72,21,female,2021-02-22_17h41.53.706,exp11,2020.2.6,Win32,60,,,,,,,,,,,
,,,,,,,,,,,,,,a,1,0.83656,space,1.300905,0,12,12,187,1,0_targ_16_dist_red/trial13.png,,,0,16,redHorizontal,a,72,21,female,2021-02-22_17h41.53.706,exp11,2020.2.6,Win32,60,,,,,,,,,,,
,,,,,,,,,,,,,,a,1,0.778095,space,0.59756,0,13,13,152,1,0_targ_10_dist_red/trial3.png,,,0,10,redHorizontal,a,72,21,female,2021-02-22_17h41.53.706,exp11,2020.2.6,Win32,60,,,,,,,,,,,
,,,,,,,,,,,,,,p,1,0.6049,space,0.634275,0,14,14,31,1,3_dist_red/trial7.png,,,1,3,redHorizontal,p,72,21,female,2021-02-22_17h41.53.706,exp11,2020.2.6,Win32,60,,,,,,,,,,,
,,,,,,,,,,,,,,a,1,0.753925,space,0.752615,0,15,15,117,1,0_targ_1_dist_red/trial18.png,,,0,1,redHorizontal,a,72,21,female,2021-02-22_17h41.53.706,exp11,2020.2.6,Win32,60,,,,,,,,,,,
,,,,,,,,,,,,,,p,1,0.518,space,0.41238,0,16,16,2,1,0_dist_red/trial3.png,,,1,0,redHorizontal,p,72,21,female,2021-02-22_17h41.53.706,exp11,2020.2.6,Win32,60,,,,,,,,,,,
,,,,,,,,,,,,,,a,1,0.780815,space,0.63789,0,17,17,157,1,0_targ_10_dist_red/trial8.png,,,0,10,redHorizontal,a,72,21,female,2021-02-22_17h41.53.706,exp11,2020.2.6,Win32,60,,,,,,,,,,,
,,,,,,,,,,,,,,p,1,0.86487,space,0.43439,0,18,18,59,1,9_dist_red/trial10.png,,,1,9,redHorizontal,p,72,21,female,2021-02-22_17h41.53.706,exp11,2020.2.6,Win32,60,,,,,,,,,,,
,,,,,,,,,,,,,,p,1,0.671285,space,0.573215,0,19,19,78,1,15_dist_red/trial4.png,,,1,15,redHorizontal,p,72,21,female,2021-02-22_17h41.53.706,exp11,2020.2.6,Win32,60,,,,,,,,,,,
,,,,,,,,,,,,,,a,1,0.799525,space,0.453585,0,20,20,184,1,0_targ_16_dist_red/trial10.png,,,0,16,redHorizontal,a,72,21,female,2021-02-22_17h41.53.706,exp11,2020.2.6,Win32,60,,,,,,,,,,,
,,,,,,,,,,,,,,a,0,0.706545,space,2.430785,0,21,21,75,1,15_dist_red/trial1.png,,,1,15,redHorizontal,p,72,21,female,2021-02-22_17h41.53.706,exp11,2020.2.6,Win32,60,,,,,,,,,,,
,,,,,,,,,,,,,,p,1,0.960435,space,0.53935,0,22,22,72,1,9_dist_red/trial23.png,,,1,9,redHorizontal,p,72,21,female,2021-02-22_17h41.53.706,exp11,2020.2.6,Win32,60,,,,,,,,,,,
,,,,,,,,,,,,,,p,1,0.86389,space,0.505085,0,23,23,15,1,0_dist_red/trial16.png,,,1,0,redHorizontal,p,72,21,female,2021-02-22_17h41.53.706,exp11,2020.2.6,Win32,60,,,,,,,,,,,
,,,,,,,,,,,,,,a,1,0.71603,space,0.431975,0,24,24,105,1,0_targ_1_dist_red/trial6.png,,,0,1,redHorizontal,a,72,21,female,2021-02-22_17h41.53.706,exp11,2020.2.6,Win32,60,,,,,,,,,,,
,,,,,,,,,,,,,,a,1,0.66569,space,0.467325,0,25,25,166,1,0_targ_10_dist_red/trial17.png,,,0,10,redHorizontal,a,72,21,female,2021-02-22_17h41.53.706,exp11,2020.2.6,Win32,60,,,,,,,,,,,
,,,,,,,,,,,,,,p,1,0.662615,space,0.470915,0,26,26,66,1,9_dist_red/trial17.png,,,1,9,redHorizontal,p,72,21,female,2021-02-22_17h41.53.706,exp11,2020.2.6,Win32,60,,,,,,,,,,,
,,,,,,,,,,,,,,a,1,0.60855,space,0.46806,0,27,27,173,1,0_targ_10_dist_red/trial24.png,,,0,10,redHorizontal,a,72,21,female,2021-02-22_17h41.53.706,exp11,2020.2.6,Win32,60,,,,,,,,,,,
,,,,,,,,,,,,,,p,1,0.697805,space,0.519895,0,28,28,83,1,15_dist_red/trial9.png,,,1,15,redHorizontal,p,72,21,female,2021-02-22_17h41.53.706,exp11,2020.2.6,Win32,60,,,,,,,,,,,
,,,,,,,,,,,,,,a,1,0.556825,space,0.545945,0,29,29,131,1,0_targ_4_dist_red/trial7.png,,,0,4,redHorizontal,a,72,21,female,2021-02-22_17h41.53.706,exp11,2020.2.6,Win32,60,,,,,,,,,,,
,,,,,,,,,,,,,,p,1,0.7274,space,0.485945,0,30,30,38,1,3_dist_red/trial14.png,,,1,3,redHorizontal,p,72,21,female,2021-02-22_17h41.53.706,exp11,2020.2.6,Win32,60,,,,,,,,,,,
,,,,,,,,,,,,,,a,0,0.52777,space,1.591155,0,31,31,71,1,9_dist_red/trial22.png,,,1,9,redHorizontal,p,72,21,female,2021-02-22_17h41.53.706,exp11,2020.2.6,Win32,60,,,,,,,,,,,
,,,,,,,,,,,,,,p,1,0.74989,space,0.468665,0,32,32,84,1,15_dist_red/trial10.png,,,1,15,redHorizontal,p,72,21,female,2021-02-22_17h41.53.706,exp11,2020.2.6,Win32,60,,,,,,,,,,,
,,,,,,,,,,,,,,a,1,0.99549,space,0.450625,0,33,33,121,1,0_targ_1_dist_red/trial22.png,,,0,1,redHorizontal,a,72,21,female,2021-02-22_17h41.53.706,exp11,2020.2.6,Win32,60,,,,,,,,,,,
,,,,,,,,,,,,,,a,1,0.86484,space,1.03762,0,34,34,163,1,0_targ_10_dist_red/trial14.png,,,0,10,redHorizontal,a,72,21,female,2021-02-22_17h41.53.706,exp11,2020.2.6,Win32,60,,,,,,,,,,,
,,,,,,,,,,,,,,a,1,0.612965,space,0.414845,0,35,35,108,1,0_targ_1_dist_red/trial9.png,,,0,1,redHorizontal,a,72,21,female,2021-02-22_17h41.53.706,exp11,2020.2.6,Win32,60,,,,,,,,,,,
,,,,,,,,,,,,,,a,1,0.605775,space,0.51963,0,36,36,155,1,0_targ_10_dist_red/trial6.png,,,0,10,redHorizontal,a,72,21,female,2021-02-22_17h41.53.706,exp11,2020.2.6,Win32,60,,,,,,,,,,,
,,,,,,,,,,,,,,a,1,0.504935,space,0.44916,0,37,37,136,1,0_targ_4_dist_red/trial12.png,,,0,4,redHorizontal,a,72,21,female,2021-02-22_17h41.53.706,exp11,2020.2.6,Win32,60,,,,,,,,,,,
,,,,,,,,,,,,,,a,1,0.62243,space,0.432265,0,38,38,110,1,0_targ_1_dist_red/trial11.png,,,0,1,redHorizontal,a,72,21,female,2021-02-22_17h41.53.706,exp11,2020.2.6,Win32,60,,,,,,,,,,,
,,,,,,,,,,,,,,p,1,0.71793,space,0.404915,0,39,39,96,1,15_dist_red/trial22.png,,,1,15,redHorizontal,p,72,21,female,2021-02-22_17h41.53.706,exp11,2020.2.6,Win32,60,,,,,,,,,,,
,,,,,,,,,,,,,,a,1,0.639895,space,0.498235,0,40,40,141,1,0_targ_4_dist_red/trial17.png,,,0,4,redHorizontal,a,72,21,female,2021-02-22_17h41.53.706,exp11,2020.2.6,Win32,60,,,,,,,,,,,
,,,,,,,,,,,,,,a,1,0.70583,space,0.46789,0,41,41,189,1,0_targ_16_dist_red/trial15.png,,,0,16,redHorizontal,a,72,21,female,2021-02-22_17h41.53.706,exp11,2020.2.6,Win32,60,,,,,,,,,,,
,,,,,,,,,,,,,,a,0,0.627765,space,1.99452,0,42,42,90,1,15_dist_red/trial16.png,,,1,15,redHorizontal,p,72,21,female,2021-02-22_17h41.53.706,exp11,2020.2.6,Win32,60,,,,,,,,,,,
,,,,,,,,,,,,,,a,1,0.76388,space,0.41846,0,43,43,179,1,0_targ_16_dist_red/trial5.png,,,0,16,redHorizontal,a,72,21,female,2021-02-22_17h41.53.706,exp11,2020.2.6,Win32,60,,,,,,,,,,,
,,,,,,,,,,,,,,p,1,0.503665,space,0.51265,0,44,44,18,1,0_dist_red/trial19.png,,,1,0,redHorizontal,p,72,21,female,2021-02-22_17h41.53.706,exp11,2020.2.6,Win32,60,,,,,,,,,,,
,,,,,,,,,,,,,,a,1,1.033075,space,0.467535,0,45,45,119,1,0_targ_1_dist_red/trial20.png,,,0,1,redHorizontal,a,72,21,female,2021-02-22_17h41.53.706,exp11,2020.2.6,Win32,60,,,,,,,,,,,
,,,,,,,,,,,,,,a,1,1.113345,space,0.577,0,46,46,172,1,0_targ_10_dist_red/trial23.png,,,0,10,redHorizontal,a,72,21,female,2021-02-22_17h41.53.706,exp11,2020.2.6,Win32,60,,,,,,,,,,,
,,,,,,,,,,,,,,p,1,0.61435,space,0.46781,0,47,47,36,1,3_dist_red/trial12.png,,,1,3,redHorizontal,p,72,21,female,2021-02-22_17h41.53.706,exp11,2020.2.6,Win32,60,,,,,,,,,,,
,,,,,,,,,,,,,,p,1,0.868525,space,0.535065,0,48,48,89,1,15_dist_red/trial15.png,,,1,15,redHorizontal,p,72,21,female,2021-02-22_17h41.53.706,exp11,2020.2.6,Win32,60,,,,,,,,,,,
,,,,,,,,,,,,,,p,1,0.5247,space,0.475135,0,49,49,51,1,9_dist_red/trial2.png,,,1,9,redHorizontal,p,72,21,female,2021-02-22_17h41.53.706,exp11,2020.2.6,Win32,60,,,,,,,,,,,
,,,,,,,,,,,,,,a,1,0.66301,space,0.554175,0,50,50,199,1,0_targ_16_dist_red/trial25.png,,,0,16,redHorizontal,a,72,21,female,2021-02-22_17h41.53.706,exp11,2020.2.6,Win32,60,,,,,,,,,,,
,,,,,,,,,,,,,,p,1,0.999355,space,0.561795,0,51,51,28,1,3_dist_red/trial4.png,,,1,3,redHorizontal,p,72,21,female,2021-02-22_17h41.53.706,exp11,2020.2.6,Win32,60,,,,,,,,,,,
,,,,,,,,,,,,,,a,1,0.675075,space,0.55119,0,52,52,118,1,0_targ_1_dist_red/trial19.png,,,0,1,redHorizontal,a,72,21,female,2021-02-22_17h41.53.706,exp11,2020.2.6,Win32,60,,,,,,,,,,,
,,,,,,,,,,,,,,a,1,0.71069,space,0.535965,0,53,53,167,1,0_targ_10_dist_red/trial18.png,,,0,10,redHorizontal,a,72,21,female,2021-02-22_17h41.53.706,exp11,2020.2.6,Win32,60,,,,,,,,,,,
,,,,,,,,,,,,,,a,1,0.966375,space,0.458405,0,54,54,186,1,0_targ_16_dist_red/trial12.png,,,0,16,redHorizontal,a,72,21,female,2021-02-22_17h41.53.706,exp11,2020.2.6,Win32,60,,,,,,,,,,,
,,,,,,,,,,,,,,p,1,0.569975,space,0.426845,0,55,55,62,1,9_dist_red/trial13.png,,,1,9,redHorizontal,p,72,21,female,2021-02-22_17h41.53.706,exp11,2020.2.6,Win32,60,,,,,,,,,,,
,,,,,,,,,,,,,,p,1,0.59963,space,0.45288,0,56,56,24,1,0_dist_red/trial25.png,,,1,0,redHorizontal,p,72,21,female,2021-02-22_17h41.53.706,exp11,2020.2.6,Win32,60,,,,,,,,,,,
,,,,,,,,,,,,,,p,1,0.74885,space,0.474785,0,57,57,99,1,15_dist_red/trial25.png,,,1,15,redHorizontal,p,72,21,female,2021-02-22_17h41.53.706,exp11,2020.2.6,Win32,60,,,,,,,,,,,
,,,,,,,,,,,,,,p,1,0.66298,space,0.56234,0,58,58,77,1,15_dist_red/trial3.png,,,1,15,redHorizontal,p,72,21,female,2021-02-22_17h41.53.706,exp11,2020.2.6,Win32,60,,,,,,,,,,,
,,,,,,,,,,,,,,a,1,0.536855,space,0.563735,0,59,59,135,1,0_targ_4_dist_red/trial11.png,,,0,4,redHorizontal,a,72,21,female,2021-02-22_17h41.53.706,exp11,2020.2.6,Win32,60,,,,,,,,,,,
,,,,,,,,,,,,,,a,1,0.713825,space,0.46478,0,60,60,181,1,0_targ_16_dist_red/trial7.png,,,0,16,redHorizontal,a,72,21,female,2021-02-22_17h41.53.706,exp11,2020.2.6,Win32,60,,,,,,,,,,,
,,,,,,,,,,,,,,a,1,0.504205,space,0.491355,0,61,61,175,1,0_targ_16_dist_red/trial1.png,,,0,16,redHorizontal,a,72,21,female,2021-02-22_17h41.53.706,exp11,2020.2.6,Win32,60,,,,,,,,,,,
,,,,,,,,,,,,,,p,1,0.562555,space,0.43111,0,62,62,56,1,9_dist_red/trial7.png,,,1,9,redHorizontal,p,72,21,female,2021-02-22_17h41.53.706,exp11,2020.2.6,Win32,60,,,,,,,,,,,
,,,,,,,,,,,,,,p,1,0.54795,space,0.44348,0,63,63,39,1,3_dist_red/trial15.png,,,1,3,redHorizontal,p,72,21,female,2021-02-22_17h41.53.706,exp11,2020.2.6,Win32,60,,,,,,,,,,,
,,,,,,,,,,,,,,a,1,0.422225,space,0.74507,0,64,64,153,1,0_targ_10_dist_red/trial4.png,,,0,10,redHorizontal,a,72,21,female,2021-02-22_17h41.53.706,exp11,2020.2.6,Win32,60,,,,,,,,,,,
,,,,,,,,,,,,,,p,1,0.99812,space,0.479995,0,65,65,40,1,3_dist_red/trial16.png,,,1,3,redHorizontal,p,72,21,female,2021-02-22_17h41.53.706,exp11,2020.2.6,Win32,60,,,,,,,,,,,
,,,,,,,,,,,,,,p,1,0.54453,space,0.47566,0,66,66,65,1,9_dist_red/trial16.png,,,1,9,redHorizontal,p,72,21,female,2021-02-22_17h41.53.706,exp11,2020.2.6,Win32,60,,,,,,,,,,,
,,,,,,,,,,,,,,a,0,0.509155,space,1.386255,0,67,67,3,1,0_dist_red/trial4.png,,,1,0,redHorizontal,p,72,21,female,2021-02-22_17h41.53.706,exp11,2020.2.6,Win32,60,,,,,,,,,,,
,,,,,,,,,,,,,,a,1,0.789975,space,0.394045,0,68,68,190,1,0_targ_16_dist_red/trial16.png,,,0,16,redHorizontal,a,72,21,female,2021-02-22_17h41.53.706,exp11,2020.2.6,Win32,60,,,,,,,,,,,
,,,,,,,,,,,,,,a,1,0.74267,space,0.43607,0,69,69,124,1,0_targ_1_dist_red/trial25.png,,,0,1,redHorizontal,a,72,21,female,2021-02-22_17h41.53.706,exp11,2020.2.6,Win32,60,,,,,,,,,,,
,,,,,,,,,,,,,,a,1,0.622575,space,0.492165,0,70,70,101,1,0_targ_1_dist_red/trial2.png,,,0,1,redHorizontal,a,72,21,female,2021-02-22_17h41.53.706,exp11,2020.2.6,Win32,60,,,,,,,,,,,
,,,,,,,,,,,,,,a,1,0.43481,space,0.45712,0,71,71,103,1,0_targ_1_dist_red/trial4.png,,,0,1,redHorizontal,a,72,21,female,2021-02-22_17h41.53.706,exp11,2020.2.6,Win32,60,,,,,,,,,,,
,,,,,,,,,,,,,,p,1,0.951705,space,0.439625,0,72,72,95,1,15_dist_red/trial21.png,,,1,15,redHorizontal,p,72,21,female,2021-02-22_17h41.53.706,exp11,2020.2.6,Win32,60,,,,,,,,,,,
,,,,,,,,,,,,,,a,1,0.80227,space,0.44716,0,73,73,156,1,0_targ_10_dist_red/trial7.png,,,0,10,redHorizontal,a,72,21,female,2021-02-22_17h41.53.706,exp11,2020.2.6,Win32,60,,,,,,,,,,,
,,,,,,,,,,,,,,a,1,0.597495,space,0.47324,0,74,74,106,1,0_targ_1_dist_red/trial7.png,,,0,1,redHorizontal,a,72,21,female,2021-02-22_17h41.53.706,exp11,2020.2.6,Win32,60,,,,,,,,,,,
,,,,,,,,,,,,,,a,1,1.19362,space,0.42671,0,75,75,198,1,0_targ_16_dist_red/trial24.png,,,0,16,redHorizontal,a,72,21,female,2021-02-22_17h41.53.706,exp11,2020.2.6,Win32,60,,,,,,,,,,,
,,,,,,,,,,,,,,a,1,0.66179,space,0.55402,0,76,76,120,1,0_targ_1_dist_red/trial21.png,,,0,1,redHorizontal,a,72,21,female,2021-02-22_17h41.53.706,exp11,2020.2.6,Win32,60,,,,,,,,,,,
,,,,,,,,,,,,,,a,1,0.657565,space,0.553655,0,77,77,177,1,0_targ_16_dist_red/trial3.png,,,0,16,redHorizontal,a,72,21,female,2021-02-22_17h41.53.706,exp11,2020.2.6,Win32,60,,,,,,,,,,,
,,,,,,,,,,,,,,p,1,0.5113,space,0.501655,0,78,78,1,1,0_dist_red/trial2.png,,,1,0,redHorizontal,p,72,21,female,2021-02-22_17h41.53.706,exp11,2020.2.6,Win32,60,,,,,,,,,,,
,,,,,,,,,,,,,,a,1,0.611095,space,0.524355,0,79,79,185,1,0_targ_16_dist_red/trial11.png,,,0,16,redHorizontal,a,72,21,female,2021-02-22_17h41.53.706,exp11,2020.2.6,Win32,60,,,,,,,,,,,
,,,,,,,,,,,,,,p,1,0.51017,space,0.512835,0,80,80,45,1,3_dist_red/trial21.png,,,1,3,redHorizontal,p,72,21,female,2021-02-22_17h41.53.706,exp11,2020.2.6,Win32,60,,,,,,,,,,,
,,,,,,,,,,,,,,p,1,0.54251,space,0.52733,0,81,81,0,1,0_dist_red/trial1.png,,,1,0,redHorizontal,p,72,21,female,2021-02-22_17h41.53.706,exp11,2020.2.6,Win32,60,,,,,,,,,,,
,,,,,,,,,,,,,,p,1,0.805115,space,0.48092,0,82,82,85,1,15_dist_red/trial11.png,,,1,15,redHorizontal,p,72,21,female,2021-02-22_17h41.53.706,exp11,2020.2.6,Win32,60,,,,,,,,,,,
,,,,,,,,,,,,,,p,1,0.64204,space,0.463495,0,83,83,47,1,3_dist_red/trial23.png,,,1,3,redHorizontal,p,72,21,female,2021-02-22_17h41.53.706,exp11,2020.2.6,Win32,60,,,,,,,,,,,
,,,,,,,,,,,,,,a,1,0.61039,space,0.4887,0,84,84,148,1,0_targ_4_dist_red/trial24.png,,,0,4,redHorizontal,a,72,21,female,2021-02-22_17h41.53.706,exp11,2020.2.6,Win32,60,,,,,,,,,,,
,,,,,,,,,,,,,,a,1,1.23071,space,0.618445,0,85,85,195,1,0_targ_16_dist_red/trial21.png,,,0,16,redHorizontal,a,72,21,female,2021-02-22_17h41.53.706,exp11,2020.2.6,Win32,60,,,,,,,,,,,
,,,,,,,,,,,,,,p,1,0.836185,space,0.45121,0,86,86,98,1,15_dist_red/trial24.png,,,1,15,redHorizontal,p,72,21,female,2021-02-22_17h41.53.706,exp11,2020.2.6,Win32,60,,,,,,,,,,,
,,,,,,,,,,,,,,p,1,0.754815,space,0.442315,0,87,87,34,1,3_dist_red/trial10.png,,,1,3,redHorizontal,p,72,21,female,2021-02-22_17h41.53.706,exp11,2020.2.6,Win32,60,,,,,,,,,,,
,,,,,,,,,,,,,,p,1,0.559595,space,0.561995,0,88,88,5,1,0_dist_red/trial6.png,,,1,0,redHorizontal,p,72,21,female,2021-02-22_17h41.53.706,exp11,2020.2.6,Win32,60,,,,,,,,,,,
,,,,,,,,,,,,,,p,1,0.52981,space,0.49398,0,89,89,43,1,3_dist_red/trial19.png,,,1,3,redHorizontal,p,72,21,female,2021-02-22_17h41.53.706,exp11,2020.2.6,Win32,60,,,,,,,,,,,
,,,,,,,,,,,,,,a,1,0.603665,space,0.486785,0,90,90,178,1,0_targ_16_dist_red/trial4.png,,,0,16,redHorizontal,a,72,21,female,2021-02-22_17h41.53.706,exp11,2020.2.6,Win32,60,,,,,,,,,,,
,,,,,,,,,,,,,,p,1,0.759335,space,0.588535,0,91,91,49,1,3_dist_red/trial25.png,,,1,3,redHorizontal,p,72,21,female,2021-02-22_17h41.53.706,exp11,2020.2.6,Win32,60,,,,,,,,,,,
,,,,,,,,,,,,,,p,1,0.64117,space,0.55336,0,92,92,33,1,3_dist_red/trial9.png,,,1,3,redHorizontal,p,72,21,female,2021-02-22_17h41.53.706,exp11,2020.2.6,Win32,60,,,,,,,,,,,
,,,,,,,,,,,,,,p,1,0.54704,space,0.458775,0,93,93,46,1,3_dist_red/trial22.png,,,1,3,redHorizontal,p,72,21,female,2021-02-22_17h41.53.706,exp11,2020.2.6,Win32,60,,,,,,,,,,,
,,,,,,,,,,,,,,p,1,0.622155,space,0.51846,0,94,94,58,1,9_dist_red/trial9.png,,,1,9,redHorizontal,p,72,21,female,2021-02-22_17h41.53.706,exp11,2020.2.6,Win32,60,,,,,,,,,,,
,,,,,,,,,,,,,,p,1,0.57446,space,0.51718,0,95,95,53,1,9_dist_red/trial4.png,,,1,9,redHorizontal,p,72,21,female,2021-02-22_17h41.53.706,exp11,2020.2.6,Win32,60,,,,,,,,,,,
,,,,,,,,,,,,,,a,1,0.471295,space,0.896455,0,96,96,115,1,0_targ_1_dist_red/trial6.png,,,0,1,redHorizontal,a,72,21,female,2021-02-22_17h41.53.706,exp11,2020.2.6,Win32,60,,,,,,,,,,,
,,,,,,,,,,,,,,p,1,0.984155,space,0.51762,0,97,97,6,1,0_dist_red/trial7.png,,,1,0,redHorizontal,p,72,21,female,2021-02-22_17h41.53.706,exp11,2020.2.6,Win32,60,,,,,,,,,,,
,,,,,,,,,,,,,,a,1,0.906035,space,0.546605,0,98,98,144,1,0_targ_4_dist_red/trial20.png,,,0,4,redHorizontal,a,72,21,female,2021-02-22_17h41.53.706,exp11,2020.2.6,Win32,60,,,,,,,,,,,
,,,,,,,,,,,,,,a,1,0.829745,space,0.411115,0,99,99,196,1,0_targ_16_dist_red/trial22.png,,,0,16,redHorizontal,a,72,21,female,2021-02-22_17h41.53.706,exp11,2020.2.6,Win32,60,,,,,,,,,,,
,,,,,,,,,,,,,,a,1,0.67457,space,0.71482,0,100,100,139,1,0_targ_4_dist_red/trial15.png,,,0,4,redHorizontal,a,72,21,female,2021-02-22_17h41.53.706,exp11,2020.2.6,Win32,60,,,,,,,,,,,
,,,,,,,,,,,,,,p,1,0.581205,space,0.531125,0,101,101,17,1,0_dist_red/trial18.png,,,1,0,redHorizontal,p,72,21,female,2021-02-22_17h41.53.706,exp11,2020.2.6,Win32,60,,,,,,,,,,,
,,,,,,,,,,,,,,p,1,0.81364,space,0.459265,0,102,102,74,1,9_dist_red/trial25.png,,,1,9,redHorizontal,p,72,21,female,2021-02-22_17h41.53.706,exp11,2020.2.6,Win32,60,,,,,,,,,,,
,,,,,,,,,,,,,,a,0,0.4637,space,0.887855,0,103,103,9,1,0_dist_red/trial10.png,,,1,0,redHorizontal,p,72,21,female,2021-02-22_17h41.53.706,exp11,2020.2.6,Win32,60,,,,,,,,,,,
,,,,,,,,,,,,,,a,1,1.045775,space,0.41224,0,104,104,104,1,0_targ_1_dist_red/trial5.png,,,0,1,redHorizontal,a,72,21,female,2021-02-22_17h41.53.706,exp11,2020.2.6,Win32,60,,,,,,,,,,,
,,,,,,,,,,,,,,p,1,0.53467,space,0.46139,0,105,105,19,1,0_dist_red/trial20.png,,,1,0,redHorizontal,p,72,21,female,2021-02-22_17h41.53.706,exp11,2020.2.6,Win32,60,,,,,,,,,,,
,,,,,,,,,,,,,,a,1,0.92568,space,0.599185,0,106,106,161,1,0_targ_10_dist_red/trial12.png,,,0,10,redHorizontal,a,72,21,female,2021-02-22_17h41.53.706,exp11,2020.2.6,Win32,60,,,,,,,,,,,
,,,,,,,,,,,,,,p,1,1.01343,space,0.462055,0,107,107,86,1,15_dist_red/trial12.png,,,1,15,redHorizontal,p,72,21,female,2021-02-22_17h41.53.706,exp11,2020.2.6,Win32,60,,,,,,,,,,,
,,,,,,,,,,,,,,a,1,0.815215,space,0.418015,0,108,108,116,1,0_targ_1_dist_red/trial17.png,,,0,1,redHorizontal,a,72,21,female,2021-02-22_17h41.53.706,exp11,2020.2.6,Win32,60,,,,,,,,,,,
,,,,,,,,,,,,,,p,1,0.631455,space,0.511655,0,109,109,7,1,0_dist_red/trial8.png,,,1,0,redHorizontal,p,72,21,female,2021-02-22_17h41.53.706,exp11,2020.2.6,Win32,60,,,,,,,,,,,
,,,,,,,,,,,,,,a,1,0.84134,space,0.45441,0,110,110,170,1,0_targ_10_dist_red/trial21.png,,,0,10,redHorizontal,a,72,21,female,2021-02-22_17h41.53.706,exp11,2020.2.6,Win32,60,,,,,,,,,,,
,,,,,,,,,,,,,,a,1,0.581255,space,0.53092,0,111,111,150,1,0_targ_10_dist_red/trial1.png,,,0,10,redHorizontal,a,72,21,female,2021-02-22_17h41.53.706,exp11,2020.2.6,Win32,60,,,,,,,,,,,
,,,,,,,,,,,,,,p,1,0.7295,space,0.371665,0,112,112,30,1,3_dist_red/trial6.png,,,1,3,redHorizontal,p,72,21,female,2021-02-22_17h41.53.706,exp11,2020.2.6,Win32,60,,,,,,,,,,,
,,,,,,,,,,,,,,a,1,0.739805,space,0.468215,0,113,113,192,1,0_targ_16_dist_red/trial18.png,,,0,16,redHorizontal,a,72,21,female,2021-02-22_17h41.53.706,exp11,2020.2.6,Win32,60,,,,,,,,,,,
,,,,,,,,,,,,,,a,1,0.614595,space,0.44077,0,114,114,142,1,0_targ_4_dist_red/trial18.png,,,0,4,redHorizontal,a,72,21,female,2021-02-22_17h41.53.706,exp11,2020.2.6,Win32,60,,,,,,,,,,,
,,,,,,,,,,,,,,a,1,0.52348,space,0.591875,0,115,115,158,1,0_targ_10_dist_red/trial9.png,,,0,10,redHorizontal,a,72,21,female,2021-02-22_17h41.53.706,exp11,2020.2.6,Win32,60,,,,,,,,,,,
,,,,,,,,,,,,,,p,1,0.68152,space,0.393465,0,116,116,97,1,15_dist_red/trial23.png,,,1,15,redHorizontal,p,72,21,female,2021-02-22_17h41.53.706,exp11,2020.2.6,Win32,60,,,,,,,,,,,
,,,,,,,,,,,,,,p,1,0.56415,space,0.373695,0,117,117,26,1,3_dist_red/trial2.png,,,1,3,redHorizontal,p,72,21,female,2021-02-22_17h41.53.706,exp11,2020.2.6,Win32,60,,,,,,,,,,,
,,,,,,,,,,,,,,p,1,0.54377,space,0.47197,0,118,118,88,1,15_dist_red/trial14.png,,,1,15,redHorizontal,p,72,21,female,2021-02-22_17h41.53.706,exp11,2020.2.6,Win32,60,,,,,,,,,,,
,,,,,,,,,,,,,,a,1,0.79086,space,0.434845,0,119,119,123,1,0_targ_1_dist_red/trial24.png,,,0,1,redHorizontal,a,72,21,female,2021-02-22_17h41.53.706,exp11,2020.2.6,Win32,60,,,,,,,,,,,
,,,,,,,,,,,,,,p,1,0.54036,space,0.36947,0,120,120,94,1,15_dist_red/trial20.png,,,1,15,redHorizontal,p,72,21,female,2021-02-22_17h41.53.706,exp11,2020.2.6,Win32,60,,,,,,,,,,,
,,,,,,,,,,,,,,p,1,0.532915,space,0.36207,0,121,121,8,1,0_dist_red/trial9.png,,,1,0,redHorizontal,p,72,21,female,2021-02-22_17h41.53.706,exp11,2020.2.6,Win32,60,,,,,,,,,,,
,,,,,,,,,,,,,,a,1,0.51387,space,0.364575,0,122,122,113,1,0_targ_1_dist_red/trial14.png,,,0,1,redHorizontal,a,72,21,female,2021-02-22_17h41.53.706,exp11,2020.2.6,Win32,60,,,,,,,,,,,
,,,,,,,,,,,,,,p,1,0.56083,space,0.36078,0,123,123,12,1,0_dist_red/trial13.png,,,1,0,redHorizontal,p,72,21,female,2021-02-22_17h41.53.706,exp11,2020.2.6,Win32,60,,,,,,,,,,,
,,,,,,,,,,,,,,a,0,0.82423,space,0.40758,0,124,124,80,1,15_dist_red/trial6.png,,,1,15,redHorizontal,p,72,21,female,2021-02-22_17h41.53.706,exp11,2020.2.6,Win32,60,,,,,,,,,,,
,,,,,,,,,,,,,,p,1,0.681525,space,0.36786,0,125,125,68,1,9_dist_red/trial19.png,,,1,9,redHorizontal,p,72,21,female,2021-02-22_17h41.53.706,exp11,2020.2.6,Win32,60,,,,,,,,,,,
,,,,,,,,,,,,,,a,1,0.755355,space,0.518265,0,126,126,164,1,0_targ_10_dist_red/trial15.png,,,0,10,redHorizontal,a,72,21,female,2021-02-22_17h41.53.706,exp11,2020.2.6,Win32,60,,,,,,,,,,,
,,,,,,,,,,,,,,a,1,0.604255,space,0.38517,0,127,127,183,1,0_targ_16_dist_red/trial9.png,,,0,16,redHorizontal,a,72,21,female,2021-02-22_17h41.53.706,exp11,2020.2.6,Win32,60,,,,,,,,,,,
,,,,,,,,,,,,,,p,1,0.50875,space,0.325525,0,128,128,44,1,3_dist_red/trial20.png,,,1,3,redHorizontal,p,72,21,female,2021-02-22_17h41.53.706,exp11,2020.2.6,Win32,60,,,,,,,,,,,
,,,,,,,,,,,,,,a,1,0.60837,space,0.45323,0,129,129,174,1,0_targ_10_dist_red/trial25.png,,,0,10,redHorizontal,a,72,21,female,2021-02-22_17h41.53.706,exp11,2020.2.6,Win32,60,,,,,,,,,,,
,,,,,,,,,,,,,,a,1,0.71323,space,0.401505,0,130,130,128,1,0_targ_4_dist_red/trial4.png,,,0,4,redHorizontal,a,72,21,female,2021-02-22_17h41.53.706,exp11,2020.2.6,Win32,60,,,,,,,,,,,
,,,,,,,,,,,,,,p,1,0.64685,space,0.319295,0,131,131,52,1,9_dist_red/trial3.png,,,1,9,redHorizontal,p,72,21,female,2021-02-22_17h41.53.706,exp11,2020.2.6,Win32,60,,,,,,,,,,,
,,,,,,,,,,,,,,a,0,0.43911,space,1.7044,0,132,132,69,1,9_dist_red/trial20.png,,,1,9,redHorizontal,p,72,21,female,2021-02-22_17h41.53.706,exp11,2020.2.6,Win32,60,,,,,,,,,,,
,,,,,,,,,,,,,,a,1,0.71803,space,0.218455,0,133,133,197,1,0_targ_16_dist_red/trial23.png,,,0,16,redHorizontal,a,72,21,female,2021-02-22_17h41.53.706,exp11,2020.2.6,Win32,60,,,,,,,,,,,
,,,,,,,,,,,,,,a,1,0.674875,space,0.32661,0,134,134,146,1,0_targ_4_dist_red/trial22.png,,,0,4,redHorizontal,a,72,21,female,2021-02-22_17h41.53.706,exp11,2020.2.6,Win32,60,,,,,,,,,,,
,,,,,,,,,,,,,,a,1,0.525515,space,0.30169,0,135,135,145,1,0_targ_4_dist_red/trial21.png,,,0,4,redHorizontal,a,72,21,female,2021-02-22_17h41.53.706,exp11,2020.2.6,Win32,60,,,,,,,,,,,
,,,,,,,,,,,,,,a,1,0.511885,space,0.356635,0,136,136,143,1,0_targ_4_dist_red/trial19.png,,,0,4,redHorizontal,a,72,21,female,2021-02-22_17h41.53.706,exp11,2020.2.6,Win32,60,,,,,,,,,,,
,,,,,,,,,,,,,,a,1,0.497115,space,0.46377,0,137,137,125,1,0_targ_4_dist_red/trial1.png,,,0,4,redHorizontal,a,72,21,female,2021-02-22_17h41.53.706,exp11,2020.2.6,Win32,60,,,,,,,,,,,
,,,,,,,,,,,,,,p,0,0.756475,space,0.51694,0,138,138,122,1,0_targ_1_dist_red/trial23.png,,,0,1,redHorizontal,a,72,21,female,2021-02-22_17h41.53.706,exp11,2020.2.6,Win32,60,,,,,,,,,,,
,,,,,,,,,,,,,,p,1,0.9294,space,0.355865,0,139,139,54,1,9_dist_red/trial5.png,,,1,9,redHorizontal,p,72,21,female,2021-02-22_17h41.53.706,exp11,2020.2.6,Win32,60,,,,,,,,,,,
,,,,,,,,,,,,,,a,1,0.56774,space,0.344025,0,140,140,138,1,0_targ_4_dist_red/trial14.png,,,0,4,redHorizontal,a,72,21,female,2021-02-22_17h41.53.706,exp11,2020.2.6,Win32,60,,,,,,,,,,,
,,,,,,,,,,,,,,p,1,0.605655,space,0.349225,0,141,141,13,1,0_dist_red/trial14.png,,,1,0,redHorizontal,p,72,21,female,2021-02-22_17h41.53.706,exp11,2020.2.6,Win32,60,,,,,,,,,,,
,,,,,,,,,,,,,,p,1,0.796985,space,0.333885,0,142,142,76,1,15_dist_red/trial2.png,,,1,15,redHorizontal,p,72,21,female,2021-02-22_17h41.53.706,exp11,2020.2.6,Win32,60,,,,,,,,,,,
,,,,,,,,,,,,,,a,1,0.544615,space,0.341975,0,143,143,140,1,0_targ_4_dist_red/trial6.png,,,0,4,redHorizontal,a,72,21,female,2021-02-22_17h41.53.706,exp11,2020.2.6,Win32,60,,,,,,,,,,,
,,,,,,,,,,,,,,p,1,0.644385,space,0.294975,0,144,144,23,1,0_dist_red/trial24.png,,,1,0,redHorizontal,p,72,21,female,2021-02-22_17h41.53.706,exp11,2020.2.6,Win32,60,,,,,,,,,,,
,,,,,,,,,,,,,,a,1,0.803955,space,0.32175,0,145,145,112,1,0_targ_1_dist_red/trial13.png,,,0,1,redHorizontal,a,72,21,female,2021-02-22_17h41.53.706,exp11,2020.2.6,Win32,60,,,,,,,,,,,
,,,,,,,,,,,,,,a,1,0.66178,space,0.26756,0,146,146,147,1,0_targ_4_dist_red/trial23.png,,,0,4,redHorizontal,a,72,21,female,2021-02-22_17h41.53.706,exp11,2020.2.6,Win32,60,,,,,,,,,,,
,,,,,,,,,,,,,,p,1,0.747885,space,0.28971,0,147,147,81,1,15_dist_red/trial7.png,,,1,15,redHorizontal,p,72,21,female,2021-02-22_17h41.53.706,exp11,2020.2.6,Win32,60,,,,,,,,,,,
,,,,,,,,,,,,,,p,1,0.62542,space,0.41208,0,148,148,92,1,15_dist_red/trial18.png,,,1,15,redHorizontal,p,72,21,female,2021-02-22_17h41.53.706,exp11,2020.2.6,Win32,60,,,,,,,,,,,
,,,,,,,,,,,,,,a,1,0.684695,space,0.363825,0,149,149,160,1,0_targ_10_dist_red/trial11.png,,,0,10,redHorizontal,a,72,21,female,2021-02-22_17h41.53.706,exp11,2020.2.6,Win32,60,,,,,,,,,,,
,,,,,,,,,,,,,,p,1,0.821995,space,0.35133,0,150,150,93,1,15_dist_red/trial19.png,,,1,15,redHorizontal,p,72,21,female,2021-02-22_17h41.53.706,exp11,2020.2.6,Win32,60,,,,,,,,,,,
,,,,,,,,,,,,,,p,1,0.653735,space,0.418755,0,151,151,29,1,3_dist_red/trial5.png,,,1,3,redHorizontal,p,72,21,female,2021-02-22_17h41.53.706,exp11,2020.2.6,Win32,60,,,,,,,,,,,
,,,,,,,,,,,,,,a,1,0.4433,space,0.43527,0,152,152,100,1,0_targ_1_dist_red/trial1.png,,,0,1,redHorizontal,a,72,21,female,2021-02-22_17h41.53.706,exp11,2020.2.6,Win32,60,,,,,,,,,,,
,,,,,,,,,,,,,,a,1,0.630055,space,0.346315,0,153,153,134,1,0_targ_4_dist_red/trial10.png,,,0,4,redHorizontal,a,72,21,female,2021-02-22_17h41.53.706,exp11,2020.2.6,Win32,60,,,,,,,,,,,
,,,,,,,,,,,,,,p,1,0.582955,space,0.418375,0,154,154,63,1,9_dist_red/trial14.png,,,1,9,redHorizontal,p,72,21,female,2021-02-22_17h41.53.706,exp11,2020.2.6,Win32,60,,,,,,,,,,,
,,,,,,,,,,,,,,p,1,0.819615,space,0.398165,0,155,155,73,1,9_dist_red/trial24.png,,,1,9,redHorizontal,p,72,21,female,2021-02-22_17h41.53.706,exp11,2020.2.6,Win32,60,,,,,,,,,,,
,,,,,,,,,,,,,,p,1,0.501585,space,0.381095,0,156,156,11,1,0_dist_red/trial12.png,,,1,0,redHorizontal,p,72,21,female,2021-02-22_17h41.53.706,exp11,2020.2.6,Win32,60,,,,,,,,,,,
,,,,,,,,,,,,,,p,1,0.62808,space,0.334015,0,157,157,27,1,3_dist_red/trial3.png,,,1,3,redHorizontal,p,72,21,female,2021-02-22_17h41.53.706,exp11,2020.2.6,Win32,60,,,,,,,,,,,
,,,,,,,,,,,,,,a,1,0.63025,space,0.35244,0,158,158,188,1,0_targ_16_dist_red/trial14.png,,,0,16,redHorizontal,a,72,21,female,2021-02-22_17h41.53.706,exp11,2020.2.6,Win32,60,,,,,,,,,,,
,,,,,,,,,,,,,,a,1,0.542025,space,0.427125,0,159,159,111,1,0_targ_1_dist_red/trial12.png,,,0,1,redHorizontal,a,72,21,female,2021-02-22_17h41.53.706,exp11,2020.2.6,Win32,60,,,,,,,,,,,
,,,,,,,,,,,,,,a,1,0.404195,space,0.467485,0,160,160,102,1,0_targ_1_dist_red/trial3.png,,,0,1,redHorizontal,a,72,21,female,2021-02-22_17h41.53.706,exp11,2020.2.6,Win32,60,,,,,,,,,,,
,,,,,,,,,,,,,,p,1,0.44899,space,0.378615,0,161,161,32,1,3_dist_red/trial8.png,,,1,3,redHorizontal,p,72,21,female,2021-02-22_17h41.53.706,exp11,2020.2.6,Win32,60,,,,,,,,,,,
,,,,,,,,,,,,,,p,1,0.584575,space,0.384065,0,162,162,48,1,3_dist_red/trial24.png,,,1,3,redHorizontal,p,72,21,female,2021-02-22_17h41.53.706,exp11,2020.2.6,Win32,60,,,,,,,,,,,
,,,,,,,,,,,,,,p,1,0.627605,space,0.31284,0,163,163,91,1,15_dist_red/trial17.png,,,1,15,redHorizontal,p,72,21,female,2021-02-22_17h41.53.706,exp11,2020.2.6,Win32,60,,,,,,,,,,,
,,,,,,,,,,,,,,a,1,0.56975,space,0.44031,0,164,164,133,1,0_targ_4_dist_red/trial9.png,,,0,4,redHorizontal,a,72,21,female,2021-02-22_17h41.53.706,exp11,2020.2.6,Win32,60,,,,,,,,,,,
,,,,,,,,,,,,,,p,1,0.62453,space,0.40268,0,165,165,16,1,0_dist_red/trial17.png,,,1,0,redHorizontal,p,72,21,female,2021-02-22_17h41.53.706,exp11,2020.2.6,Win32,60,,,,,,,,,,,
,,,,,,,,,,,,,,p,1,0.643525,space,0.41809,0,166,166,82,1,15_dist_red/trial8.png,,,1,15,redHorizontal,p,72,21,female,2021-02-22_17h41.53.706,exp11,2020.2.6,Win32,60,,,,,,,,,,,
,,,,,,,,,,,,,,p,1,0.59868,space,0.47066,0,167,167,10,1,0_dist_red/trial11.png,,,1,0,redHorizontal,p,72,21,female,2021-02-22_17h41.53.706,exp11,2020.2.6,Win32,60,,,,,,,,,,,
,,,,,,,,,,,,,,a,1,0.748655,space,0.385875,0,168,168,165,1,0_targ_10_dist_red/trial16.png,,,0,10,redHorizontal,a,72,21,female,2021-02-22_17h41.53.706,exp11,2020.2.6,Win32,60,,,,,,,,,,,
,,,,,,,,,,,,,,p,1,0.71507,space,0.321115,0,169,169,61,1,9_dist_red/trial12.png,,,1,9,redHorizontal,p,72,21,female,2021-02-22_17h41.53.706,exp11,2020.2.6,Win32,60,,,,,,,,,,,
,,,,,,,,,,,,,,p,1,0.66764,space,0.468925,0,170,170,25,1,3_dist_red/trial1.png,,,1,3,redHorizontal,p,72,21,female,2021-02-22_17h41.53.706,exp11,2020.2.6,Win32,60,,,,,,,,,,,
,,,,,,,,,,,,,,a,1,0.79208,space,0.501,0,171,171,180,1,0_targ_16_dist_red/trial6.png,,,0,16,redHorizontal,a,72,21,female,2021-02-22_17h41.53.706,exp11,2020.2.6,Win32,60,,,,,,,,,,,
,,,,,,,,,,,,,,p,1,0.59167,space,0.39197,0,172,172,20,1,0_dist_red/trial21.png,,,1,0,redHorizontal,p,72,21,female,2021-02-22_17h41.53.706,exp11,2020.2.6,Win32,60,,,,,,,,,,,
,,,,,,,,,,,,,,a,1,0.57028,space,0.40098,0,173,173,127,1,0_targ_4_dist_red/trial3.png,,,0,4,redHorizontal,a,72,21,female,2021-02-22_17h41.53.706,exp11,2020.2.6,Win32,60,,,,,,,,,,,
,,,,,,,,,,,,,,a,1,0.582205,space,0.46854,0,174,174,126,1,0_targ_4_dist_red/trial2.png,,,0,4,redHorizontal,a,72,21,female,2021-02-22_17h41.53.706,exp11,2020.2.6,Win32,60,,,,,,,,,,,
,,,,,,,,,,,,,,p,1,0.803535,space,0.52243,0,175,175,79,1,15_dist_red/trial5.png,,,1,15,redHorizontal,p,72,21,female,2021-02-22_17h41.53.706,exp11,2020.2.6,Win32,60,,,,,,,,,,,
,,,,,,,,,,,,,,a,1,0.626895,space,0.378655,0,176,176,169,1,0_targ_10_dist_red/trial20.png,,,0,10,redHorizontal,a,72,21,female,2021-02-22_17h41.53.706,exp11,2020.2.6,Win32,60,,,,,,,,,,,
,,,,,,,,,,,,,,p,1,0.71793,space,0.42595,0,177,177,55,1,9_dist_red/trial6.png,,,1,9,redHorizontal,p,72,21,female,2021-02-22_17h41.53.706,exp11,2020.2.6,Win32,60,,,,,,,,,,,
,,,,,,,,,,,,,,p,1,0.511005,space,0.3342,0,178,178,14,1,0_dist_red/trial15.png,,,1,0,redHorizontal,p,72,21,female,2021-02-22_17h41.53.706,exp11,2020.2.6,Win32,60,,,,,,,,,,,
,,,,,,,,,,,,,,p,1,0.540125,space,0.395195,0,179,179,21,1,0_dist_red/trial22.png,,,1,0,redHorizontal,p,72,21,female,2021-02-22_17h41.53.706,exp11,2020.2.6,Win32,60,,,,,,,,,,,
,,,,,,,,,,,,,,a,1,0.50247,space,0.38499,0,180,180,130,1,0_targ_4_dist_red/trial6.png,,,0,4,redHorizontal,a,72,21,female,2021-02-22_17h41.53.706,exp11,2020.2.6,Win32,60,,,,,,,,,,,
,,,,,,,,,,,,,,a,1,0.596935,space,0.359955,0,181,181,129,1,0_targ_4_dist_red/trial5.png,,,0,4,redHorizontal,a,72,21,female,2021-02-22_17h41.53.706,exp11,2020.2.6,Win32,60,,,,,,,,,,,
,,,,,,,,,,,,,,p,1,0.76062,space,0.36055,0,182,182,37,1,3_dist_red/trial13.png,,,1,3,redHorizontal,p,72,21,female,2021-02-22_17h41.53.706,exp11,2020.2.6,Win32,60,,,,,,,,,,,
,,,,,,,,,,,,,,a,1,0.6861,space,0.400545,0,183,183,194,1,0_targ_16_dist_red/trial20.png,,,0,16,redHorizontal,a,72,21,female,2021-02-22_17h41.53.706,exp11,2020.2.6,Win32,60,,,,,,,,,,,
,,,,,,,,,,,,,,a,1,0.673525,space,0.376285,0,184,184,149,1,0_targ_4_dist_red/trial25.png,,,0,4,redHorizontal,a,72,21,female,2021-02-22_17h41.53.706,exp11,2020.2.6,Win32,60,,,,,,,,,,,
,,,,,,,,,,,,,,p,1,0.50009,space,0.38685,0,185,185,42,1,3_dist_red/trial18.png,,,1,3,redHorizontal,p,72,21,female,2021-02-22_17h41.53.706,exp11,2020.2.6,Win32,60,,,,,,,,,,,
,,,,,,,,,,,,,,p,1,0.931845,space,0.418005,0,186,186,50,1,9_dist_red/trial1.png,,,1,9,redHorizontal,p,72,21,female,2021-02-22_17h41.53.706,exp11,2020.2.6,Win32,60,,,,,,,,,,,
,,,,,,,,,,,,,,a,1,0.965645,space,0.626005,0,187,187,114,1,0_targ_1_dist_red/trial15.png,,,0,1,redHorizontal,a,72,21,female,2021-02-22_17h41.53.706,exp11,2020.2.6,Win32,60,,,,,,,,,,,
,,,,,,,,,,,,,,p,1,0.939265,space,0.4199,0,188,188,22,1,0_dist_red/trial23.png,,,1,0,redHorizontal,p,72,21,female,2021-02-22_17h41.53.706,exp11,2020.2.6,Win32,60,,,,,,,,,,,
,,,,,,,,,,,,,,a,1,0.814175,space,0.34779,0,189,189,151,1,0_targ_10_dist_red/trial2.png,,,0,10,redHorizontal,a,72,21,female,2021-02-22_17h41.53.706,exp11,2020.2.6,Win32,60,,,,,,,,,,,
,,,,,,,,,,,,,,p,1,0.68671,space,0.40261,0,190,190,64,1,9_dist_red/trial15.png,,,1,9,redHorizontal,p,72,21,female,2021-02-22_17h41.53.706,exp11,2020.2.6,Win32,60,,,,,,,,,,,
,,,,,,,,,,,,,,p,1,0.601645,space,0.305915,0,191,191,4,1,0_dist_red/trial5.png,,,1,0,redHorizontal,p,72,21,female,2021-02-22_17h41.53.706,exp11,2020.2.6,Win32,60,,,,,,,,,,,
,,,,,,,,,,,,,,a,1,0.631615,space,0.307225,0,192,192,168,1,0_targ_10_dist_red/trial19.png,,,0,10,redHorizontal,a,72,21,female,2021-02-22_17h41.53.706,exp11,2020.2.6,Win32,60,,,,,,,,,,,
,,,,,,,,,,,,,,a,1,0.583445,space,0.32378,0,193,193,107,1,0_targ_1_dist_red/trial8.png,,,0,1,redHorizontal,a,72,21,female,2021-02-22_17h41.53.706,exp11,2020.2.6,Win32,60,,,,,,,,,,,
,,,,,,,,,,,,,,a,1,0.868765,space,0.29495,0,194,194,176,1,0_targ_16_dist_red/trial2.png,,,0,16,redHorizontal,a,72,21,female,2021-02-22_17h41.53.706,exp11,2020.2.6,Win32,60,,,,,,,,,,,
,,,,,,,,,,,,,,p,1,0.760215,space,0.28953,0,195,195,70,1,9_dist_red/trial21.png,,,1,9,redHorizontal,p,72,21,female,2021-02-22_17h41.53.706,exp11,2020.2.6,Win32,60,,,,,,,,,,,
,,,,,,,,,,,,,,a,1,0.56925,space,0.384175,0,196,196,132,1,0_targ_4_dist_red/trial8.png,,,0,4,redHorizontal,a,72,21,female,2021-02-22_17h41.53.706,exp11,2020.2.6,Win32,60,,,,,,,,,,,
,,,,,,,,,,,,,,p,1,0.5812,space,0.368225,0,197,197,87,1,15_dist_red/trial13.png,,,1,15,redHorizontal,p,72,21,female,2021-02-22_17h41.53.706,exp11,2020.2.6,Win32,60,,,,,,,,,,,
,,,,,,,,,,,,,,p,1,0.687435,space,0.21723,0,198,198,35,1,3_dist_red/trial11.png,,,1,3,redHorizontal,p,72,21,female,2021-02-22_17h41.53.706,exp11,2020.2.6,Win32,60,,,,,,,,,,,
,,,,,,,,,,,,,,p,1,0.66481,space,0.40108,0,199,199,41,1,3_dist_red/trial17.png,,,1,3,redHorizontal,p,72,21,female,2021-02-22_17h41.53.706,exp11,2020.2.6,Win32,60,,,,,,,,,,,
,,,,,,,,,,,,,,,,,,,,,,,,,,,,,,,72,21,female,2021-02-22_17h41.53.706,exp11,2020.2.6,Win32,60,0,1,1,1,1,conRed.xlsx,red horizontal,Look for red horizontal bar (target) and indicate if it is present or absent in the array. If red horizontal target is present press 'p' and if absent press 'a'. Press SPACE to start.,,,
