key_resp_6.keys,key_resp_6.rt,key_resp_7.keys,key_resp_7.rt,key_resp_8.keys,key_resp_8.rt,key_resp_10.keys,key_resp_10.rt,key_resp_9.keys,key_resp_9.rt,key_resp_3.keys,key_resp_3.rt,key_resp_5.keys,key_resp_5.rt,key_resp.keys,key_resp.corr,key_resp.rt,key_resp_4.keys,key_resp_4.rt,trials.thisRepN,trials.thisTrialN,trials.thisN,trials.thisIndex,trials.ran,ImageFile,tarPos,tarSize,targPres,numDist,targetName,correctAns,participant,age,sex,date,expName,psychopyVersion,OS,frameRate,trials_2.thisRepN,trials_2.thisTrialN,trials_2.thisN,trials_2.thisIndex,trials_2.ran,condsFile,targName,instructionText,colTarget,sizeTarg,posit
space,2.768,space,11.21,space,3.411,space,13.947,space,3.36,space,6.441,space,4.947,a,1,1.965,space,2.879,0,0,0,134,1,0_targ_4_dist_green/trial10.png,,,0,4,greenverival,a,73,20,female,2021-02-28_11h03.46.677,exp11,2020.2.6,MacIntel,60,,,,,,,,,,,
,,,,,,,,,,,,,,a,1,1.671,space,0.598,0,1,1,179,1,0_targ_16_dist_green/trial5.png,,,0,16,greenverival,a,73,20,female,2021-02-28_11h03.46.677,exp11,2020.2.6,MacIntel,60,,,,,,,,,,,
,,,,,,,,,,,,,,p,1,0.698,space,0.377,0,2,2,72,1,9_dist_green/trial23.png,,,1,9,greenverival,p,73,20,female,2021-02-28_11h03.46.677,exp11,2020.2.6,MacIntel,60,,,,,,,,,,,
,,,,,,,,,,,,,,p,1,0.584,space,0.476,0,3,3,10,1,0_dist_green/trial11.png,,,1,0,greenverival,p,73,20,female,2021-02-28_11h03.46.677,exp11,2020.2.6,MacIntel,60,,,,,,,,,,,
,,,,,,,,,,,,,,a,1,0.73,space,0.337,0,4,4,113,1,0_targ_1_dist_green/trial14.png,,,0,1,greenverival,a,73,20,female,2021-02-28_11h03.46.677,exp11,2020.2.6,MacIntel,60,,,,,,,,,,,
,,,,,,,,,,,,,,a,1,0.943,space,0.399,0,5,5,174,1,0_targ_10_dist_green/trial25.png,,,0,10,greenverival,a,73,20,female,2021-02-28_11h03.46.677,exp11,2020.2.6,MacIntel,60,,,,,,,,,,,
,,,,,,,,,,,,,,p,1,0.738,space,0.25,0,6,6,52,1,9_dist_green/trial3.png,,,1,9,greenverival,p,73,20,female,2021-02-28_11h03.46.677,exp11,2020.2.6,MacIntel,60,,,,,,,,,,,
,,,,,,,,,,,,,,a,1,0.56,space,0.383,0,7,7,122,1,0_targ_1_dist_green/trial23.png,,,0,1,greenverival,a,73,20,female,2021-02-28_11h03.46.677,exp11,2020.2.6,MacIntel,60,,,,,,,,,,,
,,,,,,,,,,,,,,a,1,0.85,space,0.299,0,8,8,172,1,0_targ_10_dist_green/trial23.png,,,0,10,greenverival,a,73,20,female,2021-02-28_11h03.46.677,exp11,2020.2.6,MacIntel,60,,,,,,,,,,,
,,,,,,,,,,,,,,a,1,0.995,space,0.22,0,9,9,160,1,0_targ_10_dist_green/trial11.png,,,0,10,greenverival,a,73,20,female,2021-02-28_11h03.46.677,exp11,2020.2.6,MacIntel,60,,,,,,,,,,,
,,,,,,,,,,,,,,p,1,0.547,space,0.235,0,10,10,40,1,3_dist_green/trial16.png,,,1,3,greenverival,p,73,20,female,2021-02-28_11h03.46.677,exp11,2020.2.6,MacIntel,60,,,,,,,,,,,
,,,,,,,,,,,,,,a,1,0.853,space,0.346,0,11,11,183,1,0_targ_16_dist_green/trial9.png,,,0,16,greenverival,a,73,20,female,2021-02-28_11h03.46.677,exp11,2020.2.6,MacIntel,60,,,,,,,,,,,
,,,,,,,,,,,,,,a,1,0.799,space,0.288,0,12,12,155,1,0_targ_10_dist_green/trial6.png,,,0,10,greenverival,a,73,20,female,2021-02-28_11h03.46.677,exp11,2020.2.6,MacIntel,60,,,,,,,,,,,
,,,,,,,,,,,,,,p,1,0.994,space,0.23,0,13,13,80,1,15_dist_green/trial6.png,,,1,15,greenverival,p,73,20,female,2021-02-28_11h03.46.677,exp11,2020.2.6,MacIntel,60,,,,,,,,,,,
,,,,,,,,,,,,,,a,1,0.582,space,0.387,0,14,14,115,1,0_targ_1_dist_green/trial6.png,,,0,1,greenverival,a,73,20,female,2021-02-28_11h03.46.677,exp11,2020.2.6,MacIntel,60,,,,,,,,,,,
,,,,,,,,,,,,,,p,1,0.721,space,0.215,0,15,15,77,1,15_dist_green/trial3.png,,,1,15,greenverival,p,73,20,female,2021-02-28_11h03.46.677,exp11,2020.2.6,MacIntel,60,,,,,,,,,,,
,,,,,,,,,,,,,,p,1,0.55,space,0.226,0,16,16,82,1,15_dist_green/trial8.png,,,1,15,greenverival,p,73,20,female,2021-02-28_11h03.46.677,exp11,2020.2.6,MacIntel,60,,,,,,,,,,,
,,,,,,,,,,,,,,a,1,0.594,space,0.224,0,17,17,169,1,0_targ_10_dist_green/trial20.png,,,0,10,greenverival,a,73,20,female,2021-02-28_11h03.46.677,exp11,2020.2.6,MacIntel,60,,,,,,,,,,,
,,,,,,,,,,,,,,p,1,0.653,space,0.243,0,18,18,49,1,3_dist_green/trial25.png,,,1,3,greenverival,p,73,20,female,2021-02-28_11h03.46.677,exp11,2020.2.6,MacIntel,60,,,,,,,,,,,
,,,,,,,,,,,,,,a,1,0.57,space,0.187,0,19,19,145,1,0_targ_4_dist_green/trial21.png,,,0,4,greenverival,a,73,20,female,2021-02-28_11h03.46.677,exp11,2020.2.6,MacIntel,60,,,,,,,,,,,
,,,,,,,,,,,,,,p,1,0.529,space,0.204,0,20,20,36,1,3_dist_green/trial12.png,,,1,3,greenverival,p,73,20,female,2021-02-28_11h03.46.677,exp11,2020.2.6,MacIntel,60,,,,,,,,,,,
,,,,,,,,,,,,,,a,1,0.753,space,0.25,0,21,21,148,1,0_targ_4_dist_green/trial24.png,,,0,4,greenverival,a,73,20,female,2021-02-28_11h03.46.677,exp11,2020.2.6,MacIntel,60,,,,,,,,,,,
,,,,,,,,,,,,,,p,1,0.552,space,0.177,0,22,22,87,1,15_dist_green/trial13.png,,,1,15,greenverival,p,73,20,female,2021-02-28_11h03.46.677,exp11,2020.2.6,MacIntel,60,,,,,,,,,,,
,,,,,,,,,,,,,,a,1,0.477,space,0.227,0,23,23,105,1,0_targ_1_dist_green/trial6.png,,,0,1,greenverival,a,73,20,female,2021-02-28_11h03.46.677,exp11,2020.2.6,MacIntel,60,,,,,,,,,,,
,,,,,,,,,,,,,,a,1,0.837,space,0.193,0,24,24,137,1,0_targ_4_dist_green/trial13.png,,,0,4,greenverival,a,73,20,female,2021-02-28_11h03.46.677,exp11,2020.2.6,MacIntel,60,,,,,,,,,,,
,,,,,,,,,,,,,,p,1,0.902,space,0.193,0,25,25,74,1,9_dist_green/trial25.png,,,1,9,greenverival,p,73,20,female,2021-02-28_11h03.46.677,exp11,2020.2.6,MacIntel,60,,,,,,,,,,,
,,,,,,,,,,,,,,p,1,0.513,space,0.163,0,26,26,23,1,0_dist_green/trial24.png,,,1,0,greenverival,p,73,20,female,2021-02-28_11h03.46.677,exp11,2020.2.6,MacIntel,60,,,,,,,,,,,
,,,,,,,,,,,,,,a,1,0.557,space,0.184,0,27,27,143,1,0_targ_4_dist_green/trial19.png,,,0,4,greenverival,a,73,20,female,2021-02-28_11h03.46.677,exp11,2020.2.6,MacIntel,60,,,,,,,,,,,
,,,,,,,,,,,,,,a,1,0.673,space,0.187,0,28,28,139,1,0_targ_4_dist_green/trial15.png,,,0,4,greenverival,a,73,20,female,2021-02-28_11h03.46.677,exp11,2020.2.6,MacIntel,60,,,,,,,,,,,
,,,,,,,,,,,,,,p,1,0.614,space,0.188,0,29,29,38,1,3_dist_green/trial14.png,,,1,3,greenverival,p,73,20,female,2021-02-28_11h03.46.677,exp11,2020.2.6,MacIntel,60,,,,,,,,,,,
,,,,,,,,,,,,,,p,1,0.707,space,0.17,0,30,30,47,1,3_dist_green/trial23.png,,,1,3,greenverival,p,73,20,female,2021-02-28_11h03.46.677,exp11,2020.2.6,MacIntel,60,,,,,,,,,,,
,,,,,,,,,,,,,,p,1,0.753,space,0.162,0,31,31,79,1,15_dist_green/trial5.png,,,1,15,greenverival,p,73,20,female,2021-02-28_11h03.46.677,exp11,2020.2.6,MacIntel,60,,,,,,,,,,,
,,,,,,,,,,,,,,a,1,0.525,space,0.183,0,32,32,131,1,0_targ_4_dist_green/trial7.png,,,0,4,greenverival,a,73,20,female,2021-02-28_11h03.46.677,exp11,2020.2.6,MacIntel,60,,,,,,,,,,,
,,,,,,,,,,,,,,p,1,0.526,space,0.144,0,33,33,39,1,3_dist_green/trial15.png,,,1,3,greenverival,p,73,20,female,2021-02-28_11h03.46.677,exp11,2020.2.6,MacIntel,60,,,,,,,,,,,
,,,,,,,,,,,,,,p,1,1.073,space,0.312,0,34,34,92,1,15_dist_green/trial18.png,,,1,15,greenverival,p,73,20,female,2021-02-28_11h03.46.677,exp11,2020.2.6,MacIntel,60,,,,,,,,,,,
,,,,,,,,,,,,,,p,1,0.462,space,0.299,0,35,35,19,1,0_dist_green/trial20.png,,,1,0,greenverival,p,73,20,female,2021-02-28_11h03.46.677,exp11,2020.2.6,MacIntel,60,,,,,,,,,,,
,,,,,,,,,,,,,,p,1,0.625,space,0.269,0,36,36,54,1,9_dist_green/trial5.png,,,1,9,greenverival,p,73,20,female,2021-02-28_11h03.46.677,exp11,2020.2.6,MacIntel,60,,,,,,,,,,,
,,,,,,,,,,,,,,p,1,0.485,space,0.312,0,37,37,41,1,3_dist_green/trial17.png,,,1,3,greenverival,p,73,20,female,2021-02-28_11h03.46.677,exp11,2020.2.6,MacIntel,60,,,,,,,,,,,
,,,,,,,,,,,,,,p,1,0.578,space,0.243,0,38,38,30,1,3_dist_green/trial6.png,,,1,3,greenverival,p,73,20,female,2021-02-28_11h03.46.677,exp11,2020.2.6,MacIntel,60,,,,,,,,,,,
,,,,,,,,,,,,,,p,1,0.843,space,0.226,0,39,39,76,1,15_dist_green/trial2.png,,,1,15,greenverival,p,73,20,female,2021-02-28_11h03.46.677,exp11,2020.2.6,MacIntel,60,,,,,,,,,,,
,,,,,,,,,,,,,,p,1,0.486,space,0.27,0,40,40,58,1,9_dist_green/trial9.png,,,1,9,greenverival,p,73,20,female,2021-02-28_11h03.46.677,exp11,2020.2.6,MacIntel,60,,,,,,,,,,,
,,,,,,,,,,,,,,p,1,0.526,space,0.235,0,41,41,17,1,0_dist_green/trial18.png,,,1,0,greenverival,p,73,20,female,2021-02-28_11h03.46.677,exp11,2020.2.6,MacIntel,60,,,,,,,,,,,
,,,,,,,,,,,,,,p,1,0.444,space,0.267,0,42,42,8,1,0_dist_green/trial9.png,,,1,0,greenverival,p,73,20,female,2021-02-28_11h03.46.677,exp11,2020.2.6,MacIntel,60,,,,,,,,,,,
,,,,,,,,,,,,,,p,1,0.713,space,0.334,0,43,43,89,1,15_dist_green/trial15.png,,,1,15,greenverival,p,73,20,female,2021-02-28_11h03.46.677,exp11,2020.2.6,MacIntel,60,,,,,,,,,,,
,,,,,,,,,,,,,,p,1,0.608,space,0.227,0,44,44,93,1,15_dist_green/trial19.png,,,1,15,greenverival,p,73,20,female,2021-02-28_11h03.46.677,exp11,2020.2.6,MacIntel,60,,,,,,,,,,,
,,,,,,,,,,,,,,a,1,0.629,space,0.251,0,45,45,149,1,0_targ_4_dist_green/trial25.png,,,0,4,greenverival,a,73,20,female,2021-02-28_11h03.46.677,exp11,2020.2.6,MacIntel,60,,,,,,,,,,,
,,,,,,,,,,,,,,a,1,0.978,space,0.32,0,46,46,195,1,0_targ_16_dist_green/trial21.png,,,0,16,greenverival,a,73,20,female,2021-02-28_11h03.46.677,exp11,2020.2.6,MacIntel,60,,,,,,,,,,,
,,,,,,,,,,,,,,p,1,0.692,space,0.252,0,47,47,56,1,9_dist_green/trial7.png,,,1,9,greenverival,p,73,20,female,2021-02-28_11h03.46.677,exp11,2020.2.6,MacIntel,60,,,,,,,,,,,
,,,,,,,,,,,,,,p,1,0.497,space,0.261,0,48,48,24,1,0_dist_green/trial25.png,,,1,0,greenverival,p,73,20,female,2021-02-28_11h03.46.677,exp11,2020.2.6,MacIntel,60,,,,,,,,,,,
,,,,,,,,,,,,,,p,1,0.598,space,0.319,0,49,49,66,1,9_dist_green/trial17.png,,,1,9,greenverival,p,73,20,female,2021-02-28_11h03.46.677,exp11,2020.2.6,MacIntel,60,,,,,,,,,,,
,,,,,,,,,,,,,,p,1,0.69,space,0.267,0,50,50,50,1,9_dist_green/trial1.png,,,1,9,greenverival,p,73,20,female,2021-02-28_11h03.46.677,exp11,2020.2.6,MacIntel,60,,,,,,,,,,,
,,,,,,,,,,,,,,p,1,0.431,space,0.257,0,51,51,9,1,0_dist_green/trial10.png,,,1,0,greenverival,p,73,20,female,2021-02-28_11h03.46.677,exp11,2020.2.6,MacIntel,60,,,,,,,,,,,
,,,,,,,,,,,,,,a,1,1.197,space,0.327,0,52,52,190,1,0_targ_16_dist_green/trial16.png,,,0,16,greenverival,a,73,20,female,2021-02-28_11h03.46.677,exp11,2020.2.6,MacIntel,60,,,,,,,,,,,
,,,,,,,,,,,,,,a,1,0.871,space,0.203,0,53,53,177,1,0_targ_16_dist_green/trial3.png,,,0,16,greenverival,a,73,20,female,2021-02-28_11h03.46.677,exp11,2020.2.6,MacIntel,60,,,,,,,,,,,
,,,,,,,,,,,,,,p,1,0.511,space,0.207,0,54,54,35,1,3_dist_green/trial11.png,,,1,3,greenverival,p,73,20,female,2021-02-28_11h03.46.677,exp11,2020.2.6,MacIntel,60,,,,,,,,,,,
,,,,,,,,,,,,,,a,1,0.731,space,0.234,0,55,55,138,1,0_targ_4_dist_green/trial14.png,,,0,4,greenverival,a,73,20,female,2021-02-28_11h03.46.677,exp11,2020.2.6,MacIntel,60,,,,,,,,,,,
,,,,,,,,,,,,,,a,1,0.813,space,0.194,0,56,56,197,1,0_targ_16_dist_green/trial23.png,,,0,16,greenverival,a,73,20,female,2021-02-28_11h03.46.677,exp11,2020.2.6,MacIntel,60,,,,,,,,,,,
,,,,,,,,,,,,,,a,1,1.187,space,0.17,0,57,57,189,1,0_targ_16_dist_green/trial15.png,,,0,16,greenverival,a,73,20,female,2021-02-28_11h03.46.677,exp11,2020.2.6,MacIntel,60,,,,,,,,,,,
,,,,,,,,,,,,,,a,1,0.589,space,0.2,0,58,58,133,1,0_targ_4_dist_green/trial9.png,,,0,4,greenverival,a,73,20,female,2021-02-28_11h03.46.677,exp11,2020.2.6,MacIntel,60,,,,,,,,,,,
,,,,,,,,,,,,,,a,1,0.521,space,0.217,0,59,59,146,1,0_targ_4_dist_green/trial22.png,,,0,4,greenverival,a,73,20,female,2021-02-28_11h03.46.677,exp11,2020.2.6,MacIntel,60,,,,,,,,,,,
,,,,,,,,,,,,,,p,1,0.492,space,0.22,0,60,60,0,1,0_dist_green/trial1.png,,,1,0,greenverival,p,73,20,female,2021-02-28_11h03.46.677,exp11,2020.2.6,MacIntel,60,,,,,,,,,,,
,,,,,,,,,,,,,,p,1,0.461,space,0.194,0,61,61,62,1,9_dist_green/trial13.png,,,1,9,greenverival,p,73,20,female,2021-02-28_11h03.46.677,exp11,2020.2.6,MacIntel,60,,,,,,,,,,,
,,,,,,,,,,,,,,p,1,0.412,space,0.212,0,62,62,18,1,0_dist_green/trial19.png,,,1,0,greenverival,p,73,20,female,2021-02-28_11h03.46.677,exp11,2020.2.6,MacIntel,60,,,,,,,,,,,
,,,,,,,,,,,,,,a,1,0.505,space,0.21,0,63,63,144,1,0_targ_4_dist_green/trial20.png,,,0,4,greenverival,a,73,20,female,2021-02-28_11h03.46.677,exp11,2020.2.6,MacIntel,60,,,,,,,,,,,
,,,,,,,,,,,,,,a,1,0.524,space,0.169,0,64,64,129,1,0_targ_4_dist_green/trial5.png,,,0,4,greenverival,a,73,20,female,2021-02-28_11h03.46.677,exp11,2020.2.6,MacIntel,60,,,,,,,,,,,
,,,,,,,,,,,,,,a,1,0.485,space,0.195,0,65,65,109,1,0_targ_1_dist_green/trial10.png,,,0,1,greenverival,a,73,20,female,2021-02-28_11h03.46.677,exp11,2020.2.6,MacIntel,60,,,,,,,,,,,
,,,,,,,,,,,,,,a,1,0.43,space,0.211,0,66,66,107,1,0_targ_1_dist_green/trial8.png,,,0,1,greenverival,a,73,20,female,2021-02-28_11h03.46.677,exp11,2020.2.6,MacIntel,60,,,,,,,,,,,
,,,,,,,,,,,,,,a,1,0.395,space,0.192,0,67,67,100,1,0_targ_1_dist_green/trial1.png,,,0,1,greenverival,a,73,20,female,2021-02-28_11h03.46.677,exp11,2020.2.6,MacIntel,60,,,,,,,,,,,
,,,,,,,,,,,,,,a,1,0.793,space,0.148,0,68,68,175,1,0_targ_16_dist_green/trial1.png,,,0,16,greenverival,a,73,20,female,2021-02-28_11h03.46.677,exp11,2020.2.6,MacIntel,60,,,,,,,,,,,
,,,,,,,,,,,,,,a,1,0.697,space,0.185,0,69,69,124,1,0_targ_1_dist_green/trial25.png,,,0,1,greenverival,a,73,20,female,2021-02-28_11h03.46.677,exp11,2020.2.6,MacIntel,60,,,,,,,,,,,
,,,,,,,,,,,,,,a,1,0.644,space,0.292,0,70,70,161,1,0_targ_10_dist_green/trial12.png,,,0,10,greenverival,a,73,20,female,2021-02-28_11h03.46.677,exp11,2020.2.6,MacIntel,60,,,,,,,,,,,
,,,,,,,,,,,,,,p,1,0.802,space,0.209,0,71,71,46,1,3_dist_green/trial22.png,,,1,3,greenverival,p,73,20,female,2021-02-28_11h03.46.677,exp11,2020.2.6,MacIntel,60,,,,,,,,,,,
,,,,,,,,,,,,,,a,1,0.816,space,0.208,0,72,72,150,1,0_targ_10_dist_green/trial1.png,,,0,10,greenverival,a,73,20,female,2021-02-28_11h03.46.677,exp11,2020.2.6,MacIntel,60,,,,,,,,,,,
,,,,,,,,,,,,,,p,1,0.475,space,0.193,0,73,73,7,1,0_dist_green/trial8.png,,,1,0,greenverival,p,73,20,female,2021-02-28_11h03.46.677,exp11,2020.2.6,MacIntel,60,,,,,,,,,,,
,,,,,,,,,,,,,,p,1,0.757,space,0.168,0,74,74,73,1,9_dist_green/trial24.png,,,1,9,greenverival,p,73,20,female,2021-02-28_11h03.46.677,exp11,2020.2.6,MacIntel,60,,,,,,,,,,,
,,,,,,,,,,,,,,a,1,0.725,space,0.129,0,75,75,114,1,0_targ_1_dist_green/trial15.png,,,0,1,greenverival,a,73,20,female,2021-02-28_11h03.46.677,exp11,2020.2.6,MacIntel,60,,,,,,,,,,,
,,,,,,,,,,,,,,p,1,0.804,space,0.144,0,76,76,85,1,15_dist_green/trial11.png,,,1,15,greenverival,p,73,20,female,2021-02-28_11h03.46.677,exp11,2020.2.6,MacIntel,60,,,,,,,,,,,
,,,,,,,,,,,,,,p,1,0.79,space,0.188,0,77,77,32,1,3_dist_green/trial8.png,,,1,3,greenverival,p,73,20,female,2021-02-28_11h03.46.677,exp11,2020.2.6,MacIntel,60,,,,,,,,,,,
,,,,,,,,,,,,,,p,1,0.766,space,0.355,0,78,78,27,1,3_dist_green/trial3.png,,,1,3,greenverival,p,73,20,female,2021-02-28_11h03.46.677,exp11,2020.2.6,MacIntel,60,,,,,,,,,,,
,,,,,,,,,,,,,,p,1,0.537,space,0.184,0,79,79,26,1,3_dist_green/trial2.png,,,1,3,greenverival,p,73,20,female,2021-02-28_11h03.46.677,exp11,2020.2.6,MacIntel,60,,,,,,,,,,,
,,,,,,,,,,,,,,a,1,0.657,space,0.236,0,80,80,167,1,0_targ_10_dist_green/trial18.png,,,0,10,greenverival,a,73,20,female,2021-02-28_11h03.46.677,exp11,2020.2.6,MacIntel,60,,,,,,,,,,,
,,,,,,,,,,,,,,a,1,0.92,space,0.21,0,81,81,182,1,0_targ_16_dist_green/trial8.png,,,0,16,greenverival,a,73,20,female,2021-02-28_11h03.46.677,exp11,2020.2.6,MacIntel,60,,,,,,,,,,,
,,,,,,,,,,,,,,a,1,0.593,space,0.176,0,82,82,166,1,0_targ_10_dist_green/trial17.png,,,0,10,greenverival,a,73,20,female,2021-02-28_11h03.46.677,exp11,2020.2.6,MacIntel,60,,,,,,,,,,,
,,,,,,,,,,,,,,a,1,0.694,space,0.143,0,83,83,153,1,0_targ_10_dist_green/trial4.png,,,0,10,greenverival,a,73,20,female,2021-02-28_11h03.46.677,exp11,2020.2.6,MacIntel,60,,,,,,,,,,,
,,,,,,,,,,,,,,p,1,0.48,space,0.253,0,84,84,43,1,3_dist_green/trial19.png,,,1,3,greenverival,p,73,20,female,2021-02-28_11h03.46.677,exp11,2020.2.6,MacIntel,60,,,,,,,,,,,
,,,,,,,,,,,,,,p,1,0.769,space,0.195,0,85,85,95,1,15_dist_green/trial21.png,,,1,15,greenverival,p,73,20,female,2021-02-28_11h03.46.677,exp11,2020.2.6,MacIntel,60,,,,,,,,,,,
,,,,,,,,,,,,,,a,1,0.554,space,0.211,0,86,86,117,1,0_targ_1_dist_green/trial18.png,,,0,1,greenverival,a,73,20,female,2021-02-28_11h03.46.677,exp11,2020.2.6,MacIntel,60,,,,,,,,,,,
,,,,,,,,,,,,,,a,1,0.622,space,0.213,0,87,87,102,1,0_targ_1_dist_green/trial3.png,,,0,1,greenverival,a,73,20,female,2021-02-28_11h03.46.677,exp11,2020.2.6,MacIntel,60,,,,,,,,,,,
,,,,,,,,,,,,,,p,1,0.503,space,0.232,0,88,88,5,1,0_dist_green/trial6.png,,,1,0,greenverival,p,73,20,female,2021-02-28_11h03.46.677,exp11,2020.2.6,MacIntel,60,,,,,,,,,,,
,,,,,,,,,,,,,,a,1,1.36,space,0.27,0,89,89,196,1,0_targ_16_dist_green/trial22.png,,,0,16,greenverival,a,73,20,female,2021-02-28_11h03.46.677,exp11,2020.2.6,MacIntel,60,,,,,,,,,,,
,,,,,,,,,,,,,,a,1,0.457,space,0.251,0,90,90,103,1,0_targ_1_dist_green/trial4.png,,,0,1,greenverival,a,73,20,female,2021-02-28_11h03.46.677,exp11,2020.2.6,MacIntel,60,,,,,,,,,,,
,,,,,,,,,,,,,,a,1,0.395,space,0.29,0,91,91,101,1,0_targ_1_dist_green/trial2.png,,,0,1,greenverival,a,73,20,female,2021-02-28_11h03.46.677,exp11,2020.2.6,MacIntel,60,,,,,,,,,,,
,,,,,,,,,,,,,,p,1,0.736,space,0.236,0,92,92,65,1,9_dist_green/trial16.png,,,1,9,greenverival,p,73,20,female,2021-02-28_11h03.46.677,exp11,2020.2.6,MacIntel,60,,,,,,,,,,,
,,,,,,,,,,,,,,p,1,0.678,space,0.25,0,93,93,97,1,15_dist_green/trial23.png,,,1,15,greenverival,p,73,20,female,2021-02-28_11h03.46.677,exp11,2020.2.6,MacIntel,60,,,,,,,,,,,
,,,,,,,,,,,,,,a,1,0.664,space,0.238,0,94,94,152,1,0_targ_10_dist_green/trial3.png,,,0,10,greenverival,a,73,20,female,2021-02-28_11h03.46.677,exp11,2020.2.6,MacIntel,60,,,,,,,,,,,
,,,,,,,,,,,,,,a,1,0.856,space,0.218,0,95,95,199,1,0_targ_16_dist_green/trial25.png,,,0,16,greenverival,a,73,20,female,2021-02-28_11h03.46.677,exp11,2020.2.6,MacIntel,60,,,,,,,,,,,
,,,,,,,,,,,,,,p,1,0.536,space,0.178,0,96,96,21,1,0_dist_green/trial22.png,,,1,0,greenverival,p,73,20,female,2021-02-28_11h03.46.677,exp11,2020.2.6,MacIntel,60,,,,,,,,,,,
,,,,,,,,,,,,,,a,1,0.678,space,0.177,0,97,97,121,1,0_targ_1_dist_green/trial22.png,,,0,1,greenverival,a,73,20,female,2021-02-28_11h03.46.677,exp11,2020.2.6,MacIntel,60,,,,,,,,,,,
,,,,,,,,,,,,,,a,1,0.788,space,0.437,0,98,98,168,1,0_targ_10_dist_green/trial19.png,,,0,10,greenverival,a,73,20,female,2021-02-28_11h03.46.677,exp11,2020.2.6,MacIntel,60,,,,,,,,,,,
,,,,,,,,,,,,,,a,1,0.753,space,0.269,0,99,99,180,1,0_targ_16_dist_green/trial6.png,,,0,16,greenverival,a,73,20,female,2021-02-28_11h03.46.677,exp11,2020.2.6,MacIntel,60,,,,,,,,,,,
,,,,,,,,,,,,,,p,1,0.527,space,0.187,0,100,100,34,1,3_dist_green/trial10.png,,,1,3,greenverival,p,73,20,female,2021-02-28_11h03.46.677,exp11,2020.2.6,MacIntel,60,,,,,,,,,,,
,,,,,,,,,,,,,,a,1,0.659,space,0.199,0,101,101,170,1,0_targ_10_dist_green/trial21.png,,,0,10,greenverival,a,73,20,female,2021-02-28_11h03.46.677,exp11,2020.2.6,MacIntel,60,,,,,,,,,,,
,,,,,,,,,,,,,,p,1,0.61,space,0.182,0,102,102,60,1,9_dist_green/trial11.png,,,1,9,greenverival,p,73,20,female,2021-02-28_11h03.46.677,exp11,2020.2.6,MacIntel,60,,,,,,,,,,,
,,,,,,,,,,,,,,a,1,0.744,space,0.16,0,103,103,193,1,0_targ_16_dist_green/trial19.png,,,0,16,greenverival,a,73,20,female,2021-02-28_11h03.46.677,exp11,2020.2.6,MacIntel,60,,,,,,,,,,,
,,,,,,,,,,,,,,a,0,0.804,space,3.773,0,104,104,99,1,15_dist_green/trial25.png,,,1,15,greenverival,p,73,20,female,2021-02-28_11h03.46.677,exp11,2020.2.6,MacIntel,60,,,,,,,,,,,
,,,,,,,,,,,,,,a,1,1.191,space,0.17,0,105,105,178,1,0_targ_16_dist_green/trial4.png,,,0,16,greenverival,a,73,20,female,2021-02-28_11h03.46.677,exp11,2020.2.6,MacIntel,60,,,,,,,,,,,
,,,,,,,,,,,,,,p,1,0.613,space,0.16,0,106,106,15,1,0_dist_green/trial16.png,,,1,0,greenverival,p,73,20,female,2021-02-28_11h03.46.677,exp11,2020.2.6,MacIntel,60,,,,,,,,,,,
,,,,,,,,,,,,,,a,1,0.81,space,0.17,0,107,107,140,1,0_targ_4_dist_green/trial6.png,,,0,4,greenverival,a,73,20,female,2021-02-28_11h03.46.677,exp11,2020.2.6,MacIntel,60,,,,,,,,,,,
,,,,,,,,,,,,,,p,1,0.645,space,0.17,0,108,108,20,1,0_dist_green/trial21.png,,,1,0,greenverival,p,73,20,female,2021-02-28_11h03.46.677,exp11,2020.2.6,MacIntel,60,,,,,,,,,,,
,,,,,,,,,,,,,,a,1,0.77,space,0.143,0,109,109,135,1,0_targ_4_dist_green/trial11.png,,,0,4,greenverival,a,73,20,female,2021-02-28_11h03.46.677,exp11,2020.2.6,MacIntel,60,,,,,,,,,,,
,,,,,,,,,,,,,,p,1,0.476,space,0.136,0,110,110,16,1,0_dist_green/trial17.png,,,1,0,greenverival,p,73,20,female,2021-02-28_11h03.46.677,exp11,2020.2.6,MacIntel,60,,,,,,,,,,,
,,,,,,,,,,,,,,p,1,0.654,space,0.151,0,111,111,42,1,3_dist_green/trial18.png,,,1,3,greenverival,p,73,20,female,2021-02-28_11h03.46.677,exp11,2020.2.6,MacIntel,60,,,,,,,,,,,
,,,,,,,,,,,,,,a,1,0.603,space,0.191,0,112,112,119,1,0_targ_1_dist_green/trial20.png,,,0,1,greenverival,a,73,20,female,2021-02-28_11h03.46.677,exp11,2020.2.6,MacIntel,60,,,,,,,,,,,
,,,,,,,,,,,,,,a,1,0.556,space,0.169,0,113,113,104,1,0_targ_1_dist_green/trial5.png,,,0,1,greenverival,a,73,20,female,2021-02-28_11h03.46.677,exp11,2020.2.6,MacIntel,60,,,,,,,,,,,
,,,,,,,,,,,,,,a,1,0.937,space,0.195,0,114,114,158,1,0_targ_10_dist_green/trial9.png,,,0,10,greenverival,a,73,20,female,2021-02-28_11h03.46.677,exp11,2020.2.6,MacIntel,60,,,,,,,,,,,
,,,,,,,,,,,,,,p,0,0.514,space,3.171,0,115,115,112,1,0_targ_1_dist_green/trial13.png,,,0,1,greenverival,a,73,20,female,2021-02-28_11h03.46.677,exp11,2020.2.6,MacIntel,60,,,,,,,,,,,
,,,,,,,,,,,,,,p,1,0.694,space,0.23,0,116,116,29,1,3_dist_green/trial5.png,,,1,3,greenverival,p,73,20,female,2021-02-28_11h03.46.677,exp11,2020.2.6,MacIntel,60,,,,,,,,,,,
,,,,,,,,,,,,,,a,1,0.756,space,0.232,0,117,117,142,1,0_targ_4_dist_green/trial18.png,,,0,4,greenverival,a,73,20,female,2021-02-28_11h03.46.677,exp11,2020.2.6,MacIntel,60,,,,,,,,,,,
,,,,,,,,,,,,,,p,1,0.765,space,0.284,0,118,118,91,1,15_dist_green/trial17.png,,,1,15,greenverival,p,73,20,female,2021-02-28_11h03.46.677,exp11,2020.2.6,MacIntel,60,,,,,,,,,,,
,,,,,,,,,,,,,,a,1,0.723,space,0.212,0,119,119,164,1,0_targ_10_dist_green/trial15.png,,,0,10,greenverival,a,73,20,female,2021-02-28_11h03.46.677,exp11,2020.2.6,MacIntel,60,,,,,,,,,,,
,,,,,,,,,,,,,,a,1,0.636,space,0.453,0,120,120,111,1,0_targ_1_dist_green/trial12.png,,,0,1,greenverival,a,73,20,female,2021-02-28_11h03.46.677,exp11,2020.2.6,MacIntel,60,,,,,,,,,,,
,,,,,,,,,,,,,,p,1,0.54,space,0.243,0,121,121,4,1,0_dist_green/trial5.png,,,1,0,greenverival,p,73,20,female,2021-02-28_11h03.46.677,exp11,2020.2.6,MacIntel,60,,,,,,,,,,,
,,,,,,,,,,,,,,p,1,0.856,space,0.217,0,122,122,96,1,15_dist_green/trial22.png,,,1,15,greenverival,p,73,20,female,2021-02-28_11h03.46.677,exp11,2020.2.6,MacIntel,60,,,,,,,,,,,
,,,,,,,,,,,,,,p,1,0.603,space,0.278,0,123,123,1,1,0_dist_green/trial2.png,,,1,0,greenverival,p,73,20,female,2021-02-28_11h03.46.677,exp11,2020.2.6,MacIntel,60,,,,,,,,,,,
,,,,,,,,,,,,,,p,1,0.902,space,0.21,0,124,124,75,1,15_dist_green/trial1.png,,,1,15,greenverival,p,73,20,female,2021-02-28_11h03.46.677,exp11,2020.2.6,MacIntel,60,,,,,,,,,,,
,,,,,,,,,,,,,,p,1,0.587,space,0.269,0,125,125,12,1,0_dist_green/trial13.png,,,1,0,greenverival,p,73,20,female,2021-02-28_11h03.46.677,exp11,2020.2.6,MacIntel,60,,,,,,,,,,,
,,,,,,,,,,,,,,p,1,0.455,space,0.269,0,126,126,3,1,0_dist_green/trial4.png,,,1,0,greenverival,p,73,20,female,2021-02-28_11h03.46.677,exp11,2020.2.6,MacIntel,60,,,,,,,,,,,
,,,,,,,,,,,,,,p,1,0.541,space,0.237,0,127,127,25,1,3_dist_green/trial1.png,,,1,3,greenverival,p,73,20,female,2021-02-28_11h03.46.677,exp11,2020.2.6,MacIntel,60,,,,,,,,,,,
,,,,,,,,,,,,,,a,1,1.495,space,0.302,0,128,128,181,1,0_targ_16_dist_green/trial7.png,,,0,16,greenverival,a,73,20,female,2021-02-28_11h03.46.677,exp11,2020.2.6,MacIntel,60,,,,,,,,,,,
,,,,,,,,,,,,,,a,1,0.625,space,0.236,0,129,129,130,1,0_targ_4_dist_green/trial6.png,,,0,4,greenverival,a,73,20,female,2021-02-28_11h03.46.677,exp11,2020.2.6,MacIntel,60,,,,,,,,,,,
,,,,,,,,,,,,,,p,1,0.558,space,0.234,0,130,130,13,1,0_dist_green/trial14.png,,,1,0,greenverival,p,73,20,female,2021-02-28_11h03.46.677,exp11,2020.2.6,MacIntel,60,,,,,,,,,,,
,,,,,,,,,,,,,,p,1,0.59,space,0.204,0,131,131,22,1,0_dist_green/trial23.png,,,1,0,greenverival,p,73,20,female,2021-02-28_11h03.46.677,exp11,2020.2.6,MacIntel,60,,,,,,,,,,,
,,,,,,,,,,,,,,a,1,0.618,space,0.235,0,132,132,120,1,0_targ_1_dist_green/trial21.png,,,0,1,greenverival,a,73,20,female,2021-02-28_11h03.46.677,exp11,2020.2.6,MacIntel,60,,,,,,,,,,,
,,,,,,,,,,,,,,p,1,0.663,space,0.187,0,133,133,11,1,0_dist_green/trial12.png,,,1,0,greenverival,p,73,20,female,2021-02-28_11h03.46.677,exp11,2020.2.6,MacIntel,60,,,,,,,,,,,
,,,,,,,,,,,,,,a,1,1.307,space,0.257,0,134,134,194,1,0_targ_16_dist_green/trial20.png,,,0,16,greenverival,a,73,20,female,2021-02-28_11h03.46.677,exp11,2020.2.6,MacIntel,60,,,,,,,,,,,
,,,,,,,,,,,,,,a,1,0.761,space,0.261,0,135,135,171,1,0_targ_10_dist_green/trial22.png,,,0,10,greenverival,a,73,20,female,2021-02-28_11h03.46.677,exp11,2020.2.6,MacIntel,60,,,,,,,,,,,
,,,,,,,,,,,,,,a,1,0.626,space,0.236,0,136,136,187,1,0_targ_16_dist_green/trial13.png,,,0,16,greenverival,a,73,20,female,2021-02-28_11h03.46.677,exp11,2020.2.6,MacIntel,60,,,,,,,,,,,
,,,,,,,,,,,,,,a,1,0.681,space,0.325,0,137,137,156,1,0_targ_10_dist_green/trial7.png,,,0,10,greenverival,a,73,20,female,2021-02-28_11h03.46.677,exp11,2020.2.6,MacIntel,60,,,,,,,,,,,
,,,,,,,,,,,,,,p,1,0.524,space,0.234,0,138,138,59,1,9_dist_green/trial10.png,,,1,9,greenverival,p,73,20,female,2021-02-28_11h03.46.677,exp11,2020.2.6,MacIntel,60,,,,,,,,,,,
,,,,,,,,,,,,,,a,1,0.638,space,0.22,0,139,139,163,1,0_targ_10_dist_green/trial14.png,,,0,10,greenverival,a,73,20,female,2021-02-28_11h03.46.677,exp11,2020.2.6,MacIntel,60,,,,,,,,,,,
,,,,,,,,,,,,,,p,1,1.002,space,0.174,0,140,140,70,1,9_dist_green/trial21.png,,,1,9,greenverival,p,73,20,female,2021-02-28_11h03.46.677,exp11,2020.2.6,MacIntel,60,,,,,,,,,,,
,,,,,,,,,,,,,,a,1,0.789,space,0.652,0,141,141,198,1,0_targ_16_dist_green/trial24.png,,,0,16,greenverival,a,73,20,female,2021-02-28_11h03.46.677,exp11,2020.2.6,MacIntel,60,,,,,,,,,,,
,,,,,,,,,,,,,,p,1,0.559,space,0.225,0,142,142,61,1,9_dist_green/trial12.png,,,1,9,greenverival,p,73,20,female,2021-02-28_11h03.46.677,exp11,2020.2.6,MacIntel,60,,,,,,,,,,,
,,,,,,,,,,,,,,p,1,0.87,space,0.159,0,143,143,67,1,9_dist_green/trial18.png,,,1,9,greenverival,p,73,20,female,2021-02-28_11h03.46.677,exp11,2020.2.6,MacIntel,60,,,,,,,,,,,
,,,,,,,,,,,,,,p,1,0.496,space,0.152,0,144,144,37,1,3_dist_green/trial13.png,,,1,3,greenverival,p,73,20,female,2021-02-28_11h03.46.677,exp11,2020.2.6,MacIntel,60,,,,,,,,,,,
,,,,,,,,,,,,,,p,1,0.604,space,0.177,0,145,145,31,1,3_dist_green/trial7.png,,,1,3,greenverival,p,73,20,female,2021-02-28_11h03.46.677,exp11,2020.2.6,MacIntel,60,,,,,,,,,,,
,,,,,,,,,,,,,,p,1,0.524,space,0.216,0,146,146,14,1,0_dist_green/trial15.png,,,1,0,greenverival,p,73,20,female,2021-02-28_11h03.46.677,exp11,2020.2.6,MacIntel,60,,,,,,,,,,,
,,,,,,,,,,,,,,p,1,0.705,space,0.216,0,147,147,51,1,9_dist_green/trial2.png,,,1,9,greenverival,p,73,20,female,2021-02-28_11h03.46.677,exp11,2020.2.6,MacIntel,60,,,,,,,,,,,
,,,,,,,,,,,,,,a,1,0.696,space,0.166,0,148,148,165,1,0_targ_10_dist_green/trial16.png,,,0,10,greenverival,a,73,20,female,2021-02-28_11h03.46.677,exp11,2020.2.6,MacIntel,60,,,,,,,,,,,
,,,,,,,,,,,,,,a,1,0.545,space,0.209,0,149,149,128,1,0_targ_4_dist_green/trial4.png,,,0,4,greenverival,a,73,20,female,2021-02-28_11h03.46.677,exp11,2020.2.6,MacIntel,60,,,,,,,,,,,
,,,,,,,,,,,,,,a,1,0.47,space,0.169,0,150,150,125,1,0_targ_4_dist_green/trial1.png,,,0,4,greenverival,a,73,20,female,2021-02-28_11h03.46.677,exp11,2020.2.6,MacIntel,60,,,,,,,,,,,
,,,,,,,,,,,,,,a,1,0.472,space,0.22,0,151,151,147,1,0_targ_4_dist_green/trial23.png,,,0,4,greenverival,a,73,20,female,2021-02-28_11h03.46.677,exp11,2020.2.6,MacIntel,60,,,,,,,,,,,
,,,,,,,,,,,,,,p,1,0.514,space,0.191,0,152,152,57,1,9_dist_green/trial8.png,,,1,9,greenverival,p,73,20,female,2021-02-28_11h03.46.677,exp11,2020.2.6,MacIntel,60,,,,,,,,,,,
,,,,,,,,,,,,,,a,1,0.56,space,0.194,0,153,153,110,1,0_targ_1_dist_green/trial11.png,,,0,1,greenverival,a,73,20,female,2021-02-28_11h03.46.677,exp11,2020.2.6,MacIntel,60,,,,,,,,,,,
,,,,,,,,,,,,,,a,1,0.926,space,0.154,0,154,154,173,1,0_targ_10_dist_green/trial24.png,,,0,10,greenverival,a,73,20,female,2021-02-28_11h03.46.677,exp11,2020.2.6,MacIntel,60,,,,,,,,,,,
,,,,,,,,,,,,,,p,1,0.574,space,0.17,0,155,155,90,1,15_dist_green/trial16.png,,,1,15,greenverival,p,73,20,female,2021-02-28_11h03.46.677,exp11,2020.2.6,MacIntel,60,,,,,,,,,,,
,,,,,,,,,,,,,,p,1,0.778,space,0.168,0,156,156,64,1,9_dist_green/trial15.png,,,1,9,greenverival,p,73,20,female,2021-02-28_11h03.46.677,exp11,2020.2.6,MacIntel,60,,,,,,,,,,,
,,,,,,,,,,,,,,p,1,0.54,space,0.129,0,157,157,88,1,15_dist_green/trial14.png,,,1,15,greenverival,p,73,20,female,2021-02-28_11h03.46.677,exp11,2020.2.6,MacIntel,60,,,,,,,,,,,
,,,,,,,,,,,,,,a,1,0.555,space,0.169,0,158,158,116,1,0_targ_1_dist_green/trial17.png,,,0,1,greenverival,a,73,20,female,2021-02-28_11h03.46.677,exp11,2020.2.6,MacIntel,60,,,,,,,,,,,
,,,,,,,,,,,,,,p,1,0.551,space,0.218,0,159,159,33,1,3_dist_green/trial9.png,,,1,3,greenverival,p,73,20,female,2021-02-28_11h03.46.677,exp11,2020.2.6,MacIntel,60,,,,,,,,,,,
,,,,,,,,,,,,,,p,1,1.008,space,0.177,0,160,160,81,1,15_dist_green/trial7.png,,,1,15,greenverival,p,73,20,female,2021-02-28_11h03.46.677,exp11,2020.2.6,MacIntel,60,,,,,,,,,,,
,,,,,,,,,,,,,,a,1,1.069,space,0.175,0,161,161,188,1,0_targ_16_dist_green/trial14.png,,,0,16,greenverival,a,73,20,female,2021-02-28_11h03.46.677,exp11,2020.2.6,MacIntel,60,,,,,,,,,,,
,,,,,,,,,,,,,,a,1,0.556,space,0.188,0,162,162,141,1,0_targ_4_dist_green/trial17.png,,,0,4,greenverival,a,73,20,female,2021-02-28_11h03.46.677,exp11,2020.2.6,MacIntel,60,,,,,,,,,,,
,,,,,,,,,,,,,,p,1,0.513,space,0.21,0,163,163,63,1,9_dist_green/trial14.png,,,1,9,greenverival,p,73,20,female,2021-02-28_11h03.46.677,exp11,2020.2.6,MacIntel,60,,,,,,,,,,,
,,,,,,,,,,,,,,a,1,0.626,space,0.111,0,164,164,106,1,0_targ_1_dist_green/trial7.png,,,0,1,greenverival,a,73,20,female,2021-02-28_11h03.46.677,exp11,2020.2.6,MacIntel,60,,,,,,,,,,,
,,,,,,,,,,,,,,a,1,0.573,space,0.159,0,165,165,132,1,0_targ_4_dist_green/trial8.png,,,0,4,greenverival,a,73,20,female,2021-02-28_11h03.46.677,exp11,2020.2.6,MacIntel,60,,,,,,,,,,,
,,,,,,,,,,,,,,a,1,0.694,space,0.172,0,166,166,184,1,0_targ_16_dist_green/trial10.png,,,0,16,greenverival,a,73,20,female,2021-02-28_11h03.46.677,exp11,2020.2.6,MacIntel,60,,,,,,,,,,,
,,,,,,,,,,,,,,a,1,0.779,space,0.186,0,167,167,157,1,0_targ_10_dist_green/trial8.png,,,0,10,greenverival,a,73,20,female,2021-02-28_11h03.46.677,exp11,2020.2.6,MacIntel,60,,,,,,,,,,,
,,,,,,,,,,,,,,p,1,0.477,space,0.155,0,168,168,68,1,9_dist_green/trial19.png,,,1,9,greenverival,p,73,20,female,2021-02-28_11h03.46.677,exp11,2020.2.6,MacIntel,60,,,,,,,,,,,
,,,,,,,,,,,,,,p,1,0.63,space,0.161,0,169,169,48,1,3_dist_green/trial24.png,,,1,3,greenverival,p,73,20,female,2021-02-28_11h03.46.677,exp11,2020.2.6,MacIntel,60,,,,,,,,,,,
,,,,,,,,,,,,,,a,1,0.61,space,0.149,0,170,170,192,1,0_targ_16_dist_green/trial18.png,,,0,16,greenverival,a,73,20,female,2021-02-28_11h03.46.677,exp11,2020.2.6,MacIntel,60,,,,,,,,,,,
,,,,,,,,,,,,,,p,1,0.53,space,0.2,0,171,171,44,1,3_dist_green/trial20.png,,,1,3,greenverival,p,73,20,female,2021-02-28_11h03.46.677,exp11,2020.2.6,MacIntel,60,,,,,,,,,,,
,,,,,,,,,,,,,,p,1,0.661,space,0.168,0,172,172,69,1,9_dist_green/trial20.png,,,1,9,greenverival,p,73,20,female,2021-02-28_11h03.46.677,exp11,2020.2.6,MacIntel,60,,,,,,,,,,,
,,,,,,,,,,,,,,a,1,0.416,space,0.18,0,173,173,108,1,0_targ_1_dist_green/trial9.png,,,0,1,greenverival,a,73,20,female,2021-02-28_11h03.46.677,exp11,2020.2.6,MacIntel,60,,,,,,,,,,,
,,,,,,,,,,,,,,a,1,0.825,space,0.219,0,174,174,186,1,0_targ_16_dist_green/trial12.png,,,0,16,greenverival,a,73,20,female,2021-02-28_11h03.46.677,exp11,2020.2.6,MacIntel,60,,,,,,,,,,,
,,,,,,,,,,,,,,p,1,0.524,space,0.144,0,175,175,98,1,15_dist_green/trial24.png,,,1,15,greenverival,p,73,20,female,2021-02-28_11h03.46.677,exp11,2020.2.6,MacIntel,60,,,,,,,,,,,
,,,,,,,,,,,,,,p,1,0.622,space,0.155,0,176,176,86,1,15_dist_green/trial12.png,,,1,15,greenverival,p,73,20,female,2021-02-28_11h03.46.677,exp11,2020.2.6,MacIntel,60,,,,,,,,,,,
,,,,,,,,,,,,,,p,1,0.523,space,0.146,0,177,177,2,1,0_dist_green/trial3.png,,,1,0,greenverival,p,73,20,female,2021-02-28_11h03.46.677,exp11,2020.2.6,MacIntel,60,,,,,,,,,,,
,,,,,,,,,,,,,,a,1,0.639,space,0.144,0,178,178,126,1,0_targ_4_dist_green/trial2.png,,,0,4,greenverival,a,73,20,female,2021-02-28_11h03.46.677,exp11,2020.2.6,MacIntel,60,,,,,,,,,,,
,,,,,,,,,,,,,,p,1,0.759,space,0.172,0,179,179,83,1,15_dist_green/trial9.png,,,1,15,greenverival,p,73,20,female,2021-02-28_11h03.46.677,exp11,2020.2.6,MacIntel,60,,,,,,,,,,,
,,,,,,,,,,,,,,a,1,0.614,space,0.152,0,180,180,162,1,0_targ_10_dist_green/trial13.png,,,0,10,greenverival,a,73,20,female,2021-02-28_11h03.46.677,exp11,2020.2.6,MacIntel,60,,,,,,,,,,,
,,,,,,,,,,,,,,p,1,0.738,space,0.278,0,181,181,94,1,15_dist_green/trial20.png,,,1,15,greenverival,p,73,20,female,2021-02-28_11h03.46.677,exp11,2020.2.6,MacIntel,60,,,,,,,,,,,
,,,,,,,,,,,,,,a,1,0.55,space,0.171,0,182,182,127,1,0_targ_4_dist_green/trial3.png,,,0,4,greenverival,a,73,20,female,2021-02-28_11h03.46.677,exp11,2020.2.6,MacIntel,60,,,,,,,,,,,
,,,,,,,,,,,,,,a,1,0.539,space,0.149,0,183,183,151,1,0_targ_10_dist_green/trial2.png,,,0,10,greenverival,a,73,20,female,2021-02-28_11h03.46.677,exp11,2020.2.6,MacIntel,60,,,,,,,,,,,
,,,,,,,,,,,,,,p,1,0.625,space,0.17,0,184,184,84,1,15_dist_green/trial10.png,,,1,15,greenverival,p,73,20,female,2021-02-28_11h03.46.677,exp11,2020.2.6,MacIntel,60,,,,,,,,,,,
,,,,,,,,,,,,,,a,1,0.46,space,0.153,0,185,185,136,1,0_targ_4_dist_green/trial12.png,,,0,4,greenverival,a,73,20,female,2021-02-28_11h03.46.677,exp11,2020.2.6,MacIntel,60,,,,,,,,,,,
,,,,,,,,,,,,,,a,1,0.655,space,0.135,0,186,186,154,1,0_targ_10_dist_green/trial5.png,,,0,10,greenverival,a,73,20,female,2021-02-28_11h03.46.677,exp11,2020.2.6,MacIntel,60,,,,,,,,,,,
,,,,,,,,,,,,,,a,1,0.723,space,0.156,0,187,187,191,1,0_targ_16_dist_green/trial17.png,,,0,16,greenverival,a,73,20,female,2021-02-28_11h03.46.677,exp11,2020.2.6,MacIntel,60,,,,,,,,,,,
,,,,,,,,,,,,,,p,1,0.721,space,0.16,0,188,188,28,1,3_dist_green/trial4.png,,,1,3,greenverival,p,73,20,female,2021-02-28_11h03.46.677,exp11,2020.2.6,MacIntel,60,,,,,,,,,,,
,,,,,,,,,,,,,,p,1,0.728,space,0.169,0,189,189,45,1,3_dist_green/trial21.png,,,1,3,greenverival,p,73,20,female,2021-02-28_11h03.46.677,exp11,2020.2.6,MacIntel,60,,,,,,,,,,,
,,,,,,,,,,,,,,a,1,0.606,space,0.116,0,190,190,185,1,0_targ_16_dist_green/trial11.png,,,0,16,greenverival,a,73,20,female,2021-02-28_11h03.46.677,exp11,2020.2.6,MacIntel,60,,,,,,,,,,,
,,,,,,,,,,,,,,p,1,0.621,space,0.118,0,191,191,6,1,0_dist_green/trial7.png,,,1,0,greenverival,p,73,20,female,2021-02-28_11h03.46.677,exp11,2020.2.6,MacIntel,60,,,,,,,,,,,
,,,,,,,,,,,,,,p,1,0.672,space,0.12,0,192,192,71,1,9_dist_green/trial22.png,,,1,9,greenverival,p,73,20,female,2021-02-28_11h03.46.677,exp11,2020.2.6,MacIntel,60,,,,,,,,,,,
,,,,,,,,,,,,,,a,1,0.713,space,0.093,0,193,193,118,1,0_targ_1_dist_green/trial19.png,,,0,1,greenverival,a,73,20,female,2021-02-28_11h03.46.677,exp11,2020.2.6,MacIntel,60,,,,,,,,,,,
,,,,,,,,,,,,,,a,1,0.554,space,0.096,0,194,194,123,1,0_targ_1_dist_green/trial24.png,,,0,1,greenverival,a,73,20,female,2021-02-28_11h03.46.677,exp11,2020.2.6,MacIntel,60,,,,,,,,,,,
,,,,,,,,,,,,,,p,1,0.763,space,0.118,0,195,195,78,1,15_dist_green/trial4.png,,,1,15,greenverival,p,73,20,female,2021-02-28_11h03.46.677,exp11,2020.2.6,MacIntel,60,,,,,,,,,,,
,,,,,,,,,,,,,,p,1,0.758,space,0.112,0,196,196,55,1,9_dist_green/trial6.png,,,1,9,greenverival,p,73,20,female,2021-02-28_11h03.46.677,exp11,2020.2.6,MacIntel,60,,,,,,,,,,,
,,,,,,,,,,,,,,a,1,0.678,space,0.119,0,197,197,176,1,0_targ_16_dist_green/trial2.png,,,0,16,greenverival,a,73,20,female,2021-02-28_11h03.46.677,exp11,2020.2.6,MacIntel,60,,,,,,,,,,,
,,,,,,,,,,,,,,p,1,0.857,space,0.066,0,198,198,53,1,9_dist_green/trial4.png,,,1,9,greenverival,p,73,20,female,2021-02-28_11h03.46.677,exp11,2020.2.6,MacIntel,60,,,,,,,,,,,
,,,,,,,,,,,,,,a,1,0.732,space,0.089,0,199,199,159,1,0_targ_10_dist_green/trial10.png,,,0,10,greenverival,a,73,20,female,2021-02-28_11h03.46.677,exp11,2020.2.6,MacIntel,60,,,,,,,,,,,
,,,,,,,,,,,,,,,,,,,,,,,,,,,,,,,73,20,female,2021-02-28_11h03.46.677,exp11,2020.2.6,MacIntel,60,0,0,0,0,1,conGreen.xlsx,green vertical,Look for green vertical bar (target) and indicate if it is present or absent in the array. If green vertical target is present press 'p' and if absent press 'a'. Press SPACE to start.,,,
,,,,,,,,,,space,6.699,space,2.309,p,1,1.269,space,0.154,0,0,0,86,1,15_dist_red/trial12.png,,,1,15,redHorizontal,p,73,20,female,2021-02-28_11h03.46.677,exp11,2020.2.6,MacIntel,60,,,,,,,,,,,
,,,,,,,,,,,,,,p,1,0.69,space,0.138,0,1,1,25,1,3_dist_red/trial1.png,,,1,3,redHorizontal,p,73,20,female,2021-02-28_11h03.46.677,exp11,2020.2.6,MacIntel,60,,,,,,,,,,,
,,,,,,,,,,,,,,p,1,0.558,space,0.109,0,2,2,29,1,3_dist_red/trial5.png,,,1,3,redHorizontal,p,73,20,female,2021-02-28_11h03.46.677,exp11,2020.2.6,MacIntel,60,,,,,,,,,,,
,,,,,,,,,,,,,,p,1,0.643,space,0.119,0,3,3,61,1,9_dist_red/trial12.png,,,1,9,redHorizontal,p,73,20,female,2021-02-28_11h03.46.677,exp11,2020.2.6,MacIntel,60,,,,,,,,,,,
,,,,,,,,,,,,,,p,1,0.523,space,0.087,0,4,4,0,1,0_dist_red/trial1.png,,,1,0,redHorizontal,p,73,20,female,2021-02-28_11h03.46.677,exp11,2020.2.6,MacIntel,60,,,,,,,,,,,
,,,,,,,,,,,,,,p,1,0.679,space,0.117,0,5,5,41,1,3_dist_red/trial17.png,,,1,3,redHorizontal,p,73,20,female,2021-02-28_11h03.46.677,exp11,2020.2.6,MacIntel,60,,,,,,,,,,,
,,,,,,,,,,,,,,a,1,0.873,space,0.153,0,6,6,168,1,0_targ_10_dist_red/trial19.png,,,0,10,redHorizontal,a,73,20,female,2021-02-28_11h03.46.677,exp11,2020.2.6,MacIntel,60,,,,,,,,,,,
,,,,,,,,,,,,,,a,1,0.639,space,0.113,0,7,7,172,1,0_targ_10_dist_red/trial23.png,,,0,10,redHorizontal,a,73,20,female,2021-02-28_11h03.46.677,exp11,2020.2.6,MacIntel,60,,,,,,,,,,,
,,,,,,,,,,,,,,a,1,0.731,space,0.116,0,8,8,179,1,0_targ_16_dist_red/trial5.png,,,0,16,redHorizontal,a,73,20,female,2021-02-28_11h03.46.677,exp11,2020.2.6,MacIntel,60,,,,,,,,,,,
,,,,,,,,,,,,,,p,1,0.506,space,0.116,0,9,9,46,1,3_dist_red/trial22.png,,,1,3,redHorizontal,p,73,20,female,2021-02-28_11h03.46.677,exp11,2020.2.6,MacIntel,60,,,,,,,,,,,
,,,,,,,,,,,,,,p,1,0.586,space,0.054,0,10,10,10,1,0_dist_red/trial11.png,,,1,0,redHorizontal,p,73,20,female,2021-02-28_11h03.46.677,exp11,2020.2.6,MacIntel,60,,,,,,,,,,,
,,,,,,,,,,,,,,p,1,0.431,space,0.075,0,11,11,22,1,0_dist_red/trial23.png,,,1,0,redHorizontal,p,73,20,female,2021-02-28_11h03.46.677,exp11,2020.2.6,MacIntel,60,,,,,,,,,,,
,,,,,,,,,,,,,,a,1,0.949,space,0.16,0,12,12,125,1,0_targ_4_dist_red/trial1.png,,,0,4,redHorizontal,a,73,20,female,2021-02-28_11h03.46.677,exp11,2020.2.6,MacIntel,60,,,,,,,,,,,
,,,,,,,,,,,,,,a,1,0.78,space,0.154,0,13,13,198,1,0_targ_16_dist_red/trial24.png,,,0,16,redHorizontal,a,73,20,female,2021-02-28_11h03.46.677,exp11,2020.2.6,MacIntel,60,,,,,,,,,,,
,,,,,,,,,,,,,,a,1,0.514,space,0.158,0,14,14,199,1,0_targ_16_dist_red/trial25.png,,,0,16,redHorizontal,a,73,20,female,2021-02-28_11h03.46.677,exp11,2020.2.6,MacIntel,60,,,,,,,,,,,
,,,,,,,,,,,,,,a,0,1.056,space,0.942,0,15,15,44,1,3_dist_red/trial20.png,,,1,3,redHorizontal,p,73,20,female,2021-02-28_11h03.46.677,exp11,2020.2.6,MacIntel,60,,,,,,,,,,,
,,,,,,,,,,,,,,p,1,1.094,space,0.063,0,16,16,42,1,3_dist_red/trial18.png,,,1,3,redHorizontal,p,73,20,female,2021-02-28_11h03.46.677,exp11,2020.2.6,MacIntel,60,,,,,,,,,,,
,,,,,,,,,,,,,,a,1,0.777,space,0.084,0,17,17,192,1,0_targ_16_dist_red/trial18.png,,,0,16,redHorizontal,a,73,20,female,2021-02-28_11h03.46.677,exp11,2020.2.6,MacIntel,60,,,,,,,,,,,
,,,,,,,,,,,,,,p,1,0.574,space,0.099,0,18,18,45,1,3_dist_red/trial21.png,,,1,3,redHorizontal,p,73,20,female,2021-02-28_11h03.46.677,exp11,2020.2.6,MacIntel,60,,,,,,,,,,,
,,,,,,,,,,,,,,p,1,0.823,space,0.06,0,19,19,31,1,3_dist_red/trial7.png,,,1,3,redHorizontal,p,73,20,female,2021-02-28_11h03.46.677,exp11,2020.2.6,MacIntel,60,,,,,,,,,,,
,,,,,,,,,,,,,,p,1,1.137,space,0.099,0,20,20,68,1,9_dist_red/trial19.png,,,1,9,redHorizontal,p,73,20,female,2021-02-28_11h03.46.677,exp11,2020.2.6,MacIntel,60,,,,,,,,,,,
,,,,,,,,,,,,,,a,1,0.543,space,0.109,0,21,21,112,1,0_targ_1_dist_red/trial13.png,,,0,1,redHorizontal,a,73,20,female,2021-02-28_11h03.46.677,exp11,2020.2.6,MacIntel,60,,,,,,,,,,,
,,,,,,,,,,,,,,p,1,0.628,space,0.092,0,22,22,32,1,3_dist_red/trial8.png,,,1,3,redHorizontal,p,73,20,female,2021-02-28_11h03.46.677,exp11,2020.2.6,MacIntel,60,,,,,,,,,,,
,,,,,,,,,,,,,,a,1,0.828,space,0.078,0,23,23,134,1,0_targ_4_dist_red/trial10.png,,,0,4,redHorizontal,a,73,20,female,2021-02-28_11h03.46.677,exp11,2020.2.6,MacIntel,60,,,,,,,,,,,
,,,,,,,,,,,,,,a,1,0.499,space,0.125,0,24,24,117,1,0_targ_1_dist_red/trial18.png,,,0,1,redHorizontal,a,73,20,female,2021-02-28_11h03.46.677,exp11,2020.2.6,MacIntel,60,,,,,,,,,,,
,,,,,,,,,,,,,,a,1,0.987,space,0.083,0,25,25,176,1,0_targ_16_dist_red/trial2.png,,,0,16,redHorizontal,a,73,20,female,2021-02-28_11h03.46.677,exp11,2020.2.6,MacIntel,60,,,,,,,,,,,
,,,,,,,,,,,,,,a,1,0.807,space,0.109,0,26,26,159,1,0_targ_10_dist_red/trial10.png,,,0,10,redHorizontal,a,73,20,female,2021-02-28_11h03.46.677,exp11,2020.2.6,MacIntel,60,,,,,,,,,,,
,,,,,,,,,,,,,,p,1,0.621,space,0.06,0,27,27,14,1,0_dist_red/trial15.png,,,1,0,redHorizontal,p,73,20,female,2021-02-28_11h03.46.677,exp11,2020.2.6,MacIntel,60,,,,,,,,,,,
,,,,,,,,,,,,,,p,1,0.499,space,0.093,0,28,28,23,1,0_dist_red/trial24.png,,,1,0,redHorizontal,p,73,20,female,2021-02-28_11h03.46.677,exp11,2020.2.6,MacIntel,60,,,,,,,,,,,
,,,,,,,,,,,,,,p,1,0.448,space,0.118,0,29,29,24,1,0_dist_red/trial25.png,,,1,0,redHorizontal,p,73,20,female,2021-02-28_11h03.46.677,exp11,2020.2.6,MacIntel,60,,,,,,,,,,,
,,,,,,,,,,,,,,p,1,0.975,space,0.069,0,30,30,5,1,0_dist_red/trial6.png,,,1,0,redHorizontal,p,73,20,female,2021-02-28_11h03.46.677,exp11,2020.2.6,MacIntel,60,,,,,,,,,,,
,,,,,,,,,,,,,,p,1,0.451,space,0.09,0,31,31,6,1,0_dist_red/trial7.png,,,1,0,redHorizontal,p,73,20,female,2021-02-28_11h03.46.677,exp11,2020.2.6,MacIntel,60,,,,,,,,,,,
,,,,,,,,,,,,,,p,1,0.543,space,0.152,0,32,32,9,1,0_dist_red/trial10.png,,,1,0,redHorizontal,p,73,20,female,2021-02-28_11h03.46.677,exp11,2020.2.6,MacIntel,60,,,,,,,,,,,
,,,,,,,,,,,,,,p,1,0.842,space,0.117,0,33,33,78,1,15_dist_red/trial4.png,,,1,15,redHorizontal,p,73,20,female,2021-02-28_11h03.46.677,exp11,2020.2.6,MacIntel,60,,,,,,,,,,,
,,,,,,,,,,,,,,p,1,0.86,space,0.117,0,34,34,28,1,3_dist_red/trial4.png,,,1,3,redHorizontal,p,73,20,female,2021-02-28_11h03.46.677,exp11,2020.2.6,MacIntel,60,,,,,,,,,,,
,,,,,,,,,,,,,,p,1,0.889,space,0.144,0,35,35,43,1,3_dist_red/trial19.png,,,1,3,redHorizontal,p,73,20,female,2021-02-28_11h03.46.677,exp11,2020.2.6,MacIntel,60,,,,,,,,,,,
,,,,,,,,,,,,,,a,0,0.829,space,0.444,0,36,36,98,1,15_dist_red/trial24.png,,,1,15,redHorizontal,p,73,20,female,2021-02-28_11h03.46.677,exp11,2020.2.6,MacIntel,60,,,,,,,,,,,
,,,,,,,,,,,,,,p,1,1.398,space,0.129,0,37,37,60,1,9_dist_red/trial11.png,,,1,9,redHorizontal,p,73,20,female,2021-02-28_11h03.46.677,exp11,2020.2.6,MacIntel,60,,,,,,,,,,,
,,,,,,,,,,,,,,a,1,1.156,space,0.058,0,38,38,195,1,0_targ_16_dist_red/trial21.png,,,0,16,redHorizontal,a,73,20,female,2021-02-28_11h03.46.677,exp11,2020.2.6,MacIntel,60,,,,,,,,,,,
,,,,,,,,,,,,,,p,1,0.789,space,0.051,0,39,39,56,1,9_dist_red/trial7.png,,,1,9,redHorizontal,p,73,20,female,2021-02-28_11h03.46.677,exp11,2020.2.6,MacIntel,60,,,,,,,,,,,
,,,,,,,,,,,,,,p,1,0.714,space,0.105,0,40,40,11,1,0_dist_red/trial12.png,,,1,0,redHorizontal,p,73,20,female,2021-02-28_11h03.46.677,exp11,2020.2.6,MacIntel,60,,,,,,,,,,,
,,,,,,,,,,,,,,a,1,0.996,space,0.137,0,41,41,177,1,0_targ_16_dist_red/trial3.png,,,0,16,redHorizontal,a,73,20,female,2021-02-28_11h03.46.677,exp11,2020.2.6,MacIntel,60,,,,,,,,,,,
,,,,,,,,,,,,,,p,1,0.745,space,0.095,0,42,42,33,1,3_dist_red/trial9.png,,,1,3,redHorizontal,p,73,20,female,2021-02-28_11h03.46.677,exp11,2020.2.6,MacIntel,60,,,,,,,,,,,
,,,,,,,,,,,,,,p,1,2.528,space,0.07,0,43,43,82,1,15_dist_red/trial8.png,,,1,15,redHorizontal,p,73,20,female,2021-02-28_11h03.46.677,exp11,2020.2.6,MacIntel,60,,,,,,,,,,,
,,,,,,,,,,,,,,p,1,1.02,space,0.125,0,44,44,80,1,15_dist_red/trial6.png,,,1,15,redHorizontal,p,73,20,female,2021-02-28_11h03.46.677,exp11,2020.2.6,MacIntel,60,,,,,,,,,,,
,,,,,,,,,,,,,,a,1,0.989,space,0.2,0,45,45,170,1,0_targ_10_dist_red/trial21.png,,,0,10,redHorizontal,a,73,20,female,2021-02-28_11h03.46.677,exp11,2020.2.6,MacIntel,60,,,,,,,,,,,
,,,,,,,,,,,,,,a,1,1.991,space,0.753,0,46,46,157,1,0_targ_10_dist_red/trial8.png,,,0,10,redHorizontal,a,73,20,female,2021-02-28_11h03.46.677,exp11,2020.2.6,MacIntel,60,,,,,,,,,,,
,,,,,,,,,,,,,,p,1,0.789,space,0.2,0,47,47,62,1,9_dist_red/trial13.png,,,1,9,redHorizontal,p,73,20,female,2021-02-28_11h03.46.677,exp11,2020.2.6,MacIntel,60,,,,,,,,,,,
,,,,,,,,,,,,,,a,1,0.704,space,0.132,0,48,48,116,1,0_targ_1_dist_red/trial17.png,,,0,1,redHorizontal,a,73,20,female,2021-02-28_11h03.46.677,exp11,2020.2.6,MacIntel,60,,,,,,,,,,,
,,,,,,,,,,,,,,p,1,0.704,space,0.097,0,49,49,65,1,9_dist_red/trial16.png,,,1,9,redHorizontal,p,73,20,female,2021-02-28_11h03.46.677,exp11,2020.2.6,MacIntel,60,,,,,,,,,,,
,,,,,,,,,,,,,,a,1,1.356,space,0.07,0,50,50,189,1,0_targ_16_dist_red/trial15.png,,,0,16,redHorizontal,a,73,20,female,2021-02-28_11h03.46.677,exp11,2020.2.6,MacIntel,60,,,,,,,,,,,
,,,,,,,,,,,,,,a,1,0.713,space,0.094,0,51,51,120,1,0_targ_1_dist_red/trial21.png,,,0,1,redHorizontal,a,73,20,female,2021-02-28_11h03.46.677,exp11,2020.2.6,MacIntel,60,,,,,,,,,,,
,,,,,,,,,,,,,,a,1,0.664,space,0.077,0,52,52,133,1,0_targ_4_dist_red/trial9.png,,,0,4,redHorizontal,a,73,20,female,2021-02-28_11h03.46.677,exp11,2020.2.6,MacIntel,60,,,,,,,,,,,
,,,,,,,,,,,,,,p,1,0.598,space,0.06,0,53,53,19,1,0_dist_red/trial20.png,,,1,0,redHorizontal,p,73,20,female,2021-02-28_11h03.46.677,exp11,2020.2.6,MacIntel,60,,,,,,,,,,,
,,,,,,,,,,,,,,a,1,1.69,space,0.09,0,54,54,183,1,0_targ_16_dist_red/trial9.png,,,0,16,redHorizontal,a,73,20,female,2021-02-28_11h03.46.677,exp11,2020.2.6,MacIntel,60,,,,,,,,,,,
,,,,,,,,,,,,,,p,1,0.475,space,0.103,0,55,55,21,1,0_dist_red/trial22.png,,,1,0,redHorizontal,p,73,20,female,2021-02-28_11h03.46.677,exp11,2020.2.6,MacIntel,60,,,,,,,,,,,
,,,,,,,,,,,,,,a,1,0.756,space,0.076,0,56,56,147,1,0_targ_4_dist_red/trial23.png,,,0,4,redHorizontal,a,73,20,female,2021-02-28_11h03.46.677,exp11,2020.2.6,MacIntel,60,,,,,,,,,,,
,,,,,,,,,,,,,,a,1,0.716,space,0.072,0,57,57,156,1,0_targ_10_dist_red/trial7.png,,,0,10,redHorizontal,a,73,20,female,2021-02-28_11h03.46.677,exp11,2020.2.6,MacIntel,60,,,,,,,,,,,
,,,,,,,,,,,,,,p,1,0.746,space,0.066,0,58,58,83,1,15_dist_red/trial9.png,,,1,15,redHorizontal,p,73,20,female,2021-02-28_11h03.46.677,exp11,2020.2.6,MacIntel,60,,,,,,,,,,,
,,,,,,,,,,,,,,p,1,0.727,space,0.094,0,59,59,34,1,3_dist_red/trial10.png,,,1,3,redHorizontal,p,73,20,female,2021-02-28_11h03.46.677,exp11,2020.2.6,MacIntel,60,,,,,,,,,,,
,,,,,,,,,,,,,,a,1,0.72,space,0.087,0,60,60,150,1,0_targ_10_dist_red/trial1.png,,,0,10,redHorizontal,a,73,20,female,2021-02-28_11h03.46.677,exp11,2020.2.6,MacIntel,60,,,,,,,,,,,
,,,,,,,,,,,,,,p,1,0.622,space,0.084,0,61,61,38,1,3_dist_red/trial14.png,,,1,3,redHorizontal,p,73,20,female,2021-02-28_11h03.46.677,exp11,2020.2.6,MacIntel,60,,,,,,,,,,,
,,,,,,,,,,,,,,p,1,0.796,space,0.11,0,62,62,79,1,15_dist_red/trial5.png,,,1,15,redHorizontal,p,73,20,female,2021-02-28_11h03.46.677,exp11,2020.2.6,MacIntel,60,,,,,,,,,,,
,,,,,,,,,,,,,,p,1,0.613,space,0.133,0,63,63,16,1,0_dist_red/trial17.png,,,1,0,redHorizontal,p,73,20,female,2021-02-28_11h03.46.677,exp11,2020.2.6,MacIntel,60,,,,,,,,,,,
,,,,,,,,,,,,,,a,1,0.66,space,0.119,0,64,64,166,1,0_targ_10_dist_red/trial17.png,,,0,10,redHorizontal,a,73,20,female,2021-02-28_11h03.46.677,exp11,2020.2.6,MacIntel,60,,,,,,,,,,,
,,,,,,,,,,,,,,p,1,0.606,space,0.127,0,65,65,4,1,0_dist_red/trial5.png,,,1,0,redHorizontal,p,73,20,female,2021-02-28_11h03.46.677,exp11,2020.2.6,MacIntel,60,,,,,,,,,,,
,,,,,,,,,,,,,,a,1,0.869,space,0.09,0,66,66,155,1,0_targ_10_dist_red/trial6.png,,,0,10,redHorizontal,a,73,20,female,2021-02-28_11h03.46.677,exp11,2020.2.6,MacIntel,60,,,,,,,,,,,
,,,,,,,,,,,,,,p,1,0.475,space,0.05,0,67,67,20,1,0_dist_red/trial21.png,,,1,0,redHorizontal,p,73,20,female,2021-02-28_11h03.46.677,exp11,2020.2.6,MacIntel,60,,,,,,,,,,,
,,,,,,,,,,,,,,p,0,0.713,space,1.412,0,68,68,100,1,0_targ_1_dist_red/trial1.png,,,0,1,redHorizontal,a,73,20,female,2021-02-28_11h03.46.677,exp11,2020.2.6,MacIntel,60,,,,,,,,,,,
,,,,,,,,,,,,,,a,1,1.082,space,0.138,0,69,69,182,1,0_targ_16_dist_red/trial8.png,,,0,16,redHorizontal,a,73,20,female,2021-02-28_11h03.46.677,exp11,2020.2.6,MacIntel,60,,,,,,,,,,,
,,,,,,,,,,,,,,a,1,0.66,space,0.1,0,70,70,110,1,0_targ_1_dist_red/trial11.png,,,0,1,redHorizontal,a,73,20,female,2021-02-28_11h03.46.677,exp11,2020.2.6,MacIntel,60,,,,,,,,,,,
,,,,,,,,,,,,,,a,1,0.435,space,0.067,0,71,71,101,1,0_targ_1_dist_red/trial2.png,,,0,1,redHorizontal,a,73,20,female,2021-02-28_11h03.46.677,exp11,2020.2.6,MacIntel,60,,,,,,,,,,,
,,,,,,,,,,,,,,a,1,0.944,space,0.116,0,72,72,184,1,0_targ_16_dist_red/trial10.png,,,0,16,redHorizontal,a,73,20,female,2021-02-28_11h03.46.677,exp11,2020.2.6,MacIntel,60,,,,,,,,,,,
,,,,,,,,,,,,,,a,1,0.676,space,0.093,0,73,73,146,1,0_targ_4_dist_red/trial22.png,,,0,4,redHorizontal,a,73,20,female,2021-02-28_11h03.46.677,exp11,2020.2.6,MacIntel,60,,,,,,,,,,,
,,,,,,,,,,,,,,p,1,0.524,space,0.019,0,74,74,7,1,0_dist_red/trial8.png,,,1,0,redHorizontal,p,73,20,female,2021-02-28_11h03.46.677,exp11,2020.2.6,MacIntel,60,,,,,,,,,,,
,,,,,,,,,,,,,,p,1,0.837,space,0.109,0,75,75,94,1,15_dist_red/trial20.png,,,1,15,redHorizontal,p,73,20,female,2021-02-28_11h03.46.677,exp11,2020.2.6,MacIntel,60,,,,,,,,,,,
,,,,,,,,,,,,,,p,1,0.473,space,0.056,0,76,76,3,1,0_dist_red/trial4.png,,,1,0,redHorizontal,p,73,20,female,2021-02-28_11h03.46.677,exp11,2020.2.6,MacIntel,60,,,,,,,,,,,
,,,,,,,,,,,,,,p,1,1.016,space,0.321,0,77,77,1,1,0_dist_red/trial2.png,,,1,0,redHorizontal,p,73,20,female,2021-02-28_11h03.46.677,exp11,2020.2.6,MacIntel,60,,,,,,,,,,,
,,,,,,,,,,,,,,a,1,0.685,space,0.125,0,78,78,142,1,0_targ_4_dist_red/trial18.png,,,0,4,redHorizontal,a,73,20,female,2021-02-28_11h03.46.677,exp11,2020.2.6,MacIntel,60,,,,,,,,,,,
,,,,,,,,,,,,,,a,1,0.673,space,0.105,0,79,79,186,1,0_targ_16_dist_red/trial12.png,,,0,16,redHorizontal,a,73,20,female,2021-02-28_11h03.46.677,exp11,2020.2.6,MacIntel,60,,,,,,,,,,,
,,,,,,,,,,,,,,a,1,0.62,space,0.066,0,80,80,154,1,0_targ_10_dist_red/trial5.png,,,0,10,redHorizontal,a,73,20,female,2021-02-28_11h03.46.677,exp11,2020.2.6,MacIntel,60,,,,,,,,,,,
,,,,,,,,,,,,,,a,0,0.526,space,2.521,0,81,81,70,1,9_dist_red/trial21.png,,,1,9,redHorizontal,p,73,20,female,2021-02-28_11h03.46.677,exp11,2020.2.6,MacIntel,60,,,,,,,,,,,
,,,,,,,,,,,,,,p,1,0.938,space,0.157,0,82,82,69,1,9_dist_red/trial20.png,,,1,9,redHorizontal,p,73,20,female,2021-02-28_11h03.46.677,exp11,2020.2.6,MacIntel,60,,,,,,,,,,,
,,,,,,,,,,,,,,p,1,0.542,space,0.068,0,83,83,37,1,3_dist_red/trial13.png,,,1,3,redHorizontal,p,73,20,female,2021-02-28_11h03.46.677,exp11,2020.2.6,MacIntel,60,,,,,,,,,,,
,,,,,,,,,,,,,,p,1,0.507,space,0.086,0,84,84,92,1,15_dist_red/trial18.png,,,1,15,redHorizontal,p,73,20,female,2021-02-28_11h03.46.677,exp11,2020.2.6,MacIntel,60,,,,,,,,,,,
,,,,,,,,,,,,,,a,1,0.715,space,0.066,0,85,85,173,1,0_targ_10_dist_red/trial24.png,,,0,10,redHorizontal,a,73,20,female,2021-02-28_11h03.46.677,exp11,2020.2.6,MacIntel,60,,,,,,,,,,,
,,,,,,,,,,,,,,a,1,0.658,space,0.065,0,86,86,109,1,0_targ_1_dist_red/trial10.png,,,0,1,redHorizontal,a,73,20,female,2021-02-28_11h03.46.677,exp11,2020.2.6,MacIntel,60,,,,,,,,,,,
,,,,,,,,,,,,,,p,1,0.639,space,0.053,0,87,87,74,1,9_dist_red/trial25.png,,,1,9,redHorizontal,p,73,20,female,2021-02-28_11h03.46.677,exp11,2020.2.6,MacIntel,60,,,,,,,,,,,
,,,,,,,,,,,,,,a,1,0.79,space,0.078,0,88,88,167,1,0_targ_10_dist_red/trial18.png,,,0,10,redHorizontal,a,73,20,female,2021-02-28_11h03.46.677,exp11,2020.2.6,MacIntel,60,,,,,,,,,,,
,,,,,,,,,,,,,,p,1,0.605,space,0.059,0,89,89,40,1,3_dist_red/trial16.png,,,1,3,redHorizontal,p,73,20,female,2021-02-28_11h03.46.677,exp11,2020.2.6,MacIntel,60,,,,,,,,,,,
,,,,,,,,,,,,,,a,1,1.197,space,0.393,0,90,90,121,1,0_targ_1_dist_red/trial22.png,,,0,1,redHorizontal,a,73,20,female,2021-02-28_11h03.46.677,exp11,2020.2.6,MacIntel,60,,,,,,,,,,,
,,,,,,,,,,,,,,p,1,1.321,space,0.137,0,91,91,66,1,9_dist_red/trial17.png,,,1,9,redHorizontal,p,73,20,female,2021-02-28_11h03.46.677,exp11,2020.2.6,MacIntel,60,,,,,,,,,,,
,,,,,,,,,,,,,,p,1,0.738,space,0.08,0,92,92,97,1,15_dist_red/trial23.png,,,1,15,redHorizontal,p,73,20,female,2021-02-28_11h03.46.677,exp11,2020.2.6,MacIntel,60,,,,,,,,,,,
,,,,,,,,,,,,,,a,1,0.82,space,0.07,0,93,93,193,1,0_targ_16_dist_red/trial19.png,,,0,16,redHorizontal,a,73,20,female,2021-02-28_11h03.46.677,exp11,2020.2.6,MacIntel,60,,,,,,,,,,,
,,,,,,,,,,,,,,p,1,0.767,space,0.069,0,94,94,55,1,9_dist_red/trial6.png,,,1,9,redHorizontal,p,73,20,female,2021-02-28_11h03.46.677,exp11,2020.2.6,MacIntel,60,,,,,,,,,,,
,,,,,,,,,,,,,,a,1,0.665,space,0.086,0,95,95,137,1,0_targ_4_dist_red/trial13.png,,,0,4,redHorizontal,a,73,20,female,2021-02-28_11h03.46.677,exp11,2020.2.6,MacIntel,60,,,,,,,,,,,
,,,,,,,,,,,,,,p,1,0.761,space,0.038,0,96,96,95,1,15_dist_red/trial21.png,,,1,15,redHorizontal,p,73,20,female,2021-02-28_11h03.46.677,exp11,2020.2.6,MacIntel,60,,,,,,,,,,,
,,,,,,,,,,,,,,p,1,0.847,space,0.051,0,97,97,96,1,15_dist_red/trial22.png,,,1,15,redHorizontal,p,73,20,female,2021-02-28_11h03.46.677,exp11,2020.2.6,MacIntel,60,,,,,,,,,,,
,,,,,,,,,,,,,,p,1,1.489,space,0.045,0,98,98,63,1,9_dist_red/trial14.png,,,1,9,redHorizontal,p,73,20,female,2021-02-28_11h03.46.677,exp11,2020.2.6,MacIntel,60,,,,,,,,,,,
,,,,,,,,,,,,,,a,1,0.573,space,0.076,0,99,99,128,1,0_targ_4_dist_red/trial4.png,,,0,4,redHorizontal,a,73,20,female,2021-02-28_11h03.46.677,exp11,2020.2.6,MacIntel,60,,,,,,,,,,,
,,,,,,,,,,,,,,p,1,0.654,space,0.101,0,100,100,18,1,0_dist_red/trial19.png,,,1,0,redHorizontal,p,73,20,female,2021-02-28_11h03.46.677,exp11,2020.2.6,MacIntel,60,,,,,,,,,,,
,,,,,,,,,,,,,,a,1,0.639,space,0.094,0,101,101,122,1,0_targ_1_dist_red/trial23.png,,,0,1,redHorizontal,a,73,20,female,2021-02-28_11h03.46.677,exp11,2020.2.6,MacIntel,60,,,,,,,,,,,
,,,,,,,,,,,,,,p,1,0.907,space,0.054,0,102,102,64,1,9_dist_red/trial15.png,,,1,9,redHorizontal,p,73,20,female,2021-02-28_11h03.46.677,exp11,2020.2.6,MacIntel,60,,,,,,,,,,,
,,,,,,,,,,,,,,a,1,0.585,space,0.101,0,103,103,135,1,0_targ_4_dist_red/trial11.png,,,0,4,redHorizontal,a,73,20,female,2021-02-28_11h03.46.677,exp11,2020.2.6,MacIntel,60,,,,,,,,,,,
,,,,,,,,,,,,,,a,1,0.713,space,0.071,0,104,104,163,1,0_targ_10_dist_red/trial14.png,,,0,10,redHorizontal,a,73,20,female,2021-02-28_11h03.46.677,exp11,2020.2.6,MacIntel,60,,,,,,,,,,,
,,,,,,,,,,,,,,p,1,0.623,space,0.057,0,105,105,35,1,3_dist_red/trial11.png,,,1,3,redHorizontal,p,73,20,female,2021-02-28_11h03.46.677,exp11,2020.2.6,MacIntel,60,,,,,,,,,,,
,,,,,,,,,,,,,,a,1,0.863,space,0.126,0,106,106,196,1,0_targ_16_dist_red/trial22.png,,,0,16,redHorizontal,a,73,20,female,2021-02-28_11h03.46.677,exp11,2020.2.6,MacIntel,60,,,,,,,,,,,
,,,,,,,,,,,,,,p,1,0.638,space,0.068,0,107,107,73,1,9_dist_red/trial24.png,,,1,9,redHorizontal,p,73,20,female,2021-02-28_11h03.46.677,exp11,2020.2.6,MacIntel,60,,,,,,,,,,,
,,,,,,,,,,,,,,p,1,0.643,space,0.069,0,108,108,52,1,9_dist_red/trial3.png,,,1,9,redHorizontal,p,73,20,female,2021-02-28_11h03.46.677,exp11,2020.2.6,MacIntel,60,,,,,,,,,,,
,,,,,,,,,,,,,,a,1,0.929,space,0.071,0,109,109,187,1,0_targ_16_dist_red/trial13.png,,,0,16,redHorizontal,a,73,20,female,2021-02-28_11h03.46.677,exp11,2020.2.6,MacIntel,60,,,,,,,,,,,
,,,,,,,,,,,,,,p,1,0.769,space,0.006,0,110,110,59,1,9_dist_red/trial10.png,,,1,9,redHorizontal,p,73,20,female,2021-02-28_11h03.46.677,exp11,2020.2.6,MacIntel,60,,,,,,,,,,,
,,,,,,,,,,,,,,a,0,0.891,space,0.378,0,111,111,54,1,9_dist_red/trial5.png,,,1,9,redHorizontal,p,73,20,female,2021-02-28_11h03.46.677,exp11,2020.2.6,MacIntel,60,,,,,,,,,,,
,,,,,,,,,,,,,,p,1,1.003,space,0.032,0,112,112,85,1,15_dist_red/trial11.png,,,1,15,redHorizontal,p,73,20,female,2021-02-28_11h03.46.677,exp11,2020.2.6,MacIntel,60,,,,,,,,,,,
,,,,,,,,,,,,,,a,1,0.72,space,0.109,0,113,113,132,1,0_targ_4_dist_red/trial8.png,,,0,4,redHorizontal,a,73,20,female,2021-02-28_11h03.46.677,exp11,2020.2.6,MacIntel,60,,,,,,,,,,,
,,,,,,,,,,,,,,p,1,0.573,space,0.021,0,114,114,67,1,9_dist_red/trial18.png,,,1,9,redHorizontal,p,73,20,female,2021-02-28_11h03.46.677,exp11,2020.2.6,MacIntel,60,,,,,,,,,,,
,,,,,,,,,,,,,,p,1,0.653,space,0.043,0,115,115,51,1,9_dist_red/trial2.png,,,1,9,redHorizontal,p,73,20,female,2021-02-28_11h03.46.677,exp11,2020.2.6,MacIntel,60,,,,,,,,,,,
,,,,,,,,,,,,,,a,1,0.916,space,0.019,0,116,116,161,1,0_targ_10_dist_red/trial12.png,,,0,10,redHorizontal,a,73,20,female,2021-02-28_11h03.46.677,exp11,2020.2.6,MacIntel,60,,,,,,,,,,,
,,,,,,,,,,,,,,p,0,1.036,space,0.433,0,117,117,162,1,0_targ_10_dist_red/trial13.png,,,0,10,redHorizontal,a,73,20,female,2021-02-28_11h03.46.677,exp11,2020.2.6,MacIntel,60,,,,,,,,,,,
,,,,,,,,,,,,,,a,1,1.327,space,0.057,0,118,118,126,1,0_targ_4_dist_red/trial2.png,,,0,4,redHorizontal,a,73,20,female,2021-02-28_11h03.46.677,exp11,2020.2.6,MacIntel,60,,,,,,,,,,,
,,,,,,,,,,,,,,p,1,0.809,space,0.076,0,119,119,47,1,3_dist_red/trial23.png,,,1,3,redHorizontal,p,73,20,female,2021-02-28_11h03.46.677,exp11,2020.2.6,MacIntel,60,,,,,,,,,,,
,,,,,,,,,,,,,,a,1,0.76,space,0.067,0,120,120,129,1,0_targ_4_dist_red/trial5.png,,,0,4,redHorizontal,a,73,20,female,2021-02-28_11h03.46.677,exp11,2020.2.6,MacIntel,60,,,,,,,,,,,
,,,,,,,,,,,,,,a,1,0.685,space,0.053,0,121,121,130,1,0_targ_4_dist_red/trial6.png,,,0,4,redHorizontal,a,73,20,female,2021-02-28_11h03.46.677,exp11,2020.2.6,MacIntel,60,,,,,,,,,,,
,,,,,,,,,,,,,,a,1,0.599,space,0.07,0,122,122,104,1,0_targ_1_dist_red/trial5.png,,,0,1,redHorizontal,a,73,20,female,2021-02-28_11h03.46.677,exp11,2020.2.6,MacIntel,60,,,,,,,,,,,
,,,,,,,,,,,,,,a,1,0.484,space,0.061,0,123,123,107,1,0_targ_1_dist_red/trial8.png,,,0,1,redHorizontal,a,73,20,female,2021-02-28_11h03.46.677,exp11,2020.2.6,MacIntel,60,,,,,,,,,,,
,,,,,,,,,,,,,,a,1,0.605,space,0.069,0,124,124,111,1,0_targ_1_dist_red/trial12.png,,,0,1,redHorizontal,a,73,20,female,2021-02-28_11h03.46.677,exp11,2020.2.6,MacIntel,60,,,,,,,,,,,
,,,,,,,,,,,,,,p,1,0.497,space,0.047,0,125,125,2,1,0_dist_red/trial3.png,,,1,0,redHorizontal,p,73,20,female,2021-02-28_11h03.46.677,exp11,2020.2.6,MacIntel,60,,,,,,,,,,,
,,,,,,,,,,,,,,a,1,0.606,space,0.056,0,126,126,144,1,0_targ_4_dist_red/trial20.png,,,0,4,redHorizontal,a,73,20,female,2021-02-28_11h03.46.677,exp11,2020.2.6,MacIntel,60,,,,,,,,,,,
,,,,,,,,,,,,,,p,1,0.578,space,0.025,0,127,127,50,1,9_dist_red/trial1.png,,,1,9,redHorizontal,p,73,20,female,2021-02-28_11h03.46.677,exp11,2020.2.6,MacIntel,60,,,,,,,,,,,
,,,,,,,,,,,,,,a,1,0.646,space,0.066,0,128,128,151,1,0_targ_10_dist_red/trial2.png,,,0,10,redHorizontal,a,73,20,female,2021-02-28_11h03.46.677,exp11,2020.2.6,MacIntel,60,,,,,,,,,,,
,,,,,,,,,,,,,,a,1,0.64,space,0.043,0,129,129,191,1,0_targ_16_dist_red/trial17.png,,,0,16,redHorizontal,a,73,20,female,2021-02-28_11h03.46.677,exp11,2020.2.6,MacIntel,60,,,,,,,,,,,
,,,,,,,,,,,,,,p,1,0.604,space,0.024,0,130,130,58,1,9_dist_red/trial9.png,,,1,9,redHorizontal,p,73,20,female,2021-02-28_11h03.46.677,exp11,2020.2.6,MacIntel,60,,,,,,,,,,,
,,,,,,,,,,,,,,a,1,1.389,space,0.04,0,131,131,190,1,0_targ_16_dist_red/trial16.png,,,0,16,redHorizontal,a,73,20,female,2021-02-28_11h03.46.677,exp11,2020.2.6,MacIntel,60,,,,,,,,,,,
,,,,,,,,,,,,,,p,1,0.613,space,0.084,0,132,132,15,1,0_dist_red/trial16.png,,,1,0,redHorizontal,p,73,20,female,2021-02-28_11h03.46.677,exp11,2020.2.6,MacIntel,60,,,,,,,,,,,
,,,,,,,,,,,,,,a,1,1.078,space,0.651,0,133,133,139,1,0_targ_4_dist_red/trial15.png,,,0,4,redHorizontal,a,73,20,female,2021-02-28_11h03.46.677,exp11,2020.2.6,MacIntel,60,,,,,,,,,,,
,,,,,,,,,,,,,,p,1,0.639,space,0.06,0,134,134,84,1,15_dist_red/trial10.png,,,1,15,redHorizontal,p,73,20,female,2021-02-28_11h03.46.677,exp11,2020.2.6,MacIntel,60,,,,,,,,,,,
,,,,,,,,,,,,,,p,1,0.671,space,0.07,0,135,135,71,1,9_dist_red/trial22.png,,,1,9,redHorizontal,p,73,20,female,2021-02-28_11h03.46.677,exp11,2020.2.6,MacIntel,60,,,,,,,,,,,
,,,,,,,,,,,,,,a,1,0.638,space,0.061,0,136,136,164,1,0_targ_10_dist_red/trial15.png,,,0,10,redHorizontal,a,73,20,female,2021-02-28_11h03.46.677,exp11,2020.2.6,MacIntel,60,,,,,,,,,,,
,,,,,,,,,,,,,,a,1,0.619,space,0.021,0,137,137,131,1,0_targ_4_dist_red/trial7.png,,,0,4,redHorizontal,a,73,20,female,2021-02-28_11h03.46.677,exp11,2020.2.6,MacIntel,60,,,,,,,,,,,
,,,,,,,,,,,,,,a,1,0.861,space,0.142,0,138,138,115,1,0_targ_1_dist_red/trial6.png,,,0,1,redHorizontal,a,73,20,female,2021-02-28_11h03.46.677,exp11,2020.2.6,MacIntel,60,,,,,,,,,,,
,,,,,,,,,,,,,,p,1,0.762,space,0.056,0,139,139,76,1,15_dist_red/trial2.png,,,1,15,redHorizontal,p,73,20,female,2021-02-28_11h03.46.677,exp11,2020.2.6,MacIntel,60,,,,,,,,,,,
,,,,,,,,,,,,,,a,1,0.919,space,0.046,0,140,140,158,1,0_targ_10_dist_red/trial9.png,,,0,10,redHorizontal,a,73,20,female,2021-02-28_11h03.46.677,exp11,2020.2.6,MacIntel,60,,,,,,,,,,,
,,,,,,,,,,,,,,p,1,0.619,space,0.026,0,141,141,91,1,15_dist_red/trial17.png,,,1,15,redHorizontal,p,73,20,female,2021-02-28_11h03.46.677,exp11,2020.2.6,MacIntel,60,,,,,,,,,,,
,,,,,,,,,,,,,,p,1,0.767,space,0.036,0,142,142,27,1,3_dist_red/trial3.png,,,1,3,redHorizontal,p,73,20,female,2021-02-28_11h03.46.677,exp11,2020.2.6,MacIntel,60,,,,,,,,,,,
,,,,,,,,,,,,,,a,1,1.412,space,0.128,0,143,143,197,1,0_targ_16_dist_red/trial23.png,,,0,16,redHorizontal,a,73,20,female,2021-02-28_11h03.46.677,exp11,2020.2.6,MacIntel,60,,,,,,,,,,,
,,,,,,,,,,,,,,p,1,0.555,space,0.05,0,144,144,49,1,3_dist_red/trial25.png,,,1,3,redHorizontal,p,73,20,female,2021-02-28_11h03.46.677,exp11,2020.2.6,MacIntel,60,,,,,,,,,,,
,,,,,,,,,,,,,,p,1,0.595,space,0.092,0,145,145,81,1,15_dist_red/trial7.png,,,1,15,redHorizontal,p,73,20,female,2021-02-28_11h03.46.677,exp11,2020.2.6,MacIntel,60,,,,,,,,,,,
,,,,,,,,,,,,,,a,1,0.596,space,0.076,0,146,146,114,1,0_targ_1_dist_red/trial15.png,,,0,1,redHorizontal,a,73,20,female,2021-02-28_11h03.46.677,exp11,2020.2.6,MacIntel,60,,,,,,,,,,,
,,,,,,,,,,,,,,a,1,0.922,space,0.137,0,147,147,181,1,0_targ_16_dist_red/trial7.png,,,0,16,redHorizontal,a,73,20,female,2021-02-28_11h03.46.677,exp11,2020.2.6,MacIntel,60,,,,,,,,,,,
,,,,,,,,,,,,,,a,1,0.787,space,0.077,0,148,148,188,1,0_targ_16_dist_red/trial14.png,,,0,16,redHorizontal,a,73,20,female,2021-02-28_11h03.46.677,exp11,2020.2.6,MacIntel,60,,,,,,,,,,,
,,,,,,,,,,,,,,a,1,0.407,space,1.02,0,149,149,113,1,0_targ_1_dist_red/trial14.png,,,0,1,redHorizontal,a,73,20,female,2021-02-28_11h03.46.677,exp11,2020.2.6,MacIntel,60,,,,,,,,,,,
,,,,,,,,,,,,,,p,1,0.39,space,0.109,0,150,150,13,1,0_dist_red/trial14.png,,,1,0,redHorizontal,p,73,20,female,2021-02-28_11h03.46.677,exp11,2020.2.6,MacIntel,60,,,,,,,,,,,
,,,,,,,,,,,,,,a,1,0.739,space,0.094,0,151,151,138,1,0_targ_4_dist_red/trial14.png,,,0,4,redHorizontal,a,73,20,female,2021-02-28_11h03.46.677,exp11,2020.2.6,MacIntel,60,,,,,,,,,,,
,,,,,,,,,,,,,,a,1,1.035,space,0.076,0,152,152,175,1,0_targ_16_dist_red/trial1.png,,,0,16,redHorizontal,a,73,20,female,2021-02-28_11h03.46.677,exp11,2020.2.6,MacIntel,60,,,,,,,,,,,
,,,,,,,,,,,,,,a,1,0.704,space,0.096,0,153,153,140,1,0_targ_4_dist_red/trial6.png,,,0,4,redHorizontal,a,73,20,female,2021-02-28_11h03.46.677,exp11,2020.2.6,MacIntel,60,,,,,,,,,,,
,,,,,,,,,,,,,,a,1,0.628,space,0.095,0,154,154,148,1,0_targ_4_dist_red/trial24.png,,,0,4,redHorizontal,a,73,20,female,2021-02-28_11h03.46.677,exp11,2020.2.6,MacIntel,60,,,,,,,,,,,
,,,,,,,,,,,,,,a,1,0.798,space,0.104,0,155,155,169,1,0_targ_10_dist_red/trial20.png,,,0,10,redHorizontal,a,73,20,female,2021-02-28_11h03.46.677,exp11,2020.2.6,MacIntel,60,,,,,,,,,,,
,,,,,,,,,,,,,,p,1,0.49,space,0.076,0,156,156,36,1,3_dist_red/trial12.png,,,1,3,redHorizontal,p,73,20,female,2021-02-28_11h03.46.677,exp11,2020.2.6,MacIntel,60,,,,,,,,,,,
,,,,,,,,,,,,,,a,1,0.943,space,0.567,0,157,157,103,1,0_targ_1_dist_red/trial4.png,,,0,1,redHorizontal,a,73,20,female,2021-02-28_11h03.46.677,exp11,2020.2.6,MacIntel,60,,,,,,,,,,,
,,,,,,,,,,,,,,p,1,0.895,space,0.085,0,158,158,26,1,3_dist_red/trial2.png,,,1,3,redHorizontal,p,73,20,female,2021-02-28_11h03.46.677,exp11,2020.2.6,MacIntel,60,,,,,,,,,,,
,,,,,,,,,,,,,,p,1,1.197,space,0.004,0,159,159,90,1,15_dist_red/trial16.png,,,1,15,redHorizontal,p,73,20,female,2021-02-28_11h03.46.677,exp11,2020.2.6,MacIntel,60,,,,,,,,,,,
,,,,,,,,,,,,,,a,1,0.814,space,0.061,0,160,160,160,1,0_targ_10_dist_red/trial11.png,,,0,10,redHorizontal,a,73,20,female,2021-02-28_11h03.46.677,exp11,2020.2.6,MacIntel,60,,,,,,,,,,,
,,,,,,,,,,,,,,p,1,0.646,space,0.05,0,161,161,89,1,15_dist_red/trial15.png,,,1,15,redHorizontal,p,73,20,female,2021-02-28_11h03.46.677,exp11,2020.2.6,MacIntel,60,,,,,,,,,,,
,,,,,,,,,,,,,,a,1,0.98,space,0.069,0,162,162,174,1,0_targ_10_dist_red/trial25.png,,,0,10,redHorizontal,a,73,20,female,2021-02-28_11h03.46.677,exp11,2020.2.6,MacIntel,60,,,,,,,,,,,
,,,,,,,,,,,,,,a,1,0.913,space,0.109,0,163,163,145,1,0_targ_4_dist_red/trial21.png,,,0,4,redHorizontal,a,73,20,female,2021-02-28_11h03.46.677,exp11,2020.2.6,MacIntel,60,,,,,,,,,,,
,,,,,,,,,,,,,,p,1,0.863,space,0.121,0,164,164,72,1,9_dist_red/trial23.png,,,1,9,redHorizontal,p,73,20,female,2021-02-28_11h03.46.677,exp11,2020.2.6,MacIntel,60,,,,,,,,,,,
,,,,,,,,,,,,,,p,1,0.649,space,0.11,0,165,165,57,1,9_dist_red/trial8.png,,,1,9,redHorizontal,p,73,20,female,2021-02-28_11h03.46.677,exp11,2020.2.6,MacIntel,60,,,,,,,,,,,
,,,,,,,,,,,,,,a,1,0.84,space,0.149,0,166,166,119,1,0_targ_1_dist_red/trial20.png,,,0,1,redHorizontal,a,73,20,female,2021-02-28_11h03.46.677,exp11,2020.2.6,MacIntel,60,,,,,,,,,,,
,,,,,,,,,,,,,,a,1,0.676,space,0.109,0,167,167,106,1,0_targ_1_dist_red/trial7.png,,,0,1,redHorizontal,a,73,20,female,2021-02-28_11h03.46.677,exp11,2020.2.6,MacIntel,60,,,,,,,,,,,
,,,,,,,,,,,,,,a,1,0.7,space,0.142,0,168,168,153,1,0_targ_10_dist_red/trial4.png,,,0,10,redHorizontal,a,73,20,female,2021-02-28_11h03.46.677,exp11,2020.2.6,MacIntel,60,,,,,,,,,,,
,,,,,,,,,,,,,,a,1,0.495,space,0.146,0,169,169,136,1,0_targ_4_dist_red/trial12.png,,,0,4,redHorizontal,a,73,20,female,2021-02-28_11h03.46.677,exp11,2020.2.6,MacIntel,60,,,,,,,,,,,
,,,,,,,,,,,,,,p,1,0.577,space,0.143,0,170,170,53,1,9_dist_red/trial4.png,,,1,9,redHorizontal,p,73,20,female,2021-02-28_11h03.46.677,exp11,2020.2.6,MacIntel,60,,,,,,,,,,,
,,,,,,,,,,,,,,a,1,0.747,space,0.136,0,171,171,105,1,0_targ_1_dist_red/trial6.png,,,0,1,redHorizontal,a,73,20,female,2021-02-28_11h03.46.677,exp11,2020.2.6,MacIntel,60,,,,,,,,,,,
,,,,,,,,,,,,,,a,1,0.58,space,0.12,0,172,172,108,1,0_targ_1_dist_red/trial9.png,,,0,1,redHorizontal,a,73,20,female,2021-02-28_11h03.46.677,exp11,2020.2.6,MacIntel,60,,,,,,,,,,,
,,,,,,,,,,,,,,a,1,0.587,space,0.129,0,173,173,152,1,0_targ_10_dist_red/trial3.png,,,0,10,redHorizontal,a,73,20,female,2021-02-28_11h03.46.677,exp11,2020.2.6,MacIntel,60,,,,,,,,,,,
,,,,,,,,,,,,,,a,1,0.47,space,0.136,0,174,174,102,1,0_targ_1_dist_red/trial3.png,,,0,1,redHorizontal,a,73,20,female,2021-02-28_11h03.46.677,exp11,2020.2.6,MacIntel,60,,,,,,,,,,,
,,,,,,,,,,,,,,a,1,0.662,space,0.176,0,175,175,165,1,0_targ_10_dist_red/trial16.png,,,0,10,redHorizontal,a,73,20,female,2021-02-28_11h03.46.677,exp11,2020.2.6,MacIntel,60,,,,,,,,,,,
,,,,,,,,,,,,,,p,1,0.499,space,0.1,0,176,176,88,1,15_dist_red/trial14.png,,,1,15,redHorizontal,p,73,20,female,2021-02-28_11h03.46.677,exp11,2020.2.6,MacIntel,60,,,,,,,,,,,
,,,,,,,,,,,,,,a,1,0.379,space,0.111,0,177,177,118,1,0_targ_1_dist_red/trial19.png,,,0,1,redHorizontal,a,73,20,female,2021-02-28_11h03.46.677,exp11,2020.2.6,MacIntel,60,,,,,,,,,,,
,,,,,,,,,,,,,,p,1,0.625,space,0.112,0,178,178,77,1,15_dist_red/trial3.png,,,1,15,redHorizontal,p,73,20,female,2021-02-28_11h03.46.677,exp11,2020.2.6,MacIntel,60,,,,,,,,,,,
,,,,,,,,,,,,,,a,1,0.884,space,0.085,0,179,179,180,1,0_targ_16_dist_red/trial6.png,,,0,16,redHorizontal,a,73,20,female,2021-02-28_11h03.46.677,exp11,2020.2.6,MacIntel,60,,,,,,,,,,,
,,,,,,,,,,,,,,a,1,0.792,space,0.045,0,180,180,123,1,0_targ_1_dist_red/trial24.png,,,0,1,redHorizontal,a,73,20,female,2021-02-28_11h03.46.677,exp11,2020.2.6,MacIntel,60,,,,,,,,,,,
,,,,,,,,,,,,,,a,1,0.519,space,0.061,0,181,181,141,1,0_targ_4_dist_red/trial17.png,,,0,4,redHorizontal,a,73,20,female,2021-02-28_11h03.46.677,exp11,2020.2.6,MacIntel,60,,,,,,,,,,,
,,,,,,,,,,,,,,a,1,0.783,space,0.06,0,182,182,171,1,0_targ_10_dist_red/trial22.png,,,0,10,redHorizontal,a,73,20,female,2021-02-28_11h03.46.677,exp11,2020.2.6,MacIntel,60,,,,,,,,,,,
,,,,,,,,,,,,,,a,1,0.592,space,0.109,0,183,183,127,1,0_targ_4_dist_red/trial3.png,,,0,4,redHorizontal,a,73,20,female,2021-02-28_11h03.46.677,exp11,2020.2.6,MacIntel,60,,,,,,,,,,,
,,,,,,,,,,,,,,p,1,0.617,space,0.06,0,184,184,48,1,3_dist_red/trial24.png,,,1,3,redHorizontal,p,73,20,female,2021-02-28_11h03.46.677,exp11,2020.2.6,MacIntel,60,,,,,,,,,,,
,,,,,,,,,,,,,,p,1,1.021,space,0.099,0,185,185,99,1,15_dist_red/trial25.png,,,1,15,redHorizontal,p,73,20,female,2021-02-28_11h03.46.677,exp11,2020.2.6,MacIntel,60,,,,,,,,,,,
,,,,,,,,,,,,,,p,1,0.495,space,0.085,0,186,186,93,1,15_dist_red/trial19.png,,,1,15,redHorizontal,p,73,20,female,2021-02-28_11h03.46.677,exp11,2020.2.6,MacIntel,60,,,,,,,,,,,
,,,,,,,,,,,,,,a,1,0.605,space,0.068,0,187,187,178,1,0_targ_16_dist_red/trial4.png,,,0,16,redHorizontal,a,73,20,female,2021-02-28_11h03.46.677,exp11,2020.2.6,MacIntel,60,,,,,,,,,,,
,,,,,,,,,,,,,,p,1,0.703,space,0.067,0,188,188,17,1,0_dist_red/trial18.png,,,1,0,redHorizontal,p,73,20,female,2021-02-28_11h03.46.677,exp11,2020.2.6,MacIntel,60,,,,,,,,,,,
,,,,,,,,,,,,,,p,1,0.892,space,0.116,0,189,189,30,1,3_dist_red/trial6.png,,,1,3,redHorizontal,p,73,20,female,2021-02-28_11h03.46.677,exp11,2020.2.6,MacIntel,60,,,,,,,,,,,
,,,,,,,,,,,,,,p,1,0.426,space,0.078,0,190,190,12,1,0_dist_red/trial13.png,,,1,0,redHorizontal,p,73,20,female,2021-02-28_11h03.46.677,exp11,2020.2.6,MacIntel,60,,,,,,,,,,,
,,,,,,,,,,,,,,p,1,0.592,space,0.116,0,191,191,87,1,15_dist_red/trial13.png,,,1,15,redHorizontal,p,73,20,female,2021-02-28_11h03.46.677,exp11,2020.2.6,MacIntel,60,,,,,,,,,,,
,,,,,,,,,,,,,,a,1,0.748,space,0.054,0,192,192,194,1,0_targ_16_dist_red/trial20.png,,,0,16,redHorizontal,a,73,20,female,2021-02-28_11h03.46.677,exp11,2020.2.6,MacIntel,60,,,,,,,,,,,
,,,,,,,,,,,,,,a,1,0.657,space,0.043,0,193,193,149,1,0_targ_4_dist_red/trial25.png,,,0,4,redHorizontal,a,73,20,female,2021-02-28_11h03.46.677,exp11,2020.2.6,MacIntel,60,,,,,,,,,,,
,,,,,,,,,,,,,,a,1,0.654,space,0.066,0,194,194,124,1,0_targ_1_dist_red/trial25.png,,,0,1,redHorizontal,a,73,20,female,2021-02-28_11h03.46.677,exp11,2020.2.6,MacIntel,60,,,,,,,,,,,
,,,,,,,,,,,,,,a,1,0.544,space,0.073,0,195,195,143,1,0_targ_4_dist_red/trial19.png,,,0,4,redHorizontal,a,73,20,female,2021-02-28_11h03.46.677,exp11,2020.2.6,MacIntel,60,,,,,,,,,,,
,,,,,,,,,,,,,,p,1,0.667,space,0.072,0,196,196,75,1,15_dist_red/trial1.png,,,1,15,redHorizontal,p,73,20,female,2021-02-28_11h03.46.677,exp11,2020.2.6,MacIntel,60,,,,,,,,,,,
,,,,,,,,,,,,,,p,1,0.579,space,0.1,0,197,197,8,1,0_dist_red/trial9.png,,,1,0,redHorizontal,p,73,20,female,2021-02-28_11h03.46.677,exp11,2020.2.6,MacIntel,60,,,,,,,,,,,
,,,,,,,,,,,,,,a,1,0.87,space,0.075,0,198,198,185,1,0_targ_16_dist_red/trial11.png,,,0,16,redHorizontal,a,73,20,female,2021-02-28_11h03.46.677,exp11,2020.2.6,MacIntel,60,,,,,,,,,,,
,,,,,,,,,,,,,,p,1,0.541,space,0.051,0,199,199,39,1,3_dist_red/trial15.png,,,1,3,redHorizontal,p,73,20,female,2021-02-28_11h03.46.677,exp11,2020.2.6,MacIntel,60,,,,,,,,,,,
,,,,,,,,,,,,,,,,,,,,,,,,,,,,,,,73,20,female,2021-02-28_11h03.46.677,exp11,2020.2.6,MacIntel,60,0,1,1,1,1,conRed.xlsx,red horizontal,Look for red horizontal bar (target) and indicate if it is present or absent in the array. If red horizontal target is present press 'p' and if absent press 'a'. Press SPACE to start.,,,
