key_resp_6.keys,key_resp_6.rt,key_resp_7.keys,key_resp_7.rt,key_resp_8.keys,key_resp_8.rt,key_resp_10.keys,key_resp_10.rt,key_resp_9.keys,key_resp_9.rt,key_resp_3.keys,key_resp_3.rt,key_resp_5.keys,key_resp_5.rt,key_resp.keys,key_resp.corr,key_resp.rt,key_resp_4.keys,key_resp_4.rt,trials.thisRepN,trials.thisTrialN,trials.thisN,trials.thisIndex,trials.ran,ImageFile,tarPos,tarSize,targPres,numDist,targetName,correctAns,participant,age,sex,date,expName,psychopyVersion,OS,frameRate,trials_2.thisRepN,trials_2.thisTrialN,trials_2.thisN,trials_2.thisIndex,trials_2.ran,condsFile,targName,instructionText,colTarget,sizeTarg,posit
space,4.788065,space,0.910785,space,466.41207,space,0.89868,space,0.62913,space,1.66432,space,0.84443,p,1,2.295045,space,1.299365,0,0,0,75,1,15_dist_red/trial1.png,,,1,15,redHorizontal,p,74,54,m,2021-02-18_10h43.40.938,exp11,2020.2.6,MacIntel,60,,,,,,,,,,,
,,,,,,,,,,,,,,a,1,3.65181,space,0.536925,0,1,1,180,1,0_targ_16_dist_red/trial6.png,,,0,16,redHorizontal,a,74,54,m,2021-02-18_10h43.40.938,exp11,2020.2.6,MacIntel,60,,,,,,,,,,,
,,,,,,,,,,,,,,p,1,3.566215,space,1.254195,0,2,2,11,1,0_dist_red/trial12.png,,,1,0,redHorizontal,p,74,54,m,2021-02-18_10h43.40.938,exp11,2020.2.6,MacIntel,60,,,,,,,,,,,
,,,,,,,,,,,,,,a,1,1.58973,space,0.753415,0,3,3,195,1,0_targ_16_dist_red/trial21.png,,,0,16,redHorizontal,a,74,54,m,2021-02-18_10h43.40.938,exp11,2020.2.6,MacIntel,60,,,,,,,,,,,
,,,,,,,,,,,,,,a,1,1.75761,space,0.403815,0,4,4,197,1,0_targ_16_dist_red/trial23.png,,,0,16,redHorizontal,a,74,54,m,2021-02-18_10h43.40.938,exp11,2020.2.6,MacIntel,60,,,,,,,,,,,
,,,,,,,,,,,,,,p,1,0.994425,space,0.602395,0,5,5,40,1,3_dist_red/trial16.png,,,1,3,redHorizontal,p,74,54,m,2021-02-18_10h43.40.938,exp11,2020.2.6,MacIntel,60,,,,,,,,,,,
,,,,,,,,,,,,,,a,1,1.62545,space,0.39055,0,6,6,117,1,0_targ_1_dist_red/trial18.png,,,0,1,redHorizontal,a,74,54,m,2021-02-18_10h43.40.938,exp11,2020.2.6,MacIntel,60,,,,,,,,,,,
,,,,,,,,,,,,,,p,1,0.953675,space,0.368195,0,7,7,77,1,15_dist_red/trial3.png,,,1,15,redHorizontal,p,74,54,m,2021-02-18_10h43.40.938,exp11,2020.2.6,MacIntel,60,,,,,,,,,,,
,,,,,,,,,,,,,,a,1,1.30697,space,0.38787,0,8,8,139,1,0_targ_4_dist_red/trial15.png,,,0,4,redHorizontal,a,74,54,m,2021-02-18_10h43.40.938,exp11,2020.2.6,MacIntel,60,,,,,,,,,,,
,,,,,,,,,,,,,,a,1,2.481495,space,0.40163,0,9,9,188,1,0_targ_16_dist_red/trial14.png,,,0,16,redHorizontal,a,74,54,m,2021-02-18_10h43.40.938,exp11,2020.2.6,MacIntel,60,,,,,,,,,,,
,,,,,,,,,,,,,,p,1,0.80802,space,0.33313,0,10,10,9,1,0_dist_red/trial10.png,,,1,0,redHorizontal,p,74,54,m,2021-02-18_10h43.40.938,exp11,2020.2.6,MacIntel,60,,,,,,,,,,,
,,,,,,,,,,,,,,a,1,0.723275,space,0.32295,0,11,11,137,1,0_targ_4_dist_red/trial13.png,,,0,4,redHorizontal,a,74,54,m,2021-02-18_10h43.40.938,exp11,2020.2.6,MacIntel,60,,,,,,,,,,,
,,,,,,,,,,,,,,p,1,0.91968,space,0.294705,0,12,12,82,1,15_dist_red/trial8.png,,,1,15,redHorizontal,p,74,54,m,2021-02-18_10h43.40.938,exp11,2020.2.6,MacIntel,60,,,,,,,,,,,
,,,,,,,,,,,,,,a,1,0.820315,space,0.31991,0,13,13,130,1,0_targ_4_dist_red/trial6.png,,,0,4,redHorizontal,a,74,54,m,2021-02-18_10h43.40.938,exp11,2020.2.6,MacIntel,60,,,,,,,,,,,
,,,,,,,,,,,,,,a,1,1.22362,space,0.28584,0,14,14,113,1,0_targ_1_dist_red/trial14.png,,,0,1,redHorizontal,a,74,54,m,2021-02-18_10h43.40.938,exp11,2020.2.6,MacIntel,60,,,,,,,,,,,
,,,,,,,,,,,,,,p,1,0.839805,space,0.284385,0,15,15,5,1,0_dist_red/trial6.png,,,1,0,redHorizontal,p,74,54,m,2021-02-18_10h43.40.938,exp11,2020.2.6,MacIntel,60,,,,,,,,,,,
,,,,,,,,,,,,,,a,1,1.517655,space,0.276335,0,16,16,174,1,0_targ_10_dist_red/trial25.png,,,0,10,redHorizontal,a,74,54,m,2021-02-18_10h43.40.938,exp11,2020.2.6,MacIntel,60,,,,,,,,,,,
,,,,,,,,,,,,,,p,1,1.092045,space,0.30094,0,17,17,46,1,3_dist_red/trial22.png,,,1,3,redHorizontal,p,74,54,m,2021-02-18_10h43.40.938,exp11,2020.2.6,MacIntel,60,,,,,,,,,,,
,,,,,,,,,,,,,,a,1,0.862735,space,0.27978,0,18,18,102,1,0_targ_1_dist_red/trial3.png,,,0,1,redHorizontal,a,74,54,m,2021-02-18_10h43.40.938,exp11,2020.2.6,MacIntel,60,,,,,,,,,,,
,,,,,,,,,,,,,,a,1,0.73472,space,0.288975,0,19,19,104,1,0_targ_1_dist_red/trial5.png,,,0,1,redHorizontal,a,74,54,m,2021-02-18_10h43.40.938,exp11,2020.2.6,MacIntel,60,,,,,,,,,,,
,,,,,,,,,,,,,,a,1,1.988715,space,0.254385,0,20,20,190,1,0_targ_16_dist_red/trial16.png,,,0,16,redHorizontal,a,74,54,m,2021-02-18_10h43.40.938,exp11,2020.2.6,MacIntel,60,,,,,,,,,,,
,,,,,,,,,,,,,,a,1,0.703785,space,0.232765,0,21,21,129,1,0_targ_4_dist_red/trial5.png,,,0,4,redHorizontal,a,74,54,m,2021-02-18_10h43.40.938,exp11,2020.2.6,MacIntel,60,,,,,,,,,,,
,,,,,,,,,,,,,,a,1,0.73998,space,0.20887,0,22,22,127,1,0_targ_4_dist_red/trial3.png,,,0,4,redHorizontal,a,74,54,m,2021-02-18_10h43.40.938,exp11,2020.2.6,MacIntel,60,,,,,,,,,,,
,,,,,,,,,,,,,,p,1,1.1899,space,0.20716,0,23,23,17,1,0_dist_red/trial18.png,,,1,0,redHorizontal,p,74,54,m,2021-02-18_10h43.40.938,exp11,2020.2.6,MacIntel,60,,,,,,,,,,,
,,,,,,,,,,,,,,a,1,0.80777,space,0.30078,0,24,24,100,1,0_targ_1_dist_red/trial1.png,,,0,1,redHorizontal,a,74,54,m,2021-02-18_10h43.40.938,exp11,2020.2.6,MacIntel,60,,,,,,,,,,,
,,,,,,,,,,,,,,p,1,0.987365,space,0.218395,0,25,25,89,1,15_dist_red/trial15.png,,,1,15,redHorizontal,p,74,54,m,2021-02-18_10h43.40.938,exp11,2020.2.6,MacIntel,60,,,,,,,,,,,
,,,,,,,,,,,,,,p,1,0.784475,space,0.208385,0,26,26,30,1,3_dist_red/trial6.png,,,1,3,redHorizontal,p,74,54,m,2021-02-18_10h43.40.938,exp11,2020.2.6,MacIntel,60,,,,,,,,,,,
,,,,,,,,,,,,,,a,0,0.867305,space,1.237465,0,27,27,20,1,0_dist_red/trial21.png,,,1,0,redHorizontal,p,74,54,m,2021-02-18_10h43.40.938,exp11,2020.2.6,MacIntel,60,,,,,,,,,,,
,,,,,,,,,,,,,,p,1,1.18789,space,0.36753,0,28,28,94,1,15_dist_red/trial20.png,,,1,15,redHorizontal,p,74,54,m,2021-02-18_10h43.40.938,exp11,2020.2.6,MacIntel,60,,,,,,,,,,,
,,,,,,,,,,,,,,p,1,0.75864,space,0.33524,0,29,29,92,1,15_dist_red/trial18.png,,,1,15,redHorizontal,p,74,54,m,2021-02-18_10h43.40.938,exp11,2020.2.6,MacIntel,60,,,,,,,,,,,
,,,,,,,,,,,,,,a,1,0.974915,space,0.356085,0,30,30,165,1,0_targ_10_dist_red/trial16.png,,,0,10,redHorizontal,a,74,54,m,2021-02-18_10h43.40.938,exp11,2020.2.6,MacIntel,60,,,,,,,,,,,
,,,,,,,,,,,,,,p,1,0.854915,space,0.352895,0,31,31,24,1,0_dist_red/trial25.png,,,1,0,redHorizontal,p,74,54,m,2021-02-18_10h43.40.938,exp11,2020.2.6,MacIntel,60,,,,,,,,,,,
,,,,,,,,,,,,,,a,1,1.129315,space,0.419095,0,32,32,175,1,0_targ_16_dist_red/trial1.png,,,0,16,redHorizontal,a,74,54,m,2021-02-18_10h43.40.938,exp11,2020.2.6,MacIntel,60,,,,,,,,,,,
,,,,,,,,,,,,,,a,1,0.750265,space,0.40796,0,33,33,101,1,0_targ_1_dist_red/trial2.png,,,0,1,redHorizontal,a,74,54,m,2021-02-18_10h43.40.938,exp11,2020.2.6,MacIntel,60,,,,,,,,,,,
,,,,,,,,,,,,,,a,1,0.713075,space,0.468575,0,34,34,149,1,0_targ_4_dist_red/trial25.png,,,0,4,redHorizontal,a,74,54,m,2021-02-18_10h43.40.938,exp11,2020.2.6,MacIntel,60,,,,,,,,,,,
,,,,,,,,,,,,,,a,1,1.45271,space,0.387615,0,35,35,187,1,0_targ_16_dist_red/trial13.png,,,0,16,redHorizontal,a,74,54,m,2021-02-18_10h43.40.938,exp11,2020.2.6,MacIntel,60,,,,,,,,,,,
,,,,,,,,,,,,,,a,1,1.288015,space,0.43263,0,36,36,118,1,0_targ_1_dist_red/trial19.png,,,0,1,redHorizontal,a,74,54,m,2021-02-18_10h43.40.938,exp11,2020.2.6,MacIntel,60,,,,,,,,,,,
,,,,,,,,,,,,,,p,1,0.83627,space,0.36976,0,37,37,28,1,3_dist_red/trial4.png,,,1,3,redHorizontal,p,74,54,m,2021-02-18_10h43.40.938,exp11,2020.2.6,MacIntel,60,,,,,,,,,,,
,,,,,,,,,,,,,,a,1,1.23341,space,0.403295,0,38,38,120,1,0_targ_1_dist_red/trial21.png,,,0,1,redHorizontal,a,74,54,m,2021-02-18_10h43.40.938,exp11,2020.2.6,MacIntel,60,,,,,,,,,,,
,,,,,,,,,,,,,,p,1,0.90029,space,0.38149,0,39,39,72,1,9_dist_red/trial23.png,,,1,9,redHorizontal,p,74,54,m,2021-02-18_10h43.40.938,exp11,2020.2.6,MacIntel,60,,,,,,,,,,,
,,,,,,,,,,,,,,a,1,0.726075,space,0.3842,0,40,40,153,1,0_targ_10_dist_red/trial4.png,,,0,10,redHorizontal,a,74,54,m,2021-02-18_10h43.40.938,exp11,2020.2.6,MacIntel,60,,,,,,,,,,,
,,,,,,,,,,,,,,p,1,1.19084,space,0.338305,0,41,41,87,1,15_dist_red/trial13.png,,,1,15,redHorizontal,p,74,54,m,2021-02-18_10h43.40.938,exp11,2020.2.6,MacIntel,60,,,,,,,,,,,
,,,,,,,,,,,,,,a,1,0.623635,space,0.37581,0,42,42,148,1,0_targ_4_dist_red/trial24.png,,,0,4,redHorizontal,a,74,54,m,2021-02-18_10h43.40.938,exp11,2020.2.6,MacIntel,60,,,,,,,,,,,
,,,,,,,,,,,,,,a,1,0.86341,space,0.33855,0,43,43,151,1,0_targ_10_dist_red/trial2.png,,,0,10,redHorizontal,a,74,54,m,2021-02-18_10h43.40.938,exp11,2020.2.6,MacIntel,60,,,,,,,,,,,
,,,,,,,,,,,,,,p,1,0.925815,space,0.26945,0,44,44,58,1,9_dist_red/trial9.png,,,1,9,redHorizontal,p,74,54,m,2021-02-18_10h43.40.938,exp11,2020.2.6,MacIntel,60,,,,,,,,,,,
,,,,,,,,,,,,,,a,1,1.62753,space,0.352865,0,45,45,106,1,0_targ_1_dist_red/trial7.png,,,0,1,redHorizontal,a,74,54,m,2021-02-18_10h43.40.938,exp11,2020.2.6,MacIntel,60,,,,,,,,,,,
,,,,,,,,,,,,,,a,1,0.660225,space,0.468475,0,46,46,140,1,0_targ_4_dist_red/trial6.png,,,0,4,redHorizontal,a,74,54,m,2021-02-18_10h43.40.938,exp11,2020.2.6,MacIntel,60,,,,,,,,,,,
,,,,,,,,,,,,,,a,1,0.99824,space,0.35517,0,47,47,119,1,0_targ_1_dist_red/trial20.png,,,0,1,redHorizontal,a,74,54,m,2021-02-18_10h43.40.938,exp11,2020.2.6,MacIntel,60,,,,,,,,,,,
,,,,,,,,,,,,,,a,1,0.68304,space,0.371375,0,48,48,164,1,0_targ_10_dist_red/trial15.png,,,0,10,redHorizontal,a,74,54,m,2021-02-18_10h43.40.938,exp11,2020.2.6,MacIntel,60,,,,,,,,,,,
,,,,,,,,,,,,,,a,1,0.750575,space,0.365505,0,49,49,145,1,0_targ_4_dist_red/trial21.png,,,0,4,redHorizontal,a,74,54,m,2021-02-18_10h43.40.938,exp11,2020.2.6,MacIntel,60,,,,,,,,,,,
,,,,,,,,,,,,,,a,1,1.054355,space,0.39091,0,50,50,196,1,0_targ_16_dist_red/trial22.png,,,0,16,redHorizontal,a,74,54,m,2021-02-18_10h43.40.938,exp11,2020.2.6,MacIntel,60,,,,,,,,,,,
,,,,,,,,,,,,,,a,1,0.709325,space,0.406195,0,51,51,144,1,0_targ_4_dist_red/trial20.png,,,0,4,redHorizontal,a,74,54,m,2021-02-18_10h43.40.938,exp11,2020.2.6,MacIntel,60,,,,,,,,,,,
,,,,,,,,,,,,,,p,1,0.990375,space,0.487015,0,52,52,23,1,0_dist_red/trial24.png,,,1,0,redHorizontal,p,74,54,m,2021-02-18_10h43.40.938,exp11,2020.2.6,MacIntel,60,,,,,,,,,,,
,,,,,,,,,,,,,,p,1,1.08788,space,0.35128,0,53,53,74,1,9_dist_red/trial25.png,,,1,9,redHorizontal,p,74,54,m,2021-02-18_10h43.40.938,exp11,2020.2.6,MacIntel,60,,,,,,,,,,,
,,,,,,,,,,,,,,a,1,0.70457,space,0.33665,0,54,54,146,1,0_targ_4_dist_red/trial22.png,,,0,4,redHorizontal,a,74,54,m,2021-02-18_10h43.40.938,exp11,2020.2.6,MacIntel,60,,,,,,,,,,,
,,,,,,,,,,,,,,p,1,0.836425,space,0.339745,0,55,55,76,1,15_dist_red/trial2.png,,,1,15,redHorizontal,p,74,54,m,2021-02-18_10h43.40.938,exp11,2020.2.6,MacIntel,60,,,,,,,,,,,
,,,,,,,,,,,,,,p,1,1.04119,space,0.288465,0,56,56,91,1,15_dist_red/trial17.png,,,1,15,redHorizontal,p,74,54,m,2021-02-18_10h43.40.938,exp11,2020.2.6,MacIntel,60,,,,,,,,,,,
,,,,,,,,,,,,,,p,1,1.140595,space,0.297555,0,57,57,13,1,0_dist_red/trial14.png,,,1,0,redHorizontal,p,74,54,m,2021-02-18_10h43.40.938,exp11,2020.2.6,MacIntel,60,,,,,,,,,,,
,,,,,,,,,,,,,,a,1,1.35434,space,0.321815,0,58,58,157,1,0_targ_10_dist_red/trial8.png,,,0,10,redHorizontal,a,74,54,m,2021-02-18_10h43.40.938,exp11,2020.2.6,MacIntel,60,,,,,,,,,,,
,,,,,,,,,,,,,,p,1,0.83354,space,0.356435,0,59,59,36,1,3_dist_red/trial12.png,,,1,3,redHorizontal,p,74,54,m,2021-02-18_10h43.40.938,exp11,2020.2.6,MacIntel,60,,,,,,,,,,,
,,,,,,,,,,,,,,a,1,0.655235,space,0.3574,0,60,60,122,1,0_targ_1_dist_red/trial23.png,,,0,1,redHorizontal,a,74,54,m,2021-02-18_10h43.40.938,exp11,2020.2.6,MacIntel,60,,,,,,,,,,,
,,,,,,,,,,,,,,p,1,0.84797,space,0.3204,0,61,61,29,1,3_dist_red/trial5.png,,,1,3,redHorizontal,p,74,54,m,2021-02-18_10h43.40.938,exp11,2020.2.6,MacIntel,60,,,,,,,,,,,
,,,,,,,,,,,,,,p,1,1.59007,space,0.31903,0,62,62,81,1,15_dist_red/trial7.png,,,1,15,redHorizontal,p,74,54,m,2021-02-18_10h43.40.938,exp11,2020.2.6,MacIntel,60,,,,,,,,,,,
,,,,,,,,,,,,,,a,1,0.7133,space,0.4222,0,63,63,124,1,0_targ_1_dist_red/trial25.png,,,0,1,redHorizontal,a,74,54,m,2021-02-18_10h43.40.938,exp11,2020.2.6,MacIntel,60,,,,,,,,,,,
,,,,,,,,,,,,,,a,1,0.78565,space,0.36693,0,64,64,170,1,0_targ_10_dist_red/trial21.png,,,0,10,redHorizontal,a,74,54,m,2021-02-18_10h43.40.938,exp11,2020.2.6,MacIntel,60,,,,,,,,,,,
,,,,,,,,,,,,,,a,1,1.25654,space,0.37502,0,65,65,198,1,0_targ_16_dist_red/trial24.png,,,0,16,redHorizontal,a,74,54,m,2021-02-18_10h43.40.938,exp11,2020.2.6,MacIntel,60,,,,,,,,,,,
,,,,,,,,,,,,,,p,1,0.938865,space,0.34699,0,66,66,34,1,3_dist_red/trial10.png,,,1,3,redHorizontal,p,74,54,m,2021-02-18_10h43.40.938,exp11,2020.2.6,MacIntel,60,,,,,,,,,,,
,,,,,,,,,,,,,,p,1,0.871925,space,0.36882,0,67,67,52,1,9_dist_red/trial3.png,,,1,9,redHorizontal,p,74,54,m,2021-02-18_10h43.40.938,exp11,2020.2.6,MacIntel,60,,,,,,,,,,,
,,,,,,,,,,,,,,p,0,1.47684,space,2.658535,0,68,68,110,1,0_targ_1_dist_red/trial11.png,,,0,1,redHorizontal,a,74,54,m,2021-02-18_10h43.40.938,exp11,2020.2.6,MacIntel,60,,,,,,,,,,,
,,,,,,,,,,,,,,a,1,2.31836,space,0.45217,0,69,69,128,1,0_targ_4_dist_red/trial4.png,,,0,4,redHorizontal,a,74,54,m,2021-02-18_10h43.40.938,exp11,2020.2.6,MacIntel,60,,,,,,,,,,,
,,,,,,,,,,,,,,p,1,1.337715,space,0.29397,0,70,70,64,1,9_dist_red/trial15.png,,,1,9,redHorizontal,p,74,54,m,2021-02-18_10h43.40.938,exp11,2020.2.6,MacIntel,60,,,,,,,,,,,
,,,,,,,,,,,,,,p,1,1.35459,space,0.335555,0,71,71,97,1,15_dist_red/trial23.png,,,1,15,redHorizontal,p,74,54,m,2021-02-18_10h43.40.938,exp11,2020.2.6,MacIntel,60,,,,,,,,,,,
,,,,,,,,,,,,,,p,1,1.15512,space,0.243995,0,72,72,6,1,0_dist_red/trial7.png,,,1,0,redHorizontal,p,74,54,m,2021-02-18_10h43.40.938,exp11,2020.2.6,MacIntel,60,,,,,,,,,,,
,,,,,,,,,,,,,,p,1,0.96871,space,0.33568,0,73,73,22,1,0_dist_red/trial23.png,,,1,0,redHorizontal,p,74,54,m,2021-02-18_10h43.40.938,exp11,2020.2.6,MacIntel,60,,,,,,,,,,,
,,,,,,,,,,,,,,a,1,0.87953,space,0.44312,0,74,74,103,1,0_targ_1_dist_red/trial4.png,,,0,1,redHorizontal,a,74,54,m,2021-02-18_10h43.40.938,exp11,2020.2.6,MacIntel,60,,,,,,,,,,,
,,,,,,,,,,,,,,p,1,0.93939,space,1.20441,0,75,75,88,1,15_dist_red/trial14.png,,,1,15,redHorizontal,p,74,54,m,2021-02-18_10h43.40.938,exp11,2020.2.6,MacIntel,60,,,,,,,,,,,
,,,,,,,,,,,,,,a,1,1.46261,space,0.713955,0,76,76,107,1,0_targ_1_dist_red/trial8.png,,,0,1,redHorizontal,a,74,54,m,2021-02-18_10h43.40.938,exp11,2020.2.6,MacIntel,60,,,,,,,,,,,
,,,,,,,,,,,,,,p,1,0.83763,space,0.80912,0,77,77,44,1,3_dist_red/trial20.png,,,1,3,redHorizontal,p,74,54,m,2021-02-18_10h43.40.938,exp11,2020.2.6,MacIntel,60,,,,,,,,,,,
,,,,,,,,,,,,,,p,1,1.23462,space,0.32041,0,78,78,26,1,3_dist_red/trial2.png,,,1,3,redHorizontal,p,74,54,m,2021-02-18_10h43.40.938,exp11,2020.2.6,MacIntel,60,,,,,,,,,,,
,,,,,,,,,,,,,,a,1,1.710115,space,0.39163,0,79,79,186,1,0_targ_16_dist_red/trial12.png,,,0,16,redHorizontal,a,74,54,m,2021-02-18_10h43.40.938,exp11,2020.2.6,MacIntel,60,,,,,,,,,,,
,,,,,,,,,,,,,,p,1,0.76938,space,0.402495,0,80,80,50,1,9_dist_red/trial1.png,,,1,9,redHorizontal,p,74,54,m,2021-02-18_10h43.40.938,exp11,2020.2.6,MacIntel,60,,,,,,,,,,,
,,,,,,,,,,,,,,a,1,0.9952,space,0.58566,0,81,81,152,1,0_targ_10_dist_red/trial3.png,,,0,10,redHorizontal,a,74,54,m,2021-02-18_10h43.40.938,exp11,2020.2.6,MacIntel,60,,,,,,,,,,,
,,,,,,,,,,,,,,p,1,0.74323,space,0.698775,0,82,82,83,1,15_dist_red/trial9.png,,,1,15,redHorizontal,p,74,54,m,2021-02-18_10h43.40.938,exp11,2020.2.6,MacIntel,60,,,,,,,,,,,
,,,,,,,,,,,,,,a,1,1.25457,space,0.57039,0,83,83,172,1,0_targ_10_dist_red/trial23.png,,,0,10,redHorizontal,a,74,54,m,2021-02-18_10h43.40.938,exp11,2020.2.6,MacIntel,60,,,,,,,,,,,
,,,,,,,,,,,,,,a,1,0.969535,space,0.536315,0,84,84,194,1,0_targ_16_dist_red/trial20.png,,,0,16,redHorizontal,a,74,54,m,2021-02-18_10h43.40.938,exp11,2020.2.6,MacIntel,60,,,,,,,,,,,
,,,,,,,,,,,,,,a,1,0.69214,space,0.574505,0,85,85,166,1,0_targ_10_dist_red/trial17.png,,,0,10,redHorizontal,a,74,54,m,2021-02-18_10h43.40.938,exp11,2020.2.6,MacIntel,60,,,,,,,,,,,
,,,,,,,,,,,,,,p,1,0.66732,space,0.577125,0,86,86,60,1,9_dist_red/trial11.png,,,1,9,redHorizontal,p,74,54,m,2021-02-18_10h43.40.938,exp11,2020.2.6,MacIntel,60,,,,,,,,,,,
,,,,,,,,,,,,,,p,1,0.688665,space,0.636265,0,87,87,96,1,15_dist_red/trial22.png,,,1,15,redHorizontal,p,74,54,m,2021-02-18_10h43.40.938,exp11,2020.2.6,MacIntel,60,,,,,,,,,,,
,,,,,,,,,,,,,,a,1,0.803705,space,0.63975,0,88,88,184,1,0_targ_16_dist_red/trial10.png,,,0,16,redHorizontal,a,74,54,m,2021-02-18_10h43.40.938,exp11,2020.2.6,MacIntel,60,,,,,,,,,,,
,,,,,,,,,,,,,,p,1,0.69202,space,0.61986,0,89,89,95,1,15_dist_red/trial21.png,,,1,15,redHorizontal,p,74,54,m,2021-02-18_10h43.40.938,exp11,2020.2.6,MacIntel,60,,,,,,,,,,,
,,,,,,,,,,,,,,a,1,0.78894,space,0.604035,0,90,90,138,1,0_targ_4_dist_red/trial14.png,,,0,4,redHorizontal,a,74,54,m,2021-02-18_10h43.40.938,exp11,2020.2.6,MacIntel,60,,,,,,,,,,,
,,,,,,,,,,,,,,p,1,0.69312,space,0.62035,0,91,91,80,1,15_dist_red/trial6.png,,,1,15,redHorizontal,p,74,54,m,2021-02-18_10h43.40.938,exp11,2020.2.6,MacIntel,60,,,,,,,,,,,
,,,,,,,,,,,,,,a,1,0.771595,space,0.613015,0,92,92,135,1,0_targ_4_dist_red/trial11.png,,,0,4,redHorizontal,a,74,54,m,2021-02-18_10h43.40.938,exp11,2020.2.6,MacIntel,60,,,,,,,,,,,
,,,,,,,,,,,,,,p,1,1.10518,space,0.30369,0,93,93,8,1,0_dist_red/trial9.png,,,1,0,redHorizontal,p,74,54,m,2021-02-18_10h43.40.938,exp11,2020.2.6,MacIntel,60,,,,,,,,,,,
,,,,,,,,,,,,,,p,1,0.654635,space,0.585755,0,94,94,66,1,9_dist_red/trial17.png,,,1,9,redHorizontal,p,74,54,m,2021-02-18_10h43.40.938,exp11,2020.2.6,MacIntel,60,,,,,,,,,,,
,,,,,,,,,,,,,,p,1,0.885625,space,0.269305,0,95,95,10,1,0_dist_red/trial11.png,,,1,0,redHorizontal,p,74,54,m,2021-02-18_10h43.40.938,exp11,2020.2.6,MacIntel,60,,,,,,,,,,,
,,,,,,,,,,,,,,p,1,0.972045,space,0.285055,0,96,96,1,1,0_dist_red/trial2.png,,,1,0,redHorizontal,p,74,54,m,2021-02-18_10h43.40.938,exp11,2020.2.6,MacIntel,60,,,,,,,,,,,
,,,,,,,,,,,,,,a,1,1.5724,space,0.33672,0,97,97,183,1,0_targ_16_dist_red/trial9.png,,,0,16,redHorizontal,a,74,54,m,2021-02-18_10h43.40.938,exp11,2020.2.6,MacIntel,60,,,,,,,,,,,
,,,,,,,,,,,,,,p,1,0.93542,space,0.351465,0,98,98,67,1,9_dist_red/trial18.png,,,1,9,redHorizontal,p,74,54,m,2021-02-18_10h43.40.938,exp11,2020.2.6,MacIntel,60,,,,,,,,,,,
,,,,,,,,,,,,,,p,1,0.880095,space,0.2822,0,99,99,7,1,0_dist_red/trial8.png,,,1,0,redHorizontal,p,74,54,m,2021-02-18_10h43.40.938,exp11,2020.2.6,MacIntel,60,,,,,,,,,,,
,,,,,,,,,,,,,,p,1,0.878785,space,0.35147,0,100,100,65,1,9_dist_red/trial16.png,,,1,9,redHorizontal,p,74,54,m,2021-02-18_10h43.40.938,exp11,2020.2.6,MacIntel,60,,,,,,,,,,,
,,,,,,,,,,,,,,a,1,0.81744,space,0.320995,0,101,101,109,1,0_targ_1_dist_red/trial10.png,,,0,1,redHorizontal,a,74,54,m,2021-02-18_10h43.40.938,exp11,2020.2.6,MacIntel,60,,,,,,,,,,,
,,,,,,,,,,,,,,a,1,0.67028,space,0.476955,0,102,102,162,1,0_targ_10_dist_red/trial13.png,,,0,10,redHorizontal,a,74,54,m,2021-02-18_10h43.40.938,exp11,2020.2.6,MacIntel,60,,,,,,,,,,,
,,,,,,,,,,,,,,a,1,0.702455,space,0.611565,0,103,103,193,1,0_targ_16_dist_red/trial19.png,,,0,16,redHorizontal,a,74,54,m,2021-02-18_10h43.40.938,exp11,2020.2.6,MacIntel,60,,,,,,,,,,,
,,,,,,,,,,,,,,a,1,0.66648,space,0.6542,0,104,104,134,1,0_targ_4_dist_red/trial10.png,,,0,4,redHorizontal,a,74,54,m,2021-02-18_10h43.40.938,exp11,2020.2.6,MacIntel,60,,,,,,,,,,,
,,,,,,,,,,,,,,p,1,1.316225,space,0.352965,0,105,105,47,1,3_dist_red/trial23.png,,,1,3,redHorizontal,p,74,54,m,2021-02-18_10h43.40.938,exp11,2020.2.6,MacIntel,60,,,,,,,,,,,
,,,,,,,,,,,,,,p,1,0.96752,space,0.468825,0,106,106,73,1,9_dist_red/trial24.png,,,1,9,redHorizontal,p,74,54,m,2021-02-18_10h43.40.938,exp11,2020.2.6,MacIntel,60,,,,,,,,,,,
,,,,,,,,,,,,,,a,1,1.66403,space,0.6219,0,107,107,133,1,0_targ_4_dist_red/trial9.png,,,0,4,redHorizontal,a,74,54,m,2021-02-18_10h43.40.938,exp11,2020.2.6,MacIntel,60,,,,,,,,,,,
,,,,,,,,,,,,,,p,1,0.958055,space,0.3523,0,108,108,19,1,0_dist_red/trial20.png,,,1,0,redHorizontal,p,74,54,m,2021-02-18_10h43.40.938,exp11,2020.2.6,MacIntel,60,,,,,,,,,,,
,,,,,,,,,,,,,,a,1,0.73443,space,0.592075,0,109,109,108,1,0_targ_1_dist_red/trial9.png,,,0,1,redHorizontal,a,74,54,m,2021-02-18_10h43.40.938,exp11,2020.2.6,MacIntel,60,,,,,,,,,,,
,,,,,,,,,,,,,,a,1,0.941275,space,0.34264,0,110,110,177,1,0_targ_16_dist_red/trial3.png,,,0,16,redHorizontal,a,74,54,m,2021-02-18_10h43.40.938,exp11,2020.2.6,MacIntel,60,,,,,,,,,,,
,,,,,,,,,,,,,,p,1,0.67704,space,0.63918,0,111,111,2,1,0_dist_red/trial3.png,,,1,0,redHorizontal,p,74,54,m,2021-02-18_10h43.40.938,exp11,2020.2.6,MacIntel,60,,,,,,,,,,,
,,,,,,,,,,,,,,p,1,0.973255,space,0.29228,0,112,112,43,1,3_dist_red/trial19.png,,,1,3,redHorizontal,p,74,54,m,2021-02-18_10h43.40.938,exp11,2020.2.6,MacIntel,60,,,,,,,,,,,
,,,,,,,,,,,,,,a,1,0.689455,space,0.6003,0,113,113,161,1,0_targ_10_dist_red/trial12.png,,,0,10,redHorizontal,a,74,54,m,2021-02-18_10h43.40.938,exp11,2020.2.6,MacIntel,60,,,,,,,,,,,
,,,,,,,,,,,,,,a,1,1.05375,space,0.318715,0,114,114,111,1,0_targ_1_dist_red/trial12.png,,,0,1,redHorizontal,a,74,54,m,2021-02-18_10h43.40.938,exp11,2020.2.6,MacIntel,60,,,,,,,,,,,
,,,,,,,,,,,,,,a,1,0.69102,space,0.66843,0,115,115,159,1,0_targ_10_dist_red/trial10.png,,,0,10,redHorizontal,a,74,54,m,2021-02-18_10h43.40.938,exp11,2020.2.6,MacIntel,60,,,,,,,,,,,
,,,,,,,,,,,,,,p,1,0.886165,space,0.335425,0,116,116,27,1,3_dist_red/trial3.png,,,1,3,redHorizontal,p,74,54,m,2021-02-18_10h43.40.938,exp11,2020.2.6,MacIntel,60,,,,,,,,,,,
,,,,,,,,,,,,,,a,1,1.137375,space,0.33751,0,117,117,158,1,0_targ_10_dist_red/trial9.png,,,0,10,redHorizontal,a,74,54,m,2021-02-18_10h43.40.938,exp11,2020.2.6,MacIntel,60,,,,,,,,,,,
,,,,,,,,,,,,,,p,1,0.897345,space,0.32335,0,118,118,21,1,0_dist_red/trial22.png,,,1,0,redHorizontal,p,74,54,m,2021-02-18_10h43.40.938,exp11,2020.2.6,MacIntel,60,,,,,,,,,,,
,,,,,,,,,,,,,,a,1,0.6417,space,0.609335,0,119,119,132,1,0_targ_4_dist_red/trial8.png,,,0,4,redHorizontal,a,74,54,m,2021-02-18_10h43.40.938,exp11,2020.2.6,MacIntel,60,,,,,,,,,,,
,,,,,,,,,,,,,,p,1,0.96072,space,0.30666,0,120,120,51,1,9_dist_red/trial2.png,,,1,9,redHorizontal,p,74,54,m,2021-02-18_10h43.40.938,exp11,2020.2.6,MacIntel,60,,,,,,,,,,,
,,,,,,,,,,,,,,a,1,0.61884,space,0.63784,0,121,121,192,1,0_targ_16_dist_red/trial18.png,,,0,16,redHorizontal,a,74,54,m,2021-02-18_10h43.40.938,exp11,2020.2.6,MacIntel,60,,,,,,,,,,,
,,,,,,,,,,,,,,a,1,1.040105,space,0.326505,0,122,122,121,1,0_targ_1_dist_red/trial22.png,,,0,1,redHorizontal,a,74,54,m,2021-02-18_10h43.40.938,exp11,2020.2.6,MacIntel,60,,,,,,,,,,,
,,,,,,,,,,,,,,p,1,0.91414,space,0.420515,0,123,123,85,1,15_dist_red/trial11.png,,,1,15,redHorizontal,p,74,54,m,2021-02-18_10h43.40.938,exp11,2020.2.6,MacIntel,60,,,,,,,,,,,
,,,,,,,,,,,,,,a,1,0.958975,space,0.337515,0,124,124,123,1,0_targ_1_dist_red/trial24.png,,,0,1,redHorizontal,a,74,54,m,2021-02-18_10h43.40.938,exp11,2020.2.6,MacIntel,60,,,,,,,,,,,
,,,,,,,,,,,,,,p,1,0.93583,space,0.306715,0,125,125,4,1,0_dist_red/trial5.png,,,1,0,redHorizontal,p,74,54,m,2021-02-18_10h43.40.938,exp11,2020.2.6,MacIntel,60,,,,,,,,,,,
,,,,,,,,,,,,,,a,1,0.5956,space,0.634765,0,126,126,168,1,0_targ_10_dist_red/trial19.png,,,0,10,redHorizontal,a,74,54,m,2021-02-18_10h43.40.938,exp11,2020.2.6,MacIntel,60,,,,,,,,,,,
,,,,,,,,,,,,,,p,1,1.271305,space,0.27398,0,127,127,31,1,3_dist_red/trial7.png,,,1,3,redHorizontal,p,74,54,m,2021-02-18_10h43.40.938,exp11,2020.2.6,MacIntel,60,,,,,,,,,,,
,,,,,,,,,,,,,,a,1,0.653485,space,0.62033,0,128,128,181,1,0_targ_16_dist_red/trial7.png,,,0,16,redHorizontal,a,74,54,m,2021-02-18_10h43.40.938,exp11,2020.2.6,MacIntel,60,,,,,,,,,,,
,,,,,,,,,,,,,,p,0,1.17508,space,2.1071,0,129,129,105,1,0_targ_1_dist_red/trial6.png,,,0,1,redHorizontal,a,74,54,m,2021-02-18_10h43.40.938,exp11,2020.2.6,MacIntel,60,,,,,,,,,,,
,,,,,,,,,,,,,,p,1,1.030515,space,0.289575,0,130,130,39,1,3_dist_red/trial15.png,,,1,3,redHorizontal,p,74,54,m,2021-02-18_10h43.40.938,exp11,2020.2.6,MacIntel,60,,,,,,,,,,,
,,,,,,,,,,,,,,p,1,0.937535,space,0.337715,0,131,131,78,1,15_dist_red/trial4.png,,,1,15,redHorizontal,p,74,54,m,2021-02-18_10h43.40.938,exp11,2020.2.6,MacIntel,60,,,,,,,,,,,
,,,,,,,,,,,,,,a,1,0.85872,space,0.26087,0,132,132,189,1,0_targ_16_dist_red/trial15.png,,,0,16,redHorizontal,a,74,54,m,2021-02-18_10h43.40.938,exp11,2020.2.6,MacIntel,60,,,,,,,,,,,
,,,,,,,,,,,,,,p,1,0.820535,space,0.27649,0,133,133,45,1,3_dist_red/trial21.png,,,1,3,redHorizontal,p,74,54,m,2021-02-18_10h43.40.938,exp11,2020.2.6,MacIntel,60,,,,,,,,,,,
,,,,,,,,,,,,,,p,1,0.903055,space,0.277935,0,134,134,56,1,9_dist_red/trial7.png,,,1,9,redHorizontal,p,74,54,m,2021-02-18_10h43.40.938,exp11,2020.2.6,MacIntel,60,,,,,,,,,,,
,,,,,,,,,,,,,,p,1,1.023145,space,0.319485,0,135,135,79,1,15_dist_red/trial5.png,,,1,15,redHorizontal,p,74,54,m,2021-02-18_10h43.40.938,exp11,2020.2.6,MacIntel,60,,,,,,,,,,,
,,,,,,,,,,,,,,a,1,0.9986,space,0.42508,0,136,136,154,1,0_targ_10_dist_red/trial5.png,,,0,10,redHorizontal,a,74,54,m,2021-02-18_10h43.40.938,exp11,2020.2.6,MacIntel,60,,,,,,,,,,,
,,,,,,,,,,,,,,p,1,0.862345,space,0.31788,0,137,137,62,1,9_dist_red/trial13.png,,,1,9,redHorizontal,p,74,54,m,2021-02-18_10h43.40.938,exp11,2020.2.6,MacIntel,60,,,,,,,,,,,
,,,,,,,,,,,,,,p,1,0.724325,space,0.3398,0,138,138,59,1,9_dist_red/trial10.png,,,1,9,redHorizontal,p,74,54,m,2021-02-18_10h43.40.938,exp11,2020.2.6,MacIntel,60,,,,,,,,,,,
,,,,,,,,,,,,,,p,1,0.854585,space,0.23098,0,139,139,25,1,3_dist_red/trial1.png,,,1,3,redHorizontal,p,74,54,m,2021-02-18_10h43.40.938,exp11,2020.2.6,MacIntel,60,,,,,,,,,,,
,,,,,,,,,,,,,,p,1,0.73551,space,0.351465,0,140,140,68,1,9_dist_red/trial19.png,,,1,9,redHorizontal,p,74,54,m,2021-02-18_10h43.40.938,exp11,2020.2.6,MacIntel,60,,,,,,,,,,,
,,,,,,,,,,,,,,a,1,0.55557,space,0.491345,0,141,141,173,1,0_targ_10_dist_red/trial24.png,,,0,10,redHorizontal,a,74,54,m,2021-02-18_10h43.40.938,exp11,2020.2.6,MacIntel,60,,,,,,,,,,,
,,,,,,,,,,,,,,a,1,0.773725,space,0.291375,0,142,142,112,1,0_targ_1_dist_red/trial13.png,,,0,1,redHorizontal,a,74,54,m,2021-02-18_10h43.40.938,exp11,2020.2.6,MacIntel,60,,,,,,,,,,,
,,,,,,,,,,,,,,p,1,0.90614,space,0.28492,0,143,143,98,1,15_dist_red/trial24.png,,,1,15,redHorizontal,p,74,54,m,2021-02-18_10h43.40.938,exp11,2020.2.6,MacIntel,60,,,,,,,,,,,
,,,,,,,,,,,,,,p,1,0.80405,space,0.28426,0,144,144,3,1,0_dist_red/trial4.png,,,1,0,redHorizontal,p,74,54,m,2021-02-18_10h43.40.938,exp11,2020.2.6,MacIntel,60,,,,,,,,,,,
,,,,,,,,,,,,,,p,1,0.82252,space,0.27909,0,145,145,15,1,0_dist_red/trial16.png,,,1,0,redHorizontal,p,74,54,m,2021-02-18_10h43.40.938,exp11,2020.2.6,MacIntel,60,,,,,,,,,,,
,,,,,,,,,,,,,,p,1,1.100125,space,0.25822,0,146,146,57,1,9_dist_red/trial8.png,,,1,9,redHorizontal,p,74,54,m,2021-02-18_10h43.40.938,exp11,2020.2.6,MacIntel,60,,,,,,,,,,,
,,,,,,,,,,,,,,p,1,1.405905,space,0.261945,0,147,147,54,1,9_dist_red/trial5.png,,,1,9,redHorizontal,p,74,54,m,2021-02-18_10h43.40.938,exp11,2020.2.6,MacIntel,60,,,,,,,,,,,
,,,,,,,,,,,,,,a,1,0.820685,space,0.284865,0,148,148,163,1,0_targ_10_dist_red/trial14.png,,,0,10,redHorizontal,a,74,54,m,2021-02-18_10h43.40.938,exp11,2020.2.6,MacIntel,60,,,,,,,,,,,
,,,,,,,,,,,,,,a,1,0.95669,space,0.26912,0,149,149,115,1,0_targ_1_dist_red/trial6.png,,,0,1,redHorizontal,a,74,54,m,2021-02-18_10h43.40.938,exp11,2020.2.6,MacIntel,60,,,,,,,,,,,
,,,,,,,,,,,,,,a,1,0.927125,space,0.257015,0,150,150,178,1,0_targ_16_dist_red/trial4.png,,,0,16,redHorizontal,a,74,54,m,2021-02-18_10h43.40.938,exp11,2020.2.6,MacIntel,60,,,,,,,,,,,
,,,,,,,,,,,,,,a,1,0.943395,space,0.325945,0,151,151,116,1,0_targ_1_dist_red/trial17.png,,,0,1,redHorizontal,a,74,54,m,2021-02-18_10h43.40.938,exp11,2020.2.6,MacIntel,60,,,,,,,,,,,
,,,,,,,,,,,,,,p,1,0.85515,space,1.37155,0,152,152,14,1,0_dist_red/trial15.png,,,1,0,redHorizontal,p,74,54,m,2021-02-18_10h43.40.938,exp11,2020.2.6,MacIntel,60,,,,,,,,,,,
,,,,,,,,,,,,,,a,1,1.183685,space,0.265205,0,153,153,125,1,0_targ_4_dist_red/trial1.png,,,0,4,redHorizontal,a,74,54,m,2021-02-18_10h43.40.938,exp11,2020.2.6,MacIntel,60,,,,,,,,,,,
,,,,,,,,,,,,,,a,1,0.62624,space,0.42664,0,154,154,126,1,0_targ_4_dist_red/trial2.png,,,0,4,redHorizontal,a,74,54,m,2021-02-18_10h43.40.938,exp11,2020.2.6,MacIntel,60,,,,,,,,,,,
,,,,,,,,,,,,,,p,1,0.9187,space,0.46073,0,155,155,41,1,3_dist_red/trial17.png,,,1,3,redHorizontal,p,74,54,m,2021-02-18_10h43.40.938,exp11,2020.2.6,MacIntel,60,,,,,,,,,,,
,,,,,,,,,,,,,,p,1,0.972785,space,0.525385,0,156,156,37,1,3_dist_red/trial13.png,,,1,3,redHorizontal,p,74,54,m,2021-02-18_10h43.40.938,exp11,2020.2.6,MacIntel,60,,,,,,,,,,,
,,,,,,,,,,,,,,p,1,1.06872,space,0.3533,0,157,157,61,1,9_dist_red/trial12.png,,,1,9,redHorizontal,p,74,54,m,2021-02-18_10h43.40.938,exp11,2020.2.6,MacIntel,60,,,,,,,,,,,
,,,,,,,,,,,,,,p,1,0.954165,space,0.287995,0,158,158,18,1,0_dist_red/trial19.png,,,1,0,redHorizontal,p,74,54,m,2021-02-18_10h43.40.938,exp11,2020.2.6,MacIntel,60,,,,,,,,,,,
,,,,,,,,,,,,,,a,1,1.25773,space,0.253425,0,159,159,155,1,0_targ_10_dist_red/trial6.png,,,0,10,redHorizontal,a,74,54,m,2021-02-18_10h43.40.938,exp11,2020.2.6,MacIntel,60,,,,,,,,,,,
,,,,,,,,,,,,,,a,1,0.68974,space,0.27433,0,160,160,185,1,0_targ_16_dist_red/trial11.png,,,0,16,redHorizontal,a,74,54,m,2021-02-18_10h43.40.938,exp11,2020.2.6,MacIntel,60,,,,,,,,,,,
,,,,,,,,,,,,,,p,1,0.82855,space,0.38501,0,161,161,38,1,3_dist_red/trial14.png,,,1,3,redHorizontal,p,74,54,m,2021-02-18_10h43.40.938,exp11,2020.2.6,MacIntel,60,,,,,,,,,,,
,,,,,,,,,,,,,,a,0,2.00888,space,1.86615,0,162,162,99,1,15_dist_red/trial25.png,,,1,15,redHorizontal,p,74,54,m,2021-02-18_10h43.40.938,exp11,2020.2.6,MacIntel,60,,,,,,,,,,,
,,,,,,,,,,,,,,a,1,1.044035,space,0.23483,0,163,163,160,1,0_targ_10_dist_red/trial11.png,,,0,10,redHorizontal,a,74,54,m,2021-02-18_10h43.40.938,exp11,2020.2.6,MacIntel,60,,,,,,,,,,,
,,,,,,,,,,,,,,a,1,0.7061,space,0.20489,0,164,164,143,1,0_targ_4_dist_red/trial19.png,,,0,4,redHorizontal,a,74,54,m,2021-02-18_10h43.40.938,exp11,2020.2.6,MacIntel,60,,,,,,,,,,,
,,,,,,,,,,,,,,p,1,0.88931,space,0.288735,0,165,165,35,1,3_dist_red/trial11.png,,,1,3,redHorizontal,p,74,54,m,2021-02-18_10h43.40.938,exp11,2020.2.6,MacIntel,60,,,,,,,,,,,
,,,,,,,,,,,,,,a,1,0.88561,space,0.21855,0,166,166,141,1,0_targ_4_dist_red/trial17.png,,,0,4,redHorizontal,a,74,54,m,2021-02-18_10h43.40.938,exp11,2020.2.6,MacIntel,60,,,,,,,,,,,
,,,,,,,,,,,,,,a,1,0.602525,space,0.201755,0,167,167,131,1,0_targ_4_dist_red/trial7.png,,,0,4,redHorizontal,a,74,54,m,2021-02-18_10h43.40.938,exp11,2020.2.6,MacIntel,60,,,,,,,,,,,
,,,,,,,,,,,,,,a,1,0.904285,space,0.217015,0,168,168,179,1,0_targ_16_dist_red/trial5.png,,,0,16,redHorizontal,a,74,54,m,2021-02-18_10h43.40.938,exp11,2020.2.6,MacIntel,60,,,,,,,,,,,
,,,,,,,,,,,,,,p,1,1.07576,space,0.42054,0,169,169,70,1,9_dist_red/trial21.png,,,1,9,redHorizontal,p,74,54,m,2021-02-18_10h43.40.938,exp11,2020.2.6,MacIntel,60,,,,,,,,,,,
,,,,,,,,,,,,,,p,1,1.071755,space,0.27452,0,170,170,63,1,9_dist_red/trial14.png,,,1,9,redHorizontal,p,74,54,m,2021-02-18_10h43.40.938,exp11,2020.2.6,MacIntel,60,,,,,,,,,,,
,,,,,,,,,,,,,,a,1,0.623115,space,0.25569,0,171,171,142,1,0_targ_4_dist_red/trial18.png,,,0,4,redHorizontal,a,74,54,m,2021-02-18_10h43.40.938,exp11,2020.2.6,MacIntel,60,,,,,,,,,,,
,,,,,,,,,,,,,,a,1,1.67129,space,0.20286,0,172,172,169,1,0_targ_10_dist_red/trial20.png,,,0,10,redHorizontal,a,74,54,m,2021-02-18_10h43.40.938,exp11,2020.2.6,MacIntel,60,,,,,,,,,,,
,,,,,,,,,,,,,,p,1,0.87124,space,0.736445,0,173,173,0,1,0_dist_red/trial1.png,,,1,0,redHorizontal,p,74,54,m,2021-02-18_10h43.40.938,exp11,2020.2.6,MacIntel,60,,,,,,,,,,,
,,,,,,,,,,,,,,p,1,1.25607,space,0.42165,0,174,174,12,1,0_dist_red/trial13.png,,,1,0,redHorizontal,p,74,54,m,2021-02-18_10h43.40.938,exp11,2020.2.6,MacIntel,60,,,,,,,,,,,
,,,,,,,,,,,,,,p,1,0.808795,space,0.356305,0,175,175,84,1,15_dist_red/trial10.png,,,1,15,redHorizontal,p,74,54,m,2021-02-18_10h43.40.938,exp11,2020.2.6,MacIntel,60,,,,,,,,,,,
,,,,,,,,,,,,,,p,1,0.989405,space,0.352085,0,176,176,48,1,3_dist_red/trial24.png,,,1,3,redHorizontal,p,74,54,m,2021-02-18_10h43.40.938,exp11,2020.2.6,MacIntel,60,,,,,,,,,,,
,,,,,,,,,,,,,,p,1,0.82374,space,0.27122,0,177,177,33,1,3_dist_red/trial9.png,,,1,3,redHorizontal,p,74,54,m,2021-02-18_10h43.40.938,exp11,2020.2.6,MacIntel,60,,,,,,,,,,,
,,,,,,,,,,,,,,p,1,0.904055,space,0.29017,0,178,178,69,1,9_dist_red/trial20.png,,,1,9,redHorizontal,p,74,54,m,2021-02-18_10h43.40.938,exp11,2020.2.6,MacIntel,60,,,,,,,,,,,
,,,,,,,,,,,,,,a,1,0.7747,space,0.289955,0,179,179,114,1,0_targ_1_dist_red/trial15.png,,,0,1,redHorizontal,a,74,54,m,2021-02-18_10h43.40.938,exp11,2020.2.6,MacIntel,60,,,,,,,,,,,
,,,,,,,,,,,,,,p,1,0.988005,space,0.219895,0,180,180,86,1,15_dist_red/trial12.png,,,1,15,redHorizontal,p,74,54,m,2021-02-18_10h43.40.938,exp11,2020.2.6,MacIntel,60,,,,,,,,,,,
,,,,,,,,,,,,,,a,1,0.868665,space,0.256345,0,181,181,199,1,0_targ_16_dist_red/trial25.png,,,0,16,redHorizontal,a,74,54,m,2021-02-18_10h43.40.938,exp11,2020.2.6,MacIntel,60,,,,,,,,,,,
,,,,,,,,,,,,,,p,1,1.488465,space,0.418735,0,182,182,53,1,9_dist_red/trial4.png,,,1,9,redHorizontal,p,74,54,m,2021-02-18_10h43.40.938,exp11,2020.2.6,MacIntel,60,,,,,,,,,,,
,,,,,,,,,,,,,,p,1,0.98788,space,0.355985,0,183,183,55,1,9_dist_red/trial6.png,,,1,9,redHorizontal,p,74,54,m,2021-02-18_10h43.40.938,exp11,2020.2.6,MacIntel,60,,,,,,,,,,,
,,,,,,,,,,,,,,p,1,1.03999,space,0.33545,0,184,184,71,1,9_dist_red/trial22.png,,,1,9,redHorizontal,p,74,54,m,2021-02-18_10h43.40.938,exp11,2020.2.6,MacIntel,60,,,,,,,,,,,
,,,,,,,,,,,,,,p,1,0.692155,space,0.34217,0,185,185,90,1,15_dist_red/trial16.png,,,1,15,redHorizontal,p,74,54,m,2021-02-18_10h43.40.938,exp11,2020.2.6,MacIntel,60,,,,,,,,,,,
,,,,,,,,,,,,,,p,1,0.88855,space,0.435695,0,186,186,93,1,15_dist_red/trial19.png,,,1,15,redHorizontal,p,74,54,m,2021-02-18_10h43.40.938,exp11,2020.2.6,MacIntel,60,,,,,,,,,,,
,,,,,,,,,,,,,,a,1,1.08912,space,0.30886,0,187,187,171,1,0_targ_10_dist_red/trial22.png,,,0,10,redHorizontal,a,74,54,m,2021-02-18_10h43.40.938,exp11,2020.2.6,MacIntel,60,,,,,,,,,,,
,,,,,,,,,,,,,,a,1,0.82391,space,0.439765,0,188,188,150,1,0_targ_10_dist_red/trial1.png,,,0,10,redHorizontal,a,74,54,m,2021-02-18_10h43.40.938,exp11,2020.2.6,MacIntel,60,,,,,,,,,,,
,,,,,,,,,,,,,,a,1,0.83998,space,0.31871,0,189,189,156,1,0_targ_10_dist_red/trial7.png,,,0,10,redHorizontal,a,74,54,m,2021-02-18_10h43.40.938,exp11,2020.2.6,MacIntel,60,,,,,,,,,,,
,,,,,,,,,,,,,,p,1,0.844385,space,0.300285,0,190,190,32,1,3_dist_red/trial8.png,,,1,3,redHorizontal,p,74,54,m,2021-02-18_10h43.40.938,exp11,2020.2.6,MacIntel,60,,,,,,,,,,,
,,,,,,,,,,,,,,a,1,0.84278,space,0.75293,0,191,191,147,1,0_targ_4_dist_red/trial23.png,,,0,4,redHorizontal,a,74,54,m,2021-02-18_10h43.40.938,exp11,2020.2.6,MacIntel,60,,,,,,,,,,,
,,,,,,,,,,,,,,p,1,0.754405,space,0.5575,0,192,192,16,1,0_dist_red/trial17.png,,,1,0,redHorizontal,p,74,54,m,2021-02-18_10h43.40.938,exp11,2020.2.6,MacIntel,60,,,,,,,,,,,
,,,,,,,,,,,,,,p,1,1.272805,space,0.387035,0,193,193,49,1,3_dist_red/trial25.png,,,1,3,redHorizontal,p,74,54,m,2021-02-18_10h43.40.938,exp11,2020.2.6,MacIntel,60,,,,,,,,,,,
,,,,,,,,,,,,,,p,1,0.65812,space,0.249835,0,194,194,42,1,3_dist_red/trial18.png,,,1,3,redHorizontal,p,74,54,m,2021-02-18_10h43.40.938,exp11,2020.2.6,MacIntel,60,,,,,,,,,,,
,,,,,,,,,,,,,,a,1,0.97409,space,0.325585,0,195,195,191,1,0_targ_16_dist_red/trial17.png,,,0,16,redHorizontal,a,74,54,m,2021-02-18_10h43.40.938,exp11,2020.2.6,MacIntel,60,,,,,,,,,,,
,,,,,,,,,,,,,,a,1,0.73353,space,0.24043,0,196,196,176,1,0_targ_16_dist_red/trial2.png,,,0,16,redHorizontal,a,74,54,m,2021-02-18_10h43.40.938,exp11,2020.2.6,MacIntel,60,,,,,,,,,,,
,,,,,,,,,,,,,,a,1,0.771085,space,0.268665,0,197,197,182,1,0_targ_16_dist_red/trial8.png,,,0,16,redHorizontal,a,74,54,m,2021-02-18_10h43.40.938,exp11,2020.2.6,MacIntel,60,,,,,,,,,,,
,,,,,,,,,,,,,,a,1,0.692225,space,0.354385,0,198,198,167,1,0_targ_10_dist_red/trial18.png,,,0,10,redHorizontal,a,74,54,m,2021-02-18_10h43.40.938,exp11,2020.2.6,MacIntel,60,,,,,,,,,,,
,,,,,,,,,,,,,,a,1,0.6861,space,0.318585,0,199,199,136,1,0_targ_4_dist_red/trial12.png,,,0,4,redHorizontal,a,74,54,m,2021-02-18_10h43.40.938,exp11,2020.2.6,MacIntel,60,,,,,,,,,,,
,,,,,,,,,,,,,,,,,,,,,,,,,,,,,,,74,54,m,2021-02-18_10h43.40.938,exp11,2020.2.6,MacIntel,60,0,0,0,1,1,conRed.xlsx,red horizontal,Look for red horizontal bar (target) and indicate if it is present or absent in the array. If red horizontal target is present press 'p' and if absent press 'a'. Press SPACE to start.,,,
,,,,,,,,,,space,13.466365,space,3.586275,p,1,1.839285,space,1.35825,0,0,0,47,1,3_dist_green/trial23.png,,,1,3,greenverival,p,74,54,m,2021-02-18_10h43.40.938,exp11,2020.2.6,MacIntel,60,,,,,,,,,,,
,,,,,,,,,,,,,,a,1,1.47338,space,0.540585,0,1,1,197,1,0_targ_16_dist_green/trial23.png,,,0,16,greenverival,a,74,54,m,2021-02-18_10h43.40.938,exp11,2020.2.6,MacIntel,60,,,,,,,,,,,
,,,,,,,,,,,,,,p,1,1.392315,space,0.385205,0,2,2,56,1,9_dist_green/trial7.png,,,1,9,greenverival,p,74,54,m,2021-02-18_10h43.40.938,exp11,2020.2.6,MacIntel,60,,,,,,,,,,,
,,,,,,,,,,,,,,p,1,1.44096,space,0.52426,0,3,3,96,1,15_dist_green/trial22.png,,,1,15,greenverival,p,74,54,m,2021-02-18_10h43.40.938,exp11,2020.2.6,MacIntel,60,,,,,,,,,,,
,,,,,,,,,,,,,,a,1,1.492885,space,0.418765,0,4,4,186,1,0_targ_16_dist_green/trial12.png,,,0,16,greenverival,a,74,54,m,2021-02-18_10h43.40.938,exp11,2020.2.6,MacIntel,60,,,,,,,,,,,
,,,,,,,,,,,,,,p,1,1.35949,space,0.338985,0,5,5,0,1,0_dist_green/trial1.png,,,1,0,greenverival,p,74,54,m,2021-02-18_10h43.40.938,exp11,2020.2.6,MacIntel,60,,,,,,,,,,,
,,,,,,,,,,,,,,p,1,1.003795,space,0.432015,0,6,6,71,1,9_dist_green/trial22.png,,,1,9,greenverival,p,74,54,m,2021-02-18_10h43.40.938,exp11,2020.2.6,MacIntel,60,,,,,,,,,,,
,,,,,,,,,,,,,,p,1,0.631565,space,0.269535,0,7,7,18,1,0_dist_green/trial19.png,,,1,0,greenverival,p,74,54,m,2021-02-18_10h43.40.938,exp11,2020.2.6,MacIntel,60,,,,,,,,,,,
,,,,,,,,,,,,,,a,1,1.12142,space,0.253025,0,8,8,154,1,0_targ_10_dist_green/trial5.png,,,0,10,greenverival,a,74,54,m,2021-02-18_10h43.40.938,exp11,2020.2.6,MacIntel,60,,,,,,,,,,,
,,,,,,,,,,,,,,p,1,0.85581,space,0.257495,0,9,9,64,1,9_dist_green/trial15.png,,,1,9,greenverival,p,74,54,m,2021-02-18_10h43.40.938,exp11,2020.2.6,MacIntel,60,,,,,,,,,,,
,,,,,,,,,,,,,,p,1,0.959375,space,0.22373,0,10,10,32,1,3_dist_green/trial8.png,,,1,3,greenverival,p,74,54,m,2021-02-18_10h43.40.938,exp11,2020.2.6,MacIntel,60,,,,,,,,,,,
,,,,,,,,,,,,,,a,1,1.02214,space,0.22461,0,11,11,166,1,0_targ_10_dist_green/trial17.png,,,0,10,greenverival,a,74,54,m,2021-02-18_10h43.40.938,exp11,2020.2.6,MacIntel,60,,,,,,,,,,,
,,,,,,,,,,,,,,a,1,0.69398,space,0.420675,0,12,12,100,1,0_targ_1_dist_green/trial1.png,,,0,1,greenverival,a,74,54,m,2021-02-18_10h43.40.938,exp11,2020.2.6,MacIntel,60,,,,,,,,,,,
,,,,,,,,,,,,,,p,1,0.972475,space,0.271775,0,13,13,26,1,3_dist_green/trial2.png,,,1,3,greenverival,p,74,54,m,2021-02-18_10h43.40.938,exp11,2020.2.6,MacIntel,60,,,,,,,,,,,
,,,,,,,,,,,,,,a,1,2.04285,space,0.468155,0,14,14,159,1,0_targ_10_dist_green/trial10.png,,,0,10,greenverival,a,74,54,m,2021-02-18_10h43.40.938,exp11,2020.2.6,MacIntel,60,,,,,,,,,,,
,,,,,,,,,,,,,,a,1,0.67511,space,0.368535,0,15,15,108,1,0_targ_1_dist_green/trial9.png,,,0,1,greenverival,a,74,54,m,2021-02-18_10h43.40.938,exp11,2020.2.6,MacIntel,60,,,,,,,,,,,
,,,,,,,,,,,,,,p,1,0.65899,space,0.30837,0,16,16,5,1,0_dist_green/trial6.png,,,1,0,greenverival,p,74,54,m,2021-02-18_10h43.40.938,exp11,2020.2.6,MacIntel,60,,,,,,,,,,,
,,,,,,,,,,,,,,p,1,2.80899,space,0.418825,0,17,17,52,1,9_dist_green/trial3.png,,,1,9,greenverival,p,74,54,m,2021-02-18_10h43.40.938,exp11,2020.2.6,MacIntel,60,,,,,,,,,,,
,,,,,,,,,,,,,,a,1,1.03802,space,0.704015,0,18,18,133,1,0_targ_4_dist_green/trial9.png,,,0,4,greenverival,a,74,54,m,2021-02-18_10h43.40.938,exp11,2020.2.6,MacIntel,60,,,,,,,,,,,
,,,,,,,,,,,,,,p,1,0.738645,space,0.34338,0,19,19,73,1,9_dist_green/trial24.png,,,1,9,greenverival,p,74,54,m,2021-02-18_10h43.40.938,exp11,2020.2.6,MacIntel,60,,,,,,,,,,,
,,,,,,,,,,,,,,p,1,0.758825,space,0.502425,0,20,20,23,1,0_dist_green/trial24.png,,,1,0,greenverival,p,74,54,m,2021-02-18_10h43.40.938,exp11,2020.2.6,MacIntel,60,,,,,,,,,,,
,,,,,,,,,,,,,,p,1,0.57302,space,0.355735,0,21,21,16,1,0_dist_green/trial17.png,,,1,0,greenverival,p,74,54,m,2021-02-18_10h43.40.938,exp11,2020.2.6,MacIntel,60,,,,,,,,,,,
,,,,,,,,,,,,,,a,1,0.904635,space,0.338275,0,22,22,128,1,0_targ_4_dist_green/trial4.png,,,0,4,greenverival,a,74,54,m,2021-02-18_10h43.40.938,exp11,2020.2.6,MacIntel,60,,,,,,,,,,,
,,,,,,,,,,,,,,a,1,0.83934,space,0.3001,0,23,23,149,1,0_targ_4_dist_green/trial25.png,,,0,4,greenverival,a,74,54,m,2021-02-18_10h43.40.938,exp11,2020.2.6,MacIntel,60,,,,,,,,,,,
,,,,,,,,,,,,,,p,1,1.300995,space,0.23378,0,24,24,99,1,15_dist_green/trial25.png,,,1,15,greenverival,p,74,54,m,2021-02-18_10h43.40.938,exp11,2020.2.6,MacIntel,60,,,,,,,,,,,
,,,,,,,,,,,,,,p,1,0.82334,space,0.236055,0,25,25,20,1,0_dist_green/trial21.png,,,1,0,greenverival,p,74,54,m,2021-02-18_10h43.40.938,exp11,2020.2.6,MacIntel,60,,,,,,,,,,,
,,,,,,,,,,,,,,p,1,1.386155,space,0.22414,0,26,26,88,1,15_dist_green/trial14.png,,,1,15,greenverival,p,74,54,m,2021-02-18_10h43.40.938,exp11,2020.2.6,MacIntel,60,,,,,,,,,,,
,,,,,,,,,,,,,,a,1,1.105025,space,0.2827,0,27,27,152,1,0_targ_10_dist_green/trial3.png,,,0,10,greenverival,a,74,54,m,2021-02-18_10h43.40.938,exp11,2020.2.6,MacIntel,60,,,,,,,,,,,
,,,,,,,,,,,,,,p,1,1.52858,space,0.23441,0,28,28,15,1,0_dist_green/trial16.png,,,1,0,greenverival,p,74,54,m,2021-02-18_10h43.40.938,exp11,2020.2.6,MacIntel,60,,,,,,,,,,,
,,,,,,,,,,,,,,p,1,0.551715,space,0.16837,0,29,29,6,1,0_dist_green/trial7.png,,,1,0,greenverival,p,74,54,m,2021-02-18_10h43.40.938,exp11,2020.2.6,MacIntel,60,,,,,,,,,,,
,,,,,,,,,,,,,,a,1,0.76956,space,0.407135,0,30,30,158,1,0_targ_10_dist_green/trial9.png,,,0,10,greenverival,a,74,54,m,2021-02-18_10h43.40.938,exp11,2020.2.6,MacIntel,60,,,,,,,,,,,
,,,,,,,,,,,,,,a,1,0.59302,space,0.251635,0,31,31,148,1,0_targ_4_dist_green/trial24.png,,,0,4,greenverival,a,74,54,m,2021-02-18_10h43.40.938,exp11,2020.2.6,MacIntel,60,,,,,,,,,,,
,,,,,,,,,,,,,,a,1,0.543175,space,0.271545,0,32,32,115,1,0_targ_1_dist_green/trial6.png,,,0,1,greenverival,a,74,54,m,2021-02-18_10h43.40.938,exp11,2020.2.6,MacIntel,60,,,,,,,,,,,
,,,,,,,,,,,,,,p,1,1.26883,space,0.22036,0,33,33,94,1,15_dist_green/trial20.png,,,1,15,greenverival,p,74,54,m,2021-02-18_10h43.40.938,exp11,2020.2.6,MacIntel,60,,,,,,,,,,,
,,,,,,,,,,,,,,p,1,1.08661,space,0.18836,0,34,34,46,1,3_dist_green/trial22.png,,,1,3,greenverival,p,74,54,m,2021-02-18_10h43.40.938,exp11,2020.2.6,MacIntel,60,,,,,,,,,,,
,,,,,,,,,,,,,,p,1,1.03989,space,0.23698,0,35,35,95,1,15_dist_green/trial21.png,,,1,15,greenverival,p,74,54,m,2021-02-18_10h43.40.938,exp11,2020.2.6,MacIntel,60,,,,,,,,,,,
,,,,,,,,,,,,,,p,1,0.922695,space,0.3694,0,36,36,70,1,9_dist_green/trial21.png,,,1,9,greenverival,p,74,54,m,2021-02-18_10h43.40.938,exp11,2020.2.6,MacIntel,60,,,,,,,,,,,
,,,,,,,,,,,,,,a,1,1.845155,space,0.487395,0,37,37,184,1,0_targ_16_dist_green/trial10.png,,,0,16,greenverival,a,74,54,m,2021-02-18_10h43.40.938,exp11,2020.2.6,MacIntel,60,,,,,,,,,,,
,,,,,,,,,,,,,,a,1,0.94232,space,0.43766,0,38,38,190,1,0_targ_16_dist_green/trial16.png,,,0,16,greenverival,a,74,54,m,2021-02-18_10h43.40.938,exp11,2020.2.6,MacIntel,60,,,,,,,,,,,
,,,,,,,,,,,,,,p,1,1.07855,space,0.268775,0,39,39,11,1,0_dist_green/trial12.png,,,1,0,greenverival,p,74,54,m,2021-02-18_10h43.40.938,exp11,2020.2.6,MacIntel,60,,,,,,,,,,,
,,,,,,,,,,,,,,a,1,1.01077,space,0.352045,0,40,40,167,1,0_targ_10_dist_green/trial18.png,,,0,10,greenverival,a,74,54,m,2021-02-18_10h43.40.938,exp11,2020.2.6,MacIntel,60,,,,,,,,,,,
,,,,,,,,,,,,,,a,1,1.092145,space,2.59663,0,41,41,178,1,0_targ_16_dist_green/trial4.png,,,0,16,greenverival,a,74,54,m,2021-02-18_10h43.40.938,exp11,2020.2.6,MacIntel,60,,,,,,,,,,,
,,,,,,,,,,,,,,a,1,0.76652,space,187.78437,0,42,42,131,1,0_targ_4_dist_green/trial7.png,,,0,4,greenverival,a,74,54,m,2021-02-18_10h43.40.938,exp11,2020.2.6,MacIntel,60,,,,,,,,,,,
,,,,,,,,,,,,,,a,1,1.422855,space,0.48599,0,43,43,188,1,0_targ_16_dist_green/trial14.png,,,0,16,greenverival,a,74,54,m,2021-02-18_10h43.40.938,exp11,2020.2.6,MacIntel,60,,,,,,,,,,,
,,,,,,,,,,,,,,p,1,1.171795,space,0.712875,0,44,44,84,1,15_dist_green/trial10.png,,,1,15,greenverival,p,74,54,m,2021-02-18_10h43.40.938,exp11,2020.2.6,MacIntel,60,,,,,,,,,,,
,,,,,,,,,,,,,,p,1,0.860725,space,0.30301,0,45,45,30,1,3_dist_green/trial6.png,,,1,3,greenverival,p,74,54,m,2021-02-18_10h43.40.938,exp11,2020.2.6,MacIntel,60,,,,,,,,,,,
,,,,,,,,,,,,,,a,1,0.846305,space,0.324,0,46,46,174,1,0_targ_10_dist_green/trial25.png,,,0,10,greenverival,a,74,54,m,2021-02-18_10h43.40.938,exp11,2020.2.6,MacIntel,60,,,,,,,,,,,
,,,,,,,,,,,,,,a,1,0.76696,space,0.20508,0,47,47,175,1,0_targ_16_dist_green/trial1.png,,,0,16,greenverival,a,74,54,m,2021-02-18_10h43.40.938,exp11,2020.2.6,MacIntel,60,,,,,,,,,,,
,,,,,,,,,,,,,,a,1,0.702385,space,0.17226,0,48,48,146,1,0_targ_4_dist_green/trial22.png,,,0,4,greenverival,a,74,54,m,2021-02-18_10h43.40.938,exp11,2020.2.6,MacIntel,60,,,,,,,,,,,
,,,,,,,,,,,,,,a,1,1.07711,space,0.198285,0,49,49,123,1,0_targ_1_dist_green/trial24.png,,,0,1,greenverival,a,74,54,m,2021-02-18_10h43.40.938,exp11,2020.2.6,MacIntel,60,,,,,,,,,,,
,,,,,,,,,,,,,,a,1,1.425965,space,0.23561,0,50,50,150,1,0_targ_10_dist_green/trial1.png,,,0,10,greenverival,a,74,54,m,2021-02-18_10h43.40.938,exp11,2020.2.6,MacIntel,60,,,,,,,,,,,
,,,,,,,,,,,,,,a,1,0.721415,space,0.21793,0,51,51,140,1,0_targ_4_dist_green/trial6.png,,,0,4,greenverival,a,74,54,m,2021-02-18_10h43.40.938,exp11,2020.2.6,MacIntel,60,,,,,,,,,,,
,,,,,,,,,,,,,,p,1,0.83832,space,0.24105,0,52,52,3,1,0_dist_green/trial4.png,,,1,0,greenverival,p,74,54,m,2021-02-18_10h43.40.938,exp11,2020.2.6,MacIntel,60,,,,,,,,,,,
,,,,,,,,,,,,,,a,1,0.725645,space,0.208555,0,53,53,160,1,0_targ_10_dist_green/trial11.png,,,0,10,greenverival,a,74,54,m,2021-02-18_10h43.40.938,exp11,2020.2.6,MacIntel,60,,,,,,,,,,,
,,,,,,,,,,,,,,p,1,1.238215,space,0.235075,0,54,54,60,1,9_dist_green/trial11.png,,,1,9,greenverival,p,74,54,m,2021-02-18_10h43.40.938,exp11,2020.2.6,MacIntel,60,,,,,,,,,,,
,,,,,,,,,,,,,,p,1,1.74245,space,0.189635,0,55,55,77,1,15_dist_green/trial3.png,,,1,15,greenverival,p,74,54,m,2021-02-18_10h43.40.938,exp11,2020.2.6,MacIntel,60,,,,,,,,,,,
,,,,,,,,,,,,,,p,1,1.171325,space,0.160015,0,56,56,24,1,0_dist_green/trial25.png,,,1,0,greenverival,p,74,54,m,2021-02-18_10h43.40.938,exp11,2020.2.6,MacIntel,60,,,,,,,,,,,
,,,,,,,,,,,,,,p,1,0.852995,space,0.140125,0,57,57,9,1,0_dist_green/trial10.png,,,1,0,greenverival,p,74,54,m,2021-02-18_10h43.40.938,exp11,2020.2.6,MacIntel,60,,,,,,,,,,,
,,,,,,,,,,,,,,p,1,1.703455,space,0.167895,0,58,58,86,1,15_dist_green/trial12.png,,,1,15,greenverival,p,74,54,m,2021-02-18_10h43.40.938,exp11,2020.2.6,MacIntel,60,,,,,,,,,,,
,,,,,,,,,,,,,,a,1,0.90777,space,0.22255,0,59,59,112,1,0_targ_1_dist_green/trial13.png,,,0,1,greenverival,a,74,54,m,2021-02-18_10h43.40.938,exp11,2020.2.6,MacIntel,60,,,,,,,,,,,
,,,,,,,,,,,,,,a,1,1.146555,space,0.200765,0,60,60,136,1,0_targ_4_dist_green/trial12.png,,,0,4,greenverival,a,74,54,m,2021-02-18_10h43.40.938,exp11,2020.2.6,MacIntel,60,,,,,,,,,,,
,,,,,,,,,,,,,,a,1,1.490975,space,0.266615,0,61,61,180,1,0_targ_16_dist_green/trial6.png,,,0,16,greenverival,a,74,54,m,2021-02-18_10h43.40.938,exp11,2020.2.6,MacIntel,60,,,,,,,,,,,
,,,,,,,,,,,,,,p,1,1.58788,space,0.151955,0,62,62,81,1,15_dist_green/trial7.png,,,1,15,greenverival,p,74,54,m,2021-02-18_10h43.40.938,exp11,2020.2.6,MacIntel,60,,,,,,,,,,,
,,,,,,,,,,,,,,a,1,0.770935,space,0.20613,0,63,63,141,1,0_targ_4_dist_green/trial17.png,,,0,4,greenverival,a,74,54,m,2021-02-18_10h43.40.938,exp11,2020.2.6,MacIntel,60,,,,,,,,,,,
,,,,,,,,,,,,,,p,1,1.286205,space,0.155075,0,64,64,98,1,15_dist_green/trial24.png,,,1,15,greenverival,p,74,54,m,2021-02-18_10h43.40.938,exp11,2020.2.6,MacIntel,60,,,,,,,,,,,
,,,,,,,,,,,,,,p,1,0.70609,space,0.270615,0,65,65,93,1,15_dist_green/trial19.png,,,1,15,greenverival,p,74,54,m,2021-02-18_10h43.40.938,exp11,2020.2.6,MacIntel,60,,,,,,,,,,,
,,,,,,,,,,,,,,p,1,1.77319,space,0.15479,0,66,66,62,1,9_dist_green/trial13.png,,,1,9,greenverival,p,74,54,m,2021-02-18_10h43.40.938,exp11,2020.2.6,MacIntel,60,,,,,,,,,,,
,,,,,,,,,,,,,,a,1,0.83542,space,0.219155,0,67,67,143,1,0_targ_4_dist_green/trial19.png,,,0,4,greenverival,a,74,54,m,2021-02-18_10h43.40.938,exp11,2020.2.6,MacIntel,60,,,,,,,,,,,
,,,,,,,,,,,,,,p,1,1.00213,space,0.202205,0,68,68,40,1,3_dist_green/trial16.png,,,1,3,greenverival,p,74,54,m,2021-02-18_10h43.40.938,exp11,2020.2.6,MacIntel,60,,,,,,,,,,,
,,,,,,,,,,,,,,a,1,0.868665,space,0.209905,0,69,69,179,1,0_targ_16_dist_green/trial5.png,,,0,16,greenverival,a,74,54,m,2021-02-18_10h43.40.938,exp11,2020.2.6,MacIntel,60,,,,,,,,,,,
,,,,,,,,,,,,,,p,1,0.99163,space,0.25204,0,70,70,42,1,3_dist_green/trial18.png,,,1,3,greenverival,p,74,54,m,2021-02-18_10h43.40.938,exp11,2020.2.6,MacIntel,60,,,,,,,,,,,
,,,,,,,,,,,,,,a,1,0.95342,space,0.242305,0,71,71,122,1,0_targ_1_dist_green/trial23.png,,,0,1,greenverival,a,74,54,m,2021-02-18_10h43.40.938,exp11,2020.2.6,MacIntel,60,,,,,,,,,,,
,,,,,,,,,,,,,,a,1,0.65768,space,0.206225,0,72,72,121,1,0_targ_1_dist_green/trial22.png,,,0,1,greenverival,a,74,54,m,2021-02-18_10h43.40.938,exp11,2020.2.6,MacIntel,60,,,,,,,,,,,
,,,,,,,,,,,,,,p,1,0.954825,space,0.17705,0,73,73,36,1,3_dist_green/trial12.png,,,1,3,greenverival,p,74,54,m,2021-02-18_10h43.40.938,exp11,2020.2.6,MacIntel,60,,,,,,,,,,,
,,,,,,,,,,,,,,p,1,0.883145,space,0.20108,0,74,74,87,1,15_dist_green/trial13.png,,,1,15,greenverival,p,74,54,m,2021-02-18_10h43.40.938,exp11,2020.2.6,MacIntel,60,,,,,,,,,,,
,,,,,,,,,,,,,,a,1,0.83079,space,0.728955,0,75,75,114,1,0_targ_1_dist_green/trial15.png,,,0,1,greenverival,a,74,54,m,2021-02-18_10h43.40.938,exp11,2020.2.6,MacIntel,60,,,,,,,,,,,
,,,,,,,,,,,,,,a,1,3.04391,space,0.35184,0,76,76,125,1,0_targ_4_dist_green/trial1.png,,,0,4,greenverival,a,74,54,m,2021-02-18_10h43.40.938,exp11,2020.2.6,MacIntel,60,,,,,,,,,,,
,,,,,,,,,,,,,,p,1,1.32633,space,0.001,0,77,77,57,1,9_dist_green/trial8.png,,,1,9,greenverival,p,74,54,m,2021-02-18_10h43.40.938,exp11,2020.2.6,MacIntel,60,,,,,,,,,,,
,,,,,,,,,,,,,,p,1,1.298825,space,0.427115,0,78,78,33,1,3_dist_green/trial9.png,,,1,3,greenverival,p,74,54,m,2021-02-18_10h43.40.938,exp11,2020.2.6,MacIntel,60,,,,,,,,,,,
,,,,,,,,,,,,,,a,1,0.667595,space,0.30501,0,79,79,147,1,0_targ_4_dist_green/trial23.png,,,0,4,greenverival,a,74,54,m,2021-02-18_10h43.40.938,exp11,2020.2.6,MacIntel,60,,,,,,,,,,,
,,,,,,,,,,,,,,p,1,0.90442,space,0.188885,0,80,80,76,1,15_dist_green/trial2.png,,,1,15,greenverival,p,74,54,m,2021-02-18_10h43.40.938,exp11,2020.2.6,MacIntel,60,,,,,,,,,,,
,,,,,,,,,,,,,,p,1,0.585815,space,0.17234,0,81,81,19,1,0_dist_green/trial20.png,,,1,0,greenverival,p,74,54,m,2021-02-18_10h43.40.938,exp11,2020.2.6,MacIntel,60,,,,,,,,,,,
,,,,,,,,,,,,,,a,1,0.679115,space,0.21644,0,82,82,113,1,0_targ_1_dist_green/trial14.png,,,0,1,greenverival,a,74,54,m,2021-02-18_10h43.40.938,exp11,2020.2.6,MacIntel,60,,,,,,,,,,,
,,,,,,,,,,,,,,p,1,0.86653,space,0.20529,0,83,83,85,1,15_dist_green/trial11.png,,,1,15,greenverival,p,74,54,m,2021-02-18_10h43.40.938,exp11,2020.2.6,MacIntel,60,,,,,,,,,,,
,,,,,,,,,,,,,,p,1,0.618455,space,0.18818,0,84,84,10,1,0_dist_green/trial11.png,,,1,0,greenverival,p,74,54,m,2021-02-18_10h43.40.938,exp11,2020.2.6,MacIntel,60,,,,,,,,,,,
,,,,,,,,,,,,,,a,1,0.75155,space,0.254055,0,85,85,199,1,0_targ_16_dist_green/trial25.png,,,0,16,greenverival,a,74,54,m,2021-02-18_10h43.40.938,exp11,2020.2.6,MacIntel,60,,,,,,,,,,,
,,,,,,,,,,,,,,p,1,0.724085,space,0.18686,0,86,86,45,1,3_dist_green/trial21.png,,,1,3,greenverival,p,74,54,m,2021-02-18_10h43.40.938,exp11,2020.2.6,MacIntel,60,,,,,,,,,,,
,,,,,,,,,,,,,,p,1,1.00348,space,0.20212,0,87,87,79,1,15_dist_green/trial5.png,,,1,15,greenverival,p,74,54,m,2021-02-18_10h43.40.938,exp11,2020.2.6,MacIntel,60,,,,,,,,,,,
,,,,,,,,,,,,,,p,1,0.886755,space,0.219635,0,88,88,68,1,9_dist_green/trial19.png,,,1,9,greenverival,p,74,54,m,2021-02-18_10h43.40.938,exp11,2020.2.6,MacIntel,60,,,,,,,,,,,
,,,,,,,,,,,,,,a,1,0.855705,space,0.235455,0,89,89,110,1,0_targ_1_dist_green/trial11.png,,,0,1,greenverival,a,74,54,m,2021-02-18_10h43.40.938,exp11,2020.2.6,MacIntel,60,,,,,,,,,,,
,,,,,,,,,,,,,,a,0,0.57138,space,1.540825,0,90,90,7,1,0_dist_green/trial8.png,,,1,0,greenverival,p,74,54,m,2021-02-18_10h43.40.938,exp11,2020.2.6,MacIntel,60,,,,,,,,,,,
,,,,,,,,,,,,,,p,1,1.33708,space,0.3058,0,91,91,28,1,3_dist_green/trial4.png,,,1,3,greenverival,p,74,54,m,2021-02-18_10h43.40.938,exp11,2020.2.6,MacIntel,60,,,,,,,,,,,
,,,,,,,,,,,,,,p,1,0.60536,space,0.18965,0,92,92,2,1,0_dist_green/trial3.png,,,1,0,greenverival,p,74,54,m,2021-02-18_10h43.40.938,exp11,2020.2.6,MacIntel,60,,,,,,,,,,,
,,,,,,,,,,,,,,p,1,0.8368,space,0.191035,0,93,93,35,1,3_dist_green/trial11.png,,,1,3,greenverival,p,74,54,m,2021-02-18_10h43.40.938,exp11,2020.2.6,MacIntel,60,,,,,,,,,,,
,,,,,,,,,,,,,,a,1,1.112515,space,0.43634,0,94,94,172,1,0_targ_10_dist_green/trial23.png,,,0,10,greenverival,a,74,54,m,2021-02-18_10h43.40.938,exp11,2020.2.6,MacIntel,60,,,,,,,,,,,
,,,,,,,,,,,,,,p,1,1.217705,space,0.268285,0,95,95,51,1,9_dist_green/trial2.png,,,1,9,greenverival,p,74,54,m,2021-02-18_10h43.40.938,exp11,2020.2.6,MacIntel,60,,,,,,,,,,,
,,,,,,,,,,,,,,p,1,0.57306,space,0.265975,0,96,96,22,1,0_dist_green/trial23.png,,,1,0,greenverival,p,74,54,m,2021-02-18_10h43.40.938,exp11,2020.2.6,MacIntel,60,,,,,,,,,,,
,,,,,,,,,,,,,,p,1,0.831325,space,0.27648,0,97,97,12,1,0_dist_green/trial13.png,,,1,0,greenverival,p,74,54,m,2021-02-18_10h43.40.938,exp11,2020.2.6,MacIntel,60,,,,,,,,,,,
,,,,,,,,,,,,,,a,1,0.807075,space,0.420465,0,98,98,105,1,0_targ_1_dist_green/trial6.png,,,0,1,greenverival,a,74,54,m,2021-02-18_10h43.40.938,exp11,2020.2.6,MacIntel,60,,,,,,,,,,,
,,,,,,,,,,,,,,p,1,1.02289,space,0.251415,0,99,99,13,1,0_dist_green/trial14.png,,,1,0,greenverival,p,74,54,m,2021-02-18_10h43.40.938,exp11,2020.2.6,MacIntel,60,,,,,,,,,,,
,,,,,,,,,,,,,,a,1,0.835245,space,0.235395,0,100,100,195,1,0_targ_16_dist_green/trial21.png,,,0,16,greenverival,a,74,54,m,2021-02-18_10h43.40.938,exp11,2020.2.6,MacIntel,60,,,,,,,,,,,
,,,,,,,,,,,,,,p,1,0.734735,space,0.654275,0,101,101,44,1,3_dist_green/trial20.png,,,1,3,greenverival,p,74,54,m,2021-02-18_10h43.40.938,exp11,2020.2.6,MacIntel,60,,,,,,,,,,,
,,,,,,,,,,,,,,a,1,0.68181,space,0.355815,0,102,102,116,1,0_targ_1_dist_green/trial17.png,,,0,1,greenverival,a,74,54,m,2021-02-18_10h43.40.938,exp11,2020.2.6,MacIntel,60,,,,,,,,,,,
,,,,,,,,,,,,,,a,1,1.00215,space,0.401745,0,103,103,162,1,0_targ_10_dist_green/trial13.png,,,0,10,greenverival,a,74,54,m,2021-02-18_10h43.40.938,exp11,2020.2.6,MacIntel,60,,,,,,,,,,,
,,,,,,,,,,,,,,a,1,0.79744,space,0.41266,0,104,104,161,1,0_targ_10_dist_green/trial12.png,,,0,10,greenverival,a,74,54,m,2021-02-18_10h43.40.938,exp11,2020.2.6,MacIntel,60,,,,,,,,,,,
,,,,,,,,,,,,,,a,1,0.681715,space,0.31954,0,105,105,185,1,0_targ_16_dist_green/trial11.png,,,0,16,greenverival,a,74,54,m,2021-02-18_10h43.40.938,exp11,2020.2.6,MacIntel,60,,,,,,,,,,,
,,,,,,,,,,,,,,p,1,0.92172,space,0.390875,0,106,106,97,1,15_dist_green/trial23.png,,,1,15,greenverival,p,74,54,m,2021-02-18_10h43.40.938,exp11,2020.2.6,MacIntel,60,,,,,,,,,,,
,,,,,,,,,,,,,,a,1,2.05887,space,0.35657,0,107,107,193,1,0_targ_16_dist_green/trial19.png,,,0,16,greenverival,a,74,54,m,2021-02-18_10h43.40.938,exp11,2020.2.6,MacIntel,60,,,,,,,,,,,
,,,,,,,,,,,,,,a,1,0.83538,space,0.23932,0,108,108,164,1,0_targ_10_dist_green/trial15.png,,,0,10,greenverival,a,74,54,m,2021-02-18_10h43.40.938,exp11,2020.2.6,MacIntel,60,,,,,,,,,,,
,,,,,,,,,,,,,,p,1,0.61938,space,0.244435,0,109,109,43,1,3_dist_green/trial19.png,,,1,3,greenverival,p,74,54,m,2021-02-18_10h43.40.938,exp11,2020.2.6,MacIntel,60,,,,,,,,,,,
,,,,,,,,,,,,,,a,1,0.72481,space,0.222615,0,110,110,157,1,0_targ_10_dist_green/trial8.png,,,0,10,greenverival,a,74,54,m,2021-02-18_10h43.40.938,exp11,2020.2.6,MacIntel,60,,,,,,,,,,,
,,,,,,,,,,,,,,a,1,0.729545,space,0.175505,0,111,111,155,1,0_targ_10_dist_green/trial6.png,,,0,10,greenverival,a,74,54,m,2021-02-18_10h43.40.938,exp11,2020.2.6,MacIntel,60,,,,,,,,,,,
,,,,,,,,,,,,,,p,1,0.778035,space,0.184215,0,112,112,75,1,15_dist_green/trial1.png,,,1,15,greenverival,p,74,54,m,2021-02-18_10h43.40.938,exp11,2020.2.6,MacIntel,60,,,,,,,,,,,
,,,,,,,,,,,,,,p,1,1.200235,space,0.22035,0,113,113,80,1,15_dist_green/trial6.png,,,1,15,greenverival,p,74,54,m,2021-02-18_10h43.40.938,exp11,2020.2.6,MacIntel,60,,,,,,,,,,,
,,,,,,,,,,,,,,a,1,0.8876,space,0.21903,0,114,114,187,1,0_targ_16_dist_green/trial13.png,,,0,16,greenverival,a,74,54,m,2021-02-18_10h43.40.938,exp11,2020.2.6,MacIntel,60,,,,,,,,,,,
,,,,,,,,,,,,,,a,1,1.118905,space,0.26267,0,115,115,137,1,0_targ_4_dist_green/trial13.png,,,0,4,greenverival,a,74,54,m,2021-02-18_10h43.40.938,exp11,2020.2.6,MacIntel,60,,,,,,,,,,,
,,,,,,,,,,,,,,p,1,1.043555,space,0.21819,0,116,116,74,1,9_dist_green/trial25.png,,,1,9,greenverival,p,74,54,m,2021-02-18_10h43.40.938,exp11,2020.2.6,MacIntel,60,,,,,,,,,,,
,,,,,,,,,,,,,,p,1,1.100975,space,0.21194,0,117,117,48,1,3_dist_green/trial24.png,,,1,3,greenverival,p,74,54,m,2021-02-18_10h43.40.938,exp11,2020.2.6,MacIntel,60,,,,,,,,,,,
,,,,,,,,,,,,,,a,1,0.737325,space,0.24062,0,118,118,111,1,0_targ_1_dist_green/trial12.png,,,0,1,greenverival,a,74,54,m,2021-02-18_10h43.40.938,exp11,2020.2.6,MacIntel,60,,,,,,,,,,,
,,,,,,,,,,,,,,p,1,0.78675,space,0.17393,0,119,119,83,1,15_dist_green/trial9.png,,,1,15,greenverival,p,74,54,m,2021-02-18_10h43.40.938,exp11,2020.2.6,MacIntel,60,,,,,,,,,,,
,,,,,,,,,,,,,,a,1,0.787765,space,0.224335,0,120,120,151,1,0_targ_10_dist_green/trial2.png,,,0,10,greenverival,a,74,54,m,2021-02-18_10h43.40.938,exp11,2020.2.6,MacIntel,60,,,,,,,,,,,
,,,,,,,,,,,,,,a,1,0.662125,space,0.221465,0,121,121,153,1,0_targ_10_dist_green/trial4.png,,,0,10,greenverival,a,74,54,m,2021-02-18_10h43.40.938,exp11,2020.2.6,MacIntel,60,,,,,,,,,,,
,,,,,,,,,,,,,,a,1,0.63652,space,0.201555,0,122,122,130,1,0_targ_4_dist_green/trial6.png,,,0,4,greenverival,a,74,54,m,2021-02-18_10h43.40.938,exp11,2020.2.6,MacIntel,60,,,,,,,,,,,
,,,,,,,,,,,,,,a,1,0.652705,space,0.22099,0,123,123,189,1,0_targ_16_dist_green/trial15.png,,,0,16,greenverival,a,74,54,m,2021-02-18_10h43.40.938,exp11,2020.2.6,MacIntel,60,,,,,,,,,,,
,,,,,,,,,,,,,,a,1,0.588525,space,0.257625,0,124,124,142,1,0_targ_4_dist_green/trial18.png,,,0,4,greenverival,a,74,54,m,2021-02-18_10h43.40.938,exp11,2020.2.6,MacIntel,60,,,,,,,,,,,
,,,,,,,,,,,,,,a,1,0.58474,space,0.228405,0,125,125,127,1,0_targ_4_dist_green/trial3.png,,,0,4,greenverival,a,74,54,m,2021-02-18_10h43.40.938,exp11,2020.2.6,MacIntel,60,,,,,,,,,,,
,,,,,,,,,,,,,,p,1,0.970565,space,0.18571,0,126,126,55,1,9_dist_green/trial6.png,,,1,9,greenverival,p,74,54,m,2021-02-18_10h43.40.938,exp11,2020.2.6,MacIntel,60,,,,,,,,,,,
,,,,,,,,,,,,,,a,1,1.436365,space,0.38603,0,127,127,132,1,0_targ_4_dist_green/trial8.png,,,0,4,greenverival,a,74,54,m,2021-02-18_10h43.40.938,exp11,2020.2.6,MacIntel,60,,,,,,,,,,,
,,,,,,,,,,,,,,p,1,0.688295,space,0.501155,0,128,128,59,1,9_dist_green/trial10.png,,,1,9,greenverival,p,74,54,m,2021-02-18_10h43.40.938,exp11,2020.2.6,MacIntel,60,,,,,,,,,,,
,,,,,,,,,,,,,,p,1,0.640105,space,0.23356,0,129,129,50,1,9_dist_green/trial1.png,,,1,9,greenverival,p,74,54,m,2021-02-18_10h43.40.938,exp11,2020.2.6,MacIntel,60,,,,,,,,,,,
,,,,,,,,,,,,,,a,1,0.715715,space,0.2345,0,130,130,126,1,0_targ_4_dist_green/trial2.png,,,0,4,greenverival,a,74,54,m,2021-02-18_10h43.40.938,exp11,2020.2.6,MacIntel,60,,,,,,,,,,,
,,,,,,,,,,,,,,p,1,0.780185,space,0.28544,0,131,131,25,1,3_dist_green/trial1.png,,,1,3,greenverival,p,74,54,m,2021-02-18_10h43.40.938,exp11,2020.2.6,MacIntel,60,,,,,,,,,,,
,,,,,,,,,,,,,,a,1,1.1858,space,0.58596,0,132,132,124,1,0_targ_1_dist_green/trial25.png,,,0,1,greenverival,a,74,54,m,2021-02-18_10h43.40.938,exp11,2020.2.6,MacIntel,60,,,,,,,,,,,
,,,,,,,,,,,,,,p,1,1.000835,space,0.286775,0,133,133,54,1,9_dist_green/trial5.png,,,1,9,greenverival,p,74,54,m,2021-02-18_10h43.40.938,exp11,2020.2.6,MacIntel,60,,,,,,,,,,,
,,,,,,,,,,,,,,p,1,0.77374,space,0.40107,0,134,134,58,1,9_dist_green/trial9.png,,,1,9,greenverival,p,74,54,m,2021-02-18_10h43.40.938,exp11,2020.2.6,MacIntel,60,,,,,,,,,,,
,,,,,,,,,,,,,,a,1,0.687195,space,0.268165,0,135,135,101,1,0_targ_1_dist_green/trial2.png,,,0,1,greenverival,a,74,54,m,2021-02-18_10h43.40.938,exp11,2020.2.6,MacIntel,60,,,,,,,,,,,
,,,,,,,,,,,,,,p,1,0.62097,space,0.288435,0,136,136,29,1,3_dist_green/trial5.png,,,1,3,greenverival,p,74,54,m,2021-02-18_10h43.40.938,exp11,2020.2.6,MacIntel,60,,,,,,,,,,,
,,,,,,,,,,,,,,p,1,1.33916,space,0.25549,0,137,137,90,1,15_dist_green/trial16.png,,,1,15,greenverival,p,74,54,m,2021-02-18_10h43.40.938,exp11,2020.2.6,MacIntel,60,,,,,,,,,,,
,,,,,,,,,,,,,,p,0,0.83611,space,3.80273,0,138,138,106,1,0_targ_1_dist_green/trial7.png,,,0,1,greenverival,a,74,54,m,2021-02-18_10h43.40.938,exp11,2020.2.6,MacIntel,60,,,,,,,,,,,
,,,,,,,,,,,,,,p,1,1.992675,space,0.20925,0,139,139,39,1,3_dist_green/trial15.png,,,1,3,greenverival,p,74,54,m,2021-02-18_10h43.40.938,exp11,2020.2.6,MacIntel,60,,,,,,,,,,,
,,,,,,,,,,,,,,p,1,0.536075,space,0.107945,0,140,140,69,1,9_dist_green/trial20.png,,,1,9,greenverival,p,74,54,m,2021-02-18_10h43.40.938,exp11,2020.2.6,MacIntel,60,,,,,,,,,,,
,,,,,,,,,,,,,,a,1,0.53765,space,0.15161,0,141,141,117,1,0_targ_1_dist_green/trial18.png,,,0,1,greenverival,a,74,54,m,2021-02-18_10h43.40.938,exp11,2020.2.6,MacIntel,60,,,,,,,,,,,
,,,,,,,,,,,,,,p,1,0.69025,space,0.26866,0,142,142,41,1,3_dist_green/trial17.png,,,1,3,greenverival,p,74,54,m,2021-02-18_10h43.40.938,exp11,2020.2.6,MacIntel,60,,,,,,,,,,,
,,,,,,,,,,,,,,a,1,1.00079,space,0.23993,0,143,143,183,1,0_targ_16_dist_green/trial9.png,,,0,16,greenverival,a,74,54,m,2021-02-18_10h43.40.938,exp11,2020.2.6,MacIntel,60,,,,,,,,,,,
,,,,,,,,,,,,,,a,1,0.62759,space,0.235385,0,144,144,173,1,0_targ_10_dist_green/trial24.png,,,0,10,greenverival,a,74,54,m,2021-02-18_10h43.40.938,exp11,2020.2.6,MacIntel,60,,,,,,,,,,,
,,,,,,,,,,,,,,a,1,0.54246,space,0.250535,0,145,145,139,1,0_targ_4_dist_green/trial15.png,,,0,4,greenverival,a,74,54,m,2021-02-18_10h43.40.938,exp11,2020.2.6,MacIntel,60,,,,,,,,,,,
,,,,,,,,,,,,,,a,1,0.777,space,0.283995,0,146,146,194,1,0_targ_16_dist_green/trial20.png,,,0,16,greenverival,a,74,54,m,2021-02-18_10h43.40.938,exp11,2020.2.6,MacIntel,60,,,,,,,,,,,
,,,,,,,,,,,,,,a,1,0.93383,space,0.27125,0,147,147,135,1,0_targ_4_dist_green/trial11.png,,,0,4,greenverival,a,74,54,m,2021-02-18_10h43.40.938,exp11,2020.2.6,MacIntel,60,,,,,,,,,,,
,,,,,,,,,,,,,,a,1,0.56384,space,0.250725,0,148,148,129,1,0_targ_4_dist_green/trial5.png,,,0,4,greenverival,a,74,54,m,2021-02-18_10h43.40.938,exp11,2020.2.6,MacIntel,60,,,,,,,,,,,
,,,,,,,,,,,,,,a,1,0.736375,space,0.20118,0,149,149,169,1,0_targ_10_dist_green/trial20.png,,,0,10,greenverival,a,74,54,m,2021-02-18_10h43.40.938,exp11,2020.2.6,MacIntel,60,,,,,,,,,,,
,,,,,,,,,,,,,,a,1,0.654545,space,0.20755,0,150,150,118,1,0_targ_1_dist_green/trial19.png,,,0,1,greenverival,a,74,54,m,2021-02-18_10h43.40.938,exp11,2020.2.6,MacIntel,60,,,,,,,,,,,
,,,,,,,,,,,,,,a,1,0.5761,space,0.239555,0,151,151,138,1,0_targ_4_dist_green/trial14.png,,,0,4,greenverival,a,74,54,m,2021-02-18_10h43.40.938,exp11,2020.2.6,MacIntel,60,,,,,,,,,,,
,,,,,,,,,,,,,,p,1,1.061035,space,0.26923,0,152,152,17,1,0_dist_green/trial18.png,,,1,0,greenverival,p,74,54,m,2021-02-18_10h43.40.938,exp11,2020.2.6,MacIntel,60,,,,,,,,,,,
,,,,,,,,,,,,,,p,1,1.45387,space,0.25819,0,153,153,38,1,3_dist_green/trial14.png,,,1,3,greenverival,p,74,54,m,2021-02-18_10h43.40.938,exp11,2020.2.6,MacIntel,60,,,,,,,,,,,
,,,,,,,,,,,,,,a,1,0.82022,space,0.228715,0,154,154,198,1,0_targ_16_dist_green/trial24.png,,,0,16,greenverival,a,74,54,m,2021-02-18_10h43.40.938,exp11,2020.2.6,MacIntel,60,,,,,,,,,,,
,,,,,,,,,,,,,,a,1,0.704905,space,0.20708,0,155,155,176,1,0_targ_16_dist_green/trial2.png,,,0,16,greenverival,a,74,54,m,2021-02-18_10h43.40.938,exp11,2020.2.6,MacIntel,60,,,,,,,,,,,
,,,,,,,,,,,,,,p,1,0.733815,space,0.20342,0,156,156,37,1,3_dist_green/trial13.png,,,1,3,greenverival,p,74,54,m,2021-02-18_10h43.40.938,exp11,2020.2.6,MacIntel,60,,,,,,,,,,,
,,,,,,,,,,,,,,p,1,1.562695,space,0.21872,0,157,157,31,1,3_dist_green/trial7.png,,,1,3,greenverival,p,74,54,m,2021-02-18_10h43.40.938,exp11,2020.2.6,MacIntel,60,,,,,,,,,,,
,,,,,,,,,,,,,,p,1,1.071935,space,0.18903,0,158,158,82,1,15_dist_green/trial8.png,,,1,15,greenverival,p,74,54,m,2021-02-18_10h43.40.938,exp11,2020.2.6,MacIntel,60,,,,,,,,,,,
,,,,,,,,,,,,,,a,1,0.88692,space,0.26763,0,159,159,170,1,0_targ_10_dist_green/trial21.png,,,0,10,greenverival,a,74,54,m,2021-02-18_10h43.40.938,exp11,2020.2.6,MacIntel,60,,,,,,,,,,,
,,,,,,,,,,,,,,a,1,0.9592,space,0.31488,0,160,160,120,1,0_targ_1_dist_green/trial21.png,,,0,1,greenverival,a,74,54,m,2021-02-18_10h43.40.938,exp11,2020.2.6,MacIntel,60,,,,,,,,,,,
,,,,,,,,,,,,,,p,1,0.838125,space,0.223025,0,161,161,34,1,3_dist_green/trial10.png,,,1,3,greenverival,p,74,54,m,2021-02-18_10h43.40.938,exp11,2020.2.6,MacIntel,60,,,,,,,,,,,
,,,,,,,,,,,,,,p,1,0.58891,space,0.18451,0,162,162,14,1,0_dist_green/trial15.png,,,1,0,greenverival,p,74,54,m,2021-02-18_10h43.40.938,exp11,2020.2.6,MacIntel,60,,,,,,,,,,,
,,,,,,,,,,,,,,a,1,0.5681,space,0.202605,0,163,163,104,1,0_targ_1_dist_green/trial5.png,,,0,1,greenverival,a,74,54,m,2021-02-18_10h43.40.938,exp11,2020.2.6,MacIntel,60,,,,,,,,,,,
,,,,,,,,,,,,,,p,1,0.964765,space,0.21783,0,164,164,27,1,3_dist_green/trial3.png,,,1,3,greenverival,p,74,54,m,2021-02-18_10h43.40.938,exp11,2020.2.6,MacIntel,60,,,,,,,,,,,
,,,,,,,,,,,,,,a,1,0.868485,space,0.308505,0,165,165,156,1,0_targ_10_dist_green/trial7.png,,,0,10,greenverival,a,74,54,m,2021-02-18_10h43.40.938,exp11,2020.2.6,MacIntel,60,,,,,,,,,,,
,,,,,,,,,,,,,,a,1,0.60435,space,0.26862,0,166,166,119,1,0_targ_1_dist_green/trial20.png,,,0,1,greenverival,a,74,54,m,2021-02-18_10h43.40.938,exp11,2020.2.6,MacIntel,60,,,,,,,,,,,
,,,,,,,,,,,,,,a,1,0.65326,space,0.392355,0,167,167,103,1,0_targ_1_dist_green/trial4.png,,,0,1,greenverival,a,74,54,m,2021-02-18_10h43.40.938,exp11,2020.2.6,MacIntel,60,,,,,,,,,,,
,,,,,,,,,,,,,,p,1,0.592115,space,0.22299,0,168,168,89,1,15_dist_green/trial15.png,,,1,15,greenverival,p,74,54,m,2021-02-18_10h43.40.938,exp11,2020.2.6,MacIntel,60,,,,,,,,,,,
,,,,,,,,,,,,,,p,1,0.770745,space,0.16814,0,169,169,91,1,15_dist_green/trial17.png,,,1,15,greenverival,p,74,54,m,2021-02-18_10h43.40.938,exp11,2020.2.6,MacIntel,60,,,,,,,,,,,
,,,,,,,,,,,,,,a,1,0.76127,space,0.20127,0,170,170,182,1,0_targ_16_dist_green/trial8.png,,,0,16,greenverival,a,74,54,m,2021-02-18_10h43.40.938,exp11,2020.2.6,MacIntel,60,,,,,,,,,,,
,,,,,,,,,,,,,,a,1,0.64109,space,0.25338,0,171,171,109,1,0_targ_1_dist_green/trial10.png,,,0,1,greenverival,a,74,54,m,2021-02-18_10h43.40.938,exp11,2020.2.6,MacIntel,60,,,,,,,,,,,
,,,,,,,,,,,,,,a,1,0.7833,space,0.220625,0,172,172,171,1,0_targ_10_dist_green/trial22.png,,,0,10,greenverival,a,74,54,m,2021-02-18_10h43.40.938,exp11,2020.2.6,MacIntel,60,,,,,,,,,,,
,,,,,,,,,,,,,,a,1,0.95641,space,0.302545,0,173,173,168,1,0_targ_10_dist_green/trial19.png,,,0,10,greenverival,a,74,54,m,2021-02-18_10h43.40.938,exp11,2020.2.6,MacIntel,60,,,,,,,,,,,
,,,,,,,,,,,,,,a,1,0.77445,space,0.335,0,174,174,107,1,0_targ_1_dist_green/trial8.png,,,0,1,greenverival,a,74,54,m,2021-02-18_10h43.40.938,exp11,2020.2.6,MacIntel,60,,,,,,,,,,,
,,,,,,,,,,,,,,a,1,0.873945,space,0.43528,0,175,175,196,1,0_targ_16_dist_green/trial22.png,,,0,16,greenverival,a,74,54,m,2021-02-18_10h43.40.938,exp11,2020.2.6,MacIntel,60,,,,,,,,,,,
,,,,,,,,,,,,,,a,0,0.540095,space,1.744605,0,176,176,4,1,0_dist_green/trial5.png,,,1,0,greenverival,p,74,54,m,2021-02-18_10h43.40.938,exp11,2020.2.6,MacIntel,60,,,,,,,,,,,
,,,,,,,,,,,,,,p,1,1.384195,space,0.208385,0,177,177,66,1,9_dist_green/trial17.png,,,1,9,greenverival,p,74,54,m,2021-02-18_10h43.40.938,exp11,2020.2.6,MacIntel,60,,,,,,,,,,,
,,,,,,,,,,,,,,p,1,1.277125,space,0.16856,0,178,178,72,1,9_dist_green/trial23.png,,,1,9,greenverival,p,74,54,m,2021-02-18_10h43.40.938,exp11,2020.2.6,MacIntel,60,,,,,,,,,,,
,,,,,,,,,,,,,,p,1,1.203515,space,1.327995,0,179,179,1,1,0_dist_green/trial2.png,,,1,0,greenverival,p,74,54,m,2021-02-18_10h43.40.938,exp11,2020.2.6,MacIntel,60,,,,,,,,,,,
,,,,,,,,,,,,,,a,1,1.12337,space,0.29097,0,180,180,134,1,0_targ_4_dist_green/trial10.png,,,0,4,greenverival,a,74,54,m,2021-02-18_10h43.40.938,exp11,2020.2.6,MacIntel,60,,,,,,,,,,,
,,,,,,,,,,,,,,p,1,0.57389,space,0.20167,0,181,181,8,1,0_dist_green/trial9.png,,,1,0,greenverival,p,74,54,m,2021-02-18_10h43.40.938,exp11,2020.2.6,MacIntel,60,,,,,,,,,,,
,,,,,,,,,,,,,,a,1,0.77333,space,0.238895,0,182,182,181,1,0_targ_16_dist_green/trial7.png,,,0,16,greenverival,a,74,54,m,2021-02-18_10h43.40.938,exp11,2020.2.6,MacIntel,60,,,,,,,,,,,
,,,,,,,,,,,,,,p,1,0.827275,space,0.20869,0,183,183,53,1,9_dist_green/trial4.png,,,1,9,greenverival,p,74,54,m,2021-02-18_10h43.40.938,exp11,2020.2.6,MacIntel,60,,,,,,,,,,,
,,,,,,,,,,,,,,p,1,1.52313,space,0.278225,0,184,184,92,1,15_dist_green/trial18.png,,,1,15,greenverival,p,74,54,m,2021-02-18_10h43.40.938,exp11,2020.2.6,MacIntel,60,,,,,,,,,,,
,,,,,,,,,,,,,,a,1,1.07046,space,0.252155,0,185,185,102,1,0_targ_1_dist_green/trial3.png,,,0,1,greenverival,a,74,54,m,2021-02-18_10h43.40.938,exp11,2020.2.6,MacIntel,60,,,,,,,,,,,
,,,,,,,,,,,,,,p,1,0.718155,space,0.202875,0,186,186,63,1,9_dist_green/trial14.png,,,1,9,greenverival,p,74,54,m,2021-02-18_10h43.40.938,exp11,2020.2.6,MacIntel,60,,,,,,,,,,,
,,,,,,,,,,,,,,a,1,0.653665,space,0.202115,0,187,187,165,1,0_targ_10_dist_green/trial16.png,,,0,10,greenverival,a,74,54,m,2021-02-18_10h43.40.938,exp11,2020.2.6,MacIntel,60,,,,,,,,,,,
,,,,,,,,,,,,,,a,1,0.655045,space,0.20039,0,188,188,177,1,0_targ_16_dist_green/trial3.png,,,0,16,greenverival,a,74,54,m,2021-02-18_10h43.40.938,exp11,2020.2.6,MacIntel,60,,,,,,,,,,,
,,,,,,,,,,,,,,a,1,0.655795,space,0.22233,0,189,189,163,1,0_targ_10_dist_green/trial14.png,,,0,10,greenverival,a,74,54,m,2021-02-18_10h43.40.938,exp11,2020.2.6,MacIntel,60,,,,,,,,,,,
,,,,,,,,,,,,,,p,1,1.188435,space,0.24236,0,190,190,61,1,9_dist_green/trial12.png,,,1,9,greenverival,p,74,54,m,2021-02-18_10h43.40.938,exp11,2020.2.6,MacIntel,60,,,,,,,,,,,
,,,,,,,,,,,,,,a,1,1.089605,space,0.515905,0,191,191,192,1,0_targ_16_dist_green/trial18.png,,,0,16,greenverival,a,74,54,m,2021-02-18_10h43.40.938,exp11,2020.2.6,MacIntel,60,,,,,,,,,,,
,,,,,,,,,,,,,,p,1,0.797105,space,0.218745,0,192,192,78,1,15_dist_green/trial4.png,,,1,15,greenverival,p,74,54,m,2021-02-18_10h43.40.938,exp11,2020.2.6,MacIntel,60,,,,,,,,,,,
,,,,,,,,,,,,,,p,1,0.703775,space,0.15179,0,193,193,49,1,3_dist_green/trial25.png,,,1,3,greenverival,p,74,54,m,2021-02-18_10h43.40.938,exp11,2020.2.6,MacIntel,60,,,,,,,,,,,
,,,,,,,,,,,,,,a,1,0.802715,space,0.40698,0,194,194,191,1,0_targ_16_dist_green/trial17.png,,,0,16,greenverival,a,74,54,m,2021-02-18_10h43.40.938,exp11,2020.2.6,MacIntel,60,,,,,,,,,,,
,,,,,,,,,,,,,,p,1,0.73194,space,0.20662,0,195,195,67,1,9_dist_green/trial18.png,,,1,9,greenverival,p,74,54,m,2021-02-18_10h43.40.938,exp11,2020.2.6,MacIntel,60,,,,,,,,,,,
,,,,,,,,,,,,,,p,1,0.972245,space,0.1627,0,196,196,21,1,0_dist_green/trial22.png,,,1,0,greenverival,p,74,54,m,2021-02-18_10h43.40.938,exp11,2020.2.6,MacIntel,60,,,,,,,,,,,
,,,,,,,,,,,,,,a,1,1.27198,space,0.320835,0,197,197,145,1,0_targ_4_dist_green/trial21.png,,,0,4,greenverival,a,74,54,m,2021-02-18_10h43.40.938,exp11,2020.2.6,MacIntel,60,,,,,,,,,,,
,,,,,,,,,,,,,,p,1,0.750595,space,0.268315,0,198,198,65,1,9_dist_green/trial16.png,,,1,9,greenverival,p,74,54,m,2021-02-18_10h43.40.938,exp11,2020.2.6,MacIntel,60,,,,,,,,,,,
,,,,,,,,,,,,,,a,1,0.88987,space,0.45869,0,199,199,144,1,0_targ_4_dist_green/trial20.png,,,0,4,greenverival,a,74,54,m,2021-02-18_10h43.40.938,exp11,2020.2.6,MacIntel,60,,,,,,,,,,,
,,,,,,,,,,,,,,,,,,,,,,,,,,,,,,,74,54,m,2021-02-18_10h43.40.938,exp11,2020.2.6,MacIntel,60,0,1,1,0,1,conGreen.xlsx,green vertical,Look for green vertical bar (target) and indicate if it is present or absent in the array. If green vertical target is present press 'p' and if absent press 'a'. Press SPACE to start.,,,
