key_resp_6.keys,key_resp_6.rt,key_resp_7.keys,key_resp_7.rt,key_resp_8.keys,key_resp_8.rt,key_resp_10.keys,key_resp_10.rt,key_resp_9.keys,key_resp_9.rt,key_resp_3.keys,key_resp_3.rt,key_resp_5.keys,key_resp_5.rt,key_resp.keys,key_resp.corr,key_resp.rt,key_resp_4.keys,key_resp_4.rt,trials.thisRepN,trials.thisTrialN,trials.thisN,trials.thisIndex,trials.ran,ImageFile,tarPos,tarSize,targPres,numDist,targetName,correctAns,participant,age,sex,date,expName,psychopyVersion,OS,frameRate,trials_2.thisRepN,trials_2.thisTrialN,trials_2.thisN,trials_2.thisIndex,trials_2.ran,condsFile,targName,instructionText,colTarget,sizeTarg,posit
space,10.18742,space,27.375445,space,21.093655,space,28.04752,space,12.197465,space,22.675465,space,12.614805,a,1,4.719575,space,7.21774,0,0,0,157,1,0_targ_10_dist_green/trial8.png,,,0,10,greenverival,a,75,53,female,2021-02-19_18h03.34.079,exp11,2020.2.6,Win32,60,,,,,,,,,,,
,,,,,,,,,,,,,,p,1,1.99619,space,0.966415,0,1,1,83,1,15_dist_green/trial9.png,,,1,15,greenverival,p,75,53,female,2021-02-19_18h03.34.079,exp11,2020.2.6,Win32,60,,,,,,,,,,,
,,,,,,,,,,,,,,p,1,1.14373,space,0.76586,0,2,2,7,1,0_dist_green/trial8.png,,,1,0,greenverival,p,75,53,female,2021-02-19_18h03.34.079,exp11,2020.2.6,Win32,60,,,,,,,,,,,
,,,,,,,,,,,,,,a,1,1.427095,space,1.40176,0,3,3,160,1,0_targ_10_dist_green/trial11.png,,,0,10,greenverival,a,75,53,female,2021-02-19_18h03.34.079,exp11,2020.2.6,Win32,60,,,,,,,,,,,
,,,,,,,,,,,,,,a,1,2.69026,space,0.824305,0,4,4,141,1,0_targ_4_dist_green/trial17.png,,,0,4,greenverival,a,75,53,female,2021-02-19_18h03.34.079,exp11,2020.2.6,Win32,60,,,,,,,,,,,
,,,,,,,,,,,,,,p,1,1.212775,space,0.67035,0,5,5,43,1,3_dist_green/trial19.png,,,1,3,greenverival,p,75,53,female,2021-02-19_18h03.34.079,exp11,2020.2.6,Win32,60,,,,,,,,,,,
,,,,,,,,,,,,,,p,1,1.486135,space,0.72063,0,6,6,55,1,9_dist_green/trial6.png,,,1,9,greenverival,p,75,53,female,2021-02-19_18h03.34.079,exp11,2020.2.6,Win32,60,,,,,,,,,,,
,,,,,,,,,,,,,,a,1,1.025785,space,0.85135,0,7,7,111,1,0_targ_1_dist_green/trial12.png,,,0,1,greenverival,a,75,53,female,2021-02-19_18h03.34.079,exp11,2020.2.6,Win32,60,,,,,,,,,,,
,,,,,,,,,,,,,,a,1,1.03346,space,0.467765,0,8,8,106,1,0_targ_1_dist_green/trial7.png,,,0,1,greenverival,a,75,53,female,2021-02-19_18h03.34.079,exp11,2020.2.6,Win32,60,,,,,,,,,,,
,,,,,,,,,,,,,,a,1,1.64348,space,0.45963,0,9,9,150,1,0_targ_10_dist_green/trial1.png,,,0,10,greenverival,a,75,53,female,2021-02-19_18h03.34.079,exp11,2020.2.6,Win32,60,,,,,,,,,,,
,,,,,,,,,,,,,,a,1,1.243135,space,0.445565,0,10,10,121,1,0_targ_1_dist_green/trial22.png,,,0,1,greenverival,a,75,53,female,2021-02-19_18h03.34.079,exp11,2020.2.6,Win32,60,,,,,,,,,,,
,,,,,,,,,,,,,,p,1,1.19907,space,0.60235,0,11,11,68,1,9_dist_green/trial19.png,,,1,9,greenverival,p,75,53,female,2021-02-19_18h03.34.079,exp11,2020.2.6,Win32,60,,,,,,,,,,,
,,,,,,,,,,,,,,p,1,1.460755,space,0.508675,0,12,12,93,1,15_dist_green/trial19.png,,,1,15,greenverival,p,75,53,female,2021-02-19_18h03.34.079,exp11,2020.2.6,Win32,60,,,,,,,,,,,
,,,,,,,,,,,,,,p,1,1.174975,space,0.515605,0,13,13,4,1,0_dist_green/trial5.png,,,1,0,greenverival,p,75,53,female,2021-02-19_18h03.34.079,exp11,2020.2.6,Win32,60,,,,,,,,,,,
,,,,,,,,,,,,,,a,1,1.876105,space,0.694585,0,14,14,198,1,0_targ_16_dist_green/trial24.png,,,0,16,greenverival,a,75,53,female,2021-02-19_18h03.34.079,exp11,2020.2.6,Win32,60,,,,,,,,,,,
,,,,,,,,,,,,,,p,1,1.230845,space,0.90686,0,15,15,73,1,9_dist_green/trial24.png,,,1,9,greenverival,p,75,53,female,2021-02-19_18h03.34.079,exp11,2020.2.6,Win32,60,,,,,,,,,,,
,,,,,,,,,,,,,,p,1,1.225135,space,0.52113,0,16,16,5,1,0_dist_green/trial6.png,,,1,0,greenverival,p,75,53,female,2021-02-19_18h03.34.079,exp11,2020.2.6,Win32,60,,,,,,,,,,,
,,,,,,,,,,,,,,p,1,2.538915,space,0.73358,0,17,17,52,1,9_dist_green/trial3.png,,,1,9,greenverival,p,75,53,female,2021-02-19_18h03.34.079,exp11,2020.2.6,Win32,60,,,,,,,,,,,
,,,,,,,,,,,,,,a,1,1.25072,space,1.134975,0,18,18,132,1,0_targ_4_dist_green/trial8.png,,,0,4,greenverival,a,75,53,female,2021-02-19_18h03.34.079,exp11,2020.2.6,Win32,60,,,,,,,,,,,
,,,,,,,,,,,,,,p,1,1.039375,space,0.60126,0,19,19,58,1,9_dist_green/trial9.png,,,1,9,greenverival,p,75,53,female,2021-02-19_18h03.34.079,exp11,2020.2.6,Win32,60,,,,,,,,,,,
,,,,,,,,,,,,,,p,1,0.961165,space,0.506375,0,20,20,16,1,0_dist_green/trial17.png,,,1,0,greenverival,p,75,53,female,2021-02-19_18h03.34.079,exp11,2020.2.6,Win32,60,,,,,,,,,,,
,,,,,,,,,,,,,,p,1,1.280185,space,0.519325,0,21,21,66,1,9_dist_green/trial17.png,,,1,9,greenverival,p,75,53,female,2021-02-19_18h03.34.079,exp11,2020.2.6,Win32,60,,,,,,,,,,,
,,,,,,,,,,,,,,a,1,0.83412,space,0.489645,0,22,22,122,1,0_targ_1_dist_green/trial23.png,,,0,1,greenverival,a,75,53,female,2021-02-19_18h03.34.079,exp11,2020.2.6,Win32,60,,,,,,,,,,,
,,,,,,,,,,,,,,p,1,1.42719,space,0.690775,0,23,23,99,1,15_dist_green/trial25.png,,,1,15,greenverival,p,75,53,female,2021-02-19_18h03.34.079,exp11,2020.2.6,Win32,60,,,,,,,,,,,
,,,,,,,,,,,,,,p,1,1.16448,space,0.535055,0,24,24,71,1,9_dist_green/trial22.png,,,1,9,greenverival,p,75,53,female,2021-02-19_18h03.34.079,exp11,2020.2.6,Win32,60,,,,,,,,,,,
,,,,,,,,,,,,,,p,1,1.467705,space,0.601925,0,25,25,65,1,9_dist_green/trial16.png,,,1,9,greenverival,p,75,53,female,2021-02-19_18h03.34.079,exp11,2020.2.6,Win32,60,,,,,,,,,,,
,,,,,,,,,,,,,,p,1,2.224075,space,0.50992,0,26,26,85,1,15_dist_green/trial11.png,,,1,15,greenverival,p,75,53,female,2021-02-19_18h03.34.079,exp11,2020.2.6,Win32,60,,,,,,,,,,,
,,,,,,,,,,,,,,a,1,1.684095,space,0.828245,0,27,27,192,1,0_targ_16_dist_green/trial18.png,,,0,16,greenverival,a,75,53,female,2021-02-19_18h03.34.079,exp11,2020.2.6,Win32,60,,,,,,,,,,,
,,,,,,,,,,,,,,a,1,1.440145,space,0.477205,0,28,28,101,1,0_targ_1_dist_green/trial2.png,,,0,1,greenverival,a,75,53,female,2021-02-19_18h03.34.079,exp11,2020.2.6,Win32,60,,,,,,,,,,,
,,,,,,,,,,,,,,a,1,1.87964,space,0.408365,0,29,29,191,1,0_targ_16_dist_green/trial17.png,,,0,16,greenverival,a,75,53,female,2021-02-19_18h03.34.079,exp11,2020.2.6,Win32,60,,,,,,,,,,,
,,,,,,,,,,,,,,p,1,0.89853,space,0.44057,0,30,30,44,1,3_dist_green/trial20.png,,,1,3,greenverival,p,75,53,female,2021-02-19_18h03.34.079,exp11,2020.2.6,Win32,60,,,,,,,,,,,
,,,,,,,,,,,,,,a,1,0.83165,space,0.38877,0,31,31,110,1,0_targ_1_dist_green/trial11.png,,,0,1,greenverival,a,75,53,female,2021-02-19_18h03.34.079,exp11,2020.2.6,Win32,60,,,,,,,,,,,
,,,,,,,,,,,,,,p,1,0.855765,space,0.485095,0,32,32,28,1,3_dist_green/trial4.png,,,1,3,greenverival,p,75,53,female,2021-02-19_18h03.34.079,exp11,2020.2.6,Win32,60,,,,,,,,,,,
,,,,,,,,,,,,,,a,1,1.0747,space,0.540885,0,33,33,104,1,0_targ_1_dist_green/trial5.png,,,0,1,greenverival,a,75,53,female,2021-02-19_18h03.34.079,exp11,2020.2.6,Win32,60,,,,,,,,,,,
,,,,,,,,,,,,,,p,1,0.784045,space,0.529645,0,34,34,11,1,0_dist_green/trial12.png,,,1,0,greenverival,p,75,53,female,2021-02-19_18h03.34.079,exp11,2020.2.6,Win32,60,,,,,,,,,,,
,,,,,,,,,,,,,,a,1,1.75446,space,0.439845,0,35,35,193,1,0_targ_16_dist_green/trial19.png,,,0,16,greenverival,a,75,53,female,2021-02-19_18h03.34.079,exp11,2020.2.6,Win32,60,,,,,,,,,,,
,,,,,,,,,,,,,,p,1,0.816625,space,0.45558,0,36,36,9,1,0_dist_green/trial10.png,,,1,0,greenverival,p,75,53,female,2021-02-19_18h03.34.079,exp11,2020.2.6,Win32,60,,,,,,,,,,,
,,,,,,,,,,,,,,a,0,1.763195,space,2.784345,0,37,37,51,1,9_dist_green/trial2.png,,,1,9,greenverival,p,75,53,female,2021-02-19_18h03.34.079,exp11,2020.2.6,Win32,60,,,,,,,,,,,
,,,,,,,,,,,,,,a,1,1.211725,space,0.505315,0,38,38,144,1,0_targ_4_dist_green/trial20.png,,,0,4,greenverival,a,75,53,female,2021-02-19_18h03.34.079,exp11,2020.2.6,Win32,60,,,,,,,,,,,
,,,,,,,,,,,,,,p,1,1.07731,space,0.577705,0,39,39,13,1,0_dist_green/trial14.png,,,1,0,greenverival,p,75,53,female,2021-02-19_18h03.34.079,exp11,2020.2.6,Win32,60,,,,,,,,,,,
,,,,,,,,,,,,,,p,1,1.077995,space,0.48562,0,40,40,22,1,0_dist_green/trial23.png,,,1,0,greenverival,p,75,53,female,2021-02-19_18h03.34.079,exp11,2020.2.6,Win32,60,,,,,,,,,,,
,,,,,,,,,,,,,,p,1,0.92394,space,0.45132,0,41,41,41,1,3_dist_green/trial17.png,,,1,3,greenverival,p,75,53,female,2021-02-19_18h03.34.079,exp11,2020.2.6,Win32,60,,,,,,,,,,,
,,,,,,,,,,,,,,p,1,1.029535,space,0.41877,0,42,42,98,1,15_dist_green/trial24.png,,,1,15,greenverival,p,75,53,female,2021-02-19_18h03.34.079,exp11,2020.2.6,Win32,60,,,,,,,,,,,
,,,,,,,,,,,,,,p,1,1.074105,space,0.40683,0,43,43,62,1,9_dist_green/trial13.png,,,1,9,greenverival,p,75,53,female,2021-02-19_18h03.34.079,exp11,2020.2.6,Win32,60,,,,,,,,,,,
,,,,,,,,,,,,,,a,1,2.352015,space,0.566615,0,44,44,190,1,0_targ_16_dist_green/trial16.png,,,0,16,greenverival,a,75,53,female,2021-02-19_18h03.34.079,exp11,2020.2.6,Win32,60,,,,,,,,,,,
,,,,,,,,,,,,,,a,1,1.189395,space,0.4011,0,45,45,148,1,0_targ_4_dist_green/trial24.png,,,0,4,greenverival,a,75,53,female,2021-02-19_18h03.34.079,exp11,2020.2.6,Win32,60,,,,,,,,,,,
,,,,,,,,,,,,,,p,1,1.62259,space,0.529405,0,46,46,81,1,15_dist_green/trial7.png,,,1,15,greenverival,p,75,53,female,2021-02-19_18h03.34.079,exp11,2020.2.6,Win32,60,,,,,,,,,,,
,,,,,,,,,,,,,,a,1,0.89396,space,0.41133,0,47,47,117,1,0_targ_1_dist_green/trial18.png,,,0,1,greenverival,a,75,53,female,2021-02-19_18h03.34.079,exp11,2020.2.6,Win32,60,,,,,,,,,,,
,,,,,,,,,,,,,,a,1,2.55801,space,0.441965,0,48,48,186,1,0_targ_16_dist_green/trial12.png,,,0,16,greenverival,a,75,53,female,2021-02-19_18h03.34.079,exp11,2020.2.6,Win32,60,,,,,,,,,,,
,,,,,,,,,,,,,,p,1,0.89082,space,0.43508,0,49,49,72,1,9_dist_green/trial23.png,,,1,9,greenverival,p,75,53,female,2021-02-19_18h03.34.079,exp11,2020.2.6,Win32,60,,,,,,,,,,,
,,,,,,,,,,,,,,a,1,1.056255,space,0.36779,0,50,50,137,1,0_targ_4_dist_green/trial13.png,,,0,4,greenverival,a,75,53,female,2021-02-19_18h03.34.079,exp11,2020.2.6,Win32,60,,,,,,,,,,,
,,,,,,,,,,,,,,a,1,2.09012,space,0.439995,0,51,51,182,1,0_targ_16_dist_green/trial8.png,,,0,16,greenverival,a,75,53,female,2021-02-19_18h03.34.079,exp11,2020.2.6,Win32,60,,,,,,,,,,,
,,,,,,,,,,,,,,a,1,1.6651,space,0.43457,0,52,52,177,1,0_targ_16_dist_green/trial3.png,,,0,16,greenverival,a,75,53,female,2021-02-19_18h03.34.079,exp11,2020.2.6,Win32,60,,,,,,,,,,,
,,,,,,,,,,,,,,a,1,2.065345,space,0.37361,0,53,53,179,1,0_targ_16_dist_green/trial5.png,,,0,16,greenverival,a,75,53,female,2021-02-19_18h03.34.079,exp11,2020.2.6,Win32,60,,,,,,,,,,,
,,,,,,,,,,,,,,a,1,0.975805,space,0.31924,0,54,54,151,1,0_targ_10_dist_green/trial2.png,,,0,10,greenverival,a,75,53,female,2021-02-19_18h03.34.079,exp11,2020.2.6,Win32,60,,,,,,,,,,,
,,,,,,,,,,,,,,a,1,1.034915,space,0.37016,0,55,55,170,1,0_targ_10_dist_green/trial21.png,,,0,10,greenverival,a,75,53,female,2021-02-19_18h03.34.079,exp11,2020.2.6,Win32,60,,,,,,,,,,,
,,,,,,,,,,,,,,a,1,0.92143,space,0.428835,0,56,56,127,1,0_targ_4_dist_green/trial3.png,,,0,4,greenverival,a,75,53,female,2021-02-19_18h03.34.079,exp11,2020.2.6,Win32,60,,,,,,,,,,,
,,,,,,,,,,,,,,a,1,1.560975,space,0.408665,0,57,57,183,1,0_targ_16_dist_green/trial9.png,,,0,16,greenverival,a,75,53,female,2021-02-19_18h03.34.079,exp11,2020.2.6,Win32,60,,,,,,,,,,,
,,,,,,,,,,,,,,a,1,0.74983,space,0.33392,0,58,58,143,1,0_targ_4_dist_green/trial19.png,,,0,4,greenverival,a,75,53,female,2021-02-19_18h03.34.079,exp11,2020.2.6,Win32,60,,,,,,,,,,,
,,,,,,,,,,,,,,p,1,1.31827,space,0.467925,0,59,59,69,1,9_dist_green/trial20.png,,,1,9,greenverival,p,75,53,female,2021-02-19_18h03.34.079,exp11,2020.2.6,Win32,60,,,,,,,,,,,
,,,,,,,,,,,,,,a,1,0.79201,space,0.385245,0,60,60,112,1,0_targ_1_dist_green/trial13.png,,,0,1,greenverival,a,75,53,female,2021-02-19_18h03.34.079,exp11,2020.2.6,Win32,60,,,,,,,,,,,
,,,,,,,,,,,,,,p,1,0.78148,space,0.43577,0,61,61,20,1,0_dist_green/trial21.png,,,1,0,greenverival,p,75,53,female,2021-02-19_18h03.34.079,exp11,2020.2.6,Win32,60,,,,,,,,,,,
,,,,,,,,,,,,,,a,1,0.74715,space,0.382315,0,62,62,124,1,0_targ_1_dist_green/trial25.png,,,0,1,greenverival,a,75,53,female,2021-02-19_18h03.34.079,exp11,2020.2.6,Win32,60,,,,,,,,,,,
,,,,,,,,,,,,,,a,1,1.775975,space,0.449185,0,63,63,100,1,0_targ_1_dist_green/trial1.png,,,0,1,greenverival,a,75,53,female,2021-02-19_18h03.34.079,exp11,2020.2.6,Win32,60,,,,,,,,,,,
,,,,,,,,,,,,,,p,1,1.13973,space,0.453005,0,64,64,26,1,3_dist_green/trial2.png,,,1,3,greenverival,p,75,53,female,2021-02-19_18h03.34.079,exp11,2020.2.6,Win32,60,,,,,,,,,,,
,,,,,,,,,,,,,,a,1,2.10617,space,0.38558,0,65,65,156,1,0_targ_10_dist_green/trial7.png,,,0,10,greenverival,a,75,53,female,2021-02-19_18h03.34.079,exp11,2020.2.6,Win32,60,,,,,,,,,,,
,,,,,,,,,,,,,,a,1,0.93377,space,0.351685,0,66,66,135,1,0_targ_4_dist_green/trial11.png,,,0,4,greenverival,a,75,53,female,2021-02-19_18h03.34.079,exp11,2020.2.6,Win32,60,,,,,,,,,,,
,,,,,,,,,,,,,,a,1,1.149205,space,0.329545,0,67,67,167,1,0_targ_10_dist_green/trial18.png,,,0,10,greenverival,a,75,53,female,2021-02-19_18h03.34.079,exp11,2020.2.6,Win32,60,,,,,,,,,,,
,,,,,,,,,,,,,,a,1,0.88168,space,0.33537,0,68,68,166,1,0_targ_10_dist_green/trial17.png,,,0,10,greenverival,a,75,53,female,2021-02-19_18h03.34.079,exp11,2020.2.6,Win32,60,,,,,,,,,,,
,,,,,,,,,,,,,,p,1,0.991245,space,0.503355,0,69,69,57,1,9_dist_green/trial8.png,,,1,9,greenverival,p,75,53,female,2021-02-19_18h03.34.079,exp11,2020.2.6,Win32,60,,,,,,,,,,,
,,,,,,,,,,,,,,p,1,1.053335,space,0.40469,0,70,70,1,1,0_dist_green/trial2.png,,,1,0,greenverival,p,75,53,female,2021-02-19_18h03.34.079,exp11,2020.2.6,Win32,60,,,,,,,,,,,
,,,,,,,,,,,,,,a,1,0.89346,space,0.532215,0,71,71,115,1,0_targ_1_dist_green/trial6.png,,,0,1,greenverival,a,75,53,female,2021-02-19_18h03.34.079,exp11,2020.2.6,Win32,60,,,,,,,,,,,
,,,,,,,,,,,,,,p,1,0.760325,space,0.556065,0,72,72,32,1,3_dist_green/trial8.png,,,1,3,greenverival,p,75,53,female,2021-02-19_18h03.34.079,exp11,2020.2.6,Win32,60,,,,,,,,,,,
,,,,,,,,,,,,,,a,1,1.274785,space,0.368355,0,73,73,171,1,0_targ_10_dist_green/trial22.png,,,0,10,greenverival,a,75,53,female,2021-02-19_18h03.34.079,exp11,2020.2.6,Win32,60,,,,,,,,,,,
,,,,,,,,,,,,,,p,1,1.013645,space,0.533475,0,74,74,50,1,9_dist_green/trial1.png,,,1,9,greenverival,p,75,53,female,2021-02-19_18h03.34.079,exp11,2020.2.6,Win32,60,,,,,,,,,,,
,,,,,,,,,,,,,,a,1,1.743165,space,0.428865,0,75,75,196,1,0_targ_16_dist_green/trial22.png,,,0,16,greenverival,a,75,53,female,2021-02-19_18h03.34.079,exp11,2020.2.6,Win32,60,,,,,,,,,,,
,,,,,,,,,,,,,,a,1,0.97124,space,0.40319,0,76,76,153,1,0_targ_10_dist_green/trial4.png,,,0,10,greenverival,a,75,53,female,2021-02-19_18h03.34.079,exp11,2020.2.6,Win32,60,,,,,,,,,,,
,,,,,,,,,,,,,,a,1,1.29845,space,0.46197,0,77,77,199,1,0_targ_16_dist_green/trial25.png,,,0,16,greenverival,a,75,53,female,2021-02-19_18h03.34.079,exp11,2020.2.6,Win32,60,,,,,,,,,,,
,,,,,,,,,,,,,,p,1,0.889865,space,0.45055,0,78,78,15,1,0_dist_green/trial16.png,,,1,0,greenverival,p,75,53,female,2021-02-19_18h03.34.079,exp11,2020.2.6,Win32,60,,,,,,,,,,,
,,,,,,,,,,,,,,a,1,1.15991,space,0.372675,0,79,79,158,1,0_targ_10_dist_green/trial9.png,,,0,10,greenverival,a,75,53,female,2021-02-19_18h03.34.079,exp11,2020.2.6,Win32,60,,,,,,,,,,,
,,,,,,,,,,,,,,p,1,0.78679,space,0.44153,0,80,80,37,1,3_dist_green/trial13.png,,,1,3,greenverival,p,75,53,female,2021-02-19_18h03.34.079,exp11,2020.2.6,Win32,60,,,,,,,,,,,
,,,,,,,,,,,,,,a,1,1.610625,space,0.440155,0,81,81,163,1,0_targ_10_dist_green/trial14.png,,,0,10,greenverival,a,75,53,female,2021-02-19_18h03.34.079,exp11,2020.2.6,Win32,60,,,,,,,,,,,
,,,,,,,,,,,,,,p,1,0.94396,space,0.468375,0,82,82,63,1,9_dist_green/trial14.png,,,1,9,greenverival,p,75,53,female,2021-02-19_18h03.34.079,exp11,2020.2.6,Win32,60,,,,,,,,,,,
,,,,,,,,,,,,,,p,1,1.918975,space,0.43962,0,83,83,80,1,15_dist_green/trial6.png,,,1,15,greenverival,p,75,53,female,2021-02-19_18h03.34.079,exp11,2020.2.6,Win32,60,,,,,,,,,,,
,,,,,,,,,,,,,,p,1,0.9111,space,0.49386,0,84,84,27,1,3_dist_green/trial3.png,,,1,3,greenverival,p,75,53,female,2021-02-19_18h03.34.079,exp11,2020.2.6,Win32,60,,,,,,,,,,,
,,,,,,,,,,,,,,p,1,0.94492,space,0.51947,0,85,85,54,1,9_dist_green/trial5.png,,,1,9,greenverival,p,75,53,female,2021-02-19_18h03.34.079,exp11,2020.2.6,Win32,60,,,,,,,,,,,
,,,,,,,,,,,,,,a,1,0.875335,space,0.361655,0,86,86,142,1,0_targ_4_dist_green/trial18.png,,,0,4,greenverival,a,75,53,female,2021-02-19_18h03.34.079,exp11,2020.2.6,Win32,60,,,,,,,,,,,
,,,,,,,,,,,,,,p,1,0.794435,space,0.45822,0,87,87,48,1,3_dist_green/trial24.png,,,1,3,greenverival,p,75,53,female,2021-02-19_18h03.34.079,exp11,2020.2.6,Win32,60,,,,,,,,,,,
,,,,,,,,,,,,,,a,1,1.028195,space,0.358175,0,88,88,133,1,0_targ_4_dist_green/trial9.png,,,0,4,greenverival,a,75,53,female,2021-02-19_18h03.34.079,exp11,2020.2.6,Win32,60,,,,,,,,,,,
,,,,,,,,,,,,,,p,1,0.83412,space,0.556735,0,89,89,97,1,15_dist_green/trial23.png,,,1,15,greenverival,p,75,53,female,2021-02-19_18h03.34.079,exp11,2020.2.6,Win32,60,,,,,,,,,,,
,,,,,,,,,,,,,,p,1,0.91997,space,0.419115,0,90,90,42,1,3_dist_green/trial18.png,,,1,3,greenverival,p,75,53,female,2021-02-19_18h03.34.079,exp11,2020.2.6,Win32,60,,,,,,,,,,,
,,,,,,,,,,,,,,p,1,0.901195,space,0.449145,0,91,91,74,1,9_dist_green/trial25.png,,,1,9,greenverival,p,75,53,female,2021-02-19_18h03.34.079,exp11,2020.2.6,Win32,60,,,,,,,,,,,
,,,,,,,,,,,,,,a,1,0.770705,space,0.36822,0,92,92,140,1,0_targ_4_dist_green/trial6.png,,,0,4,greenverival,a,75,53,female,2021-02-19_18h03.34.079,exp11,2020.2.6,Win32,60,,,,,,,,,,,
,,,,,,,,,,,,,,p,1,0.801505,space,0.601745,0,93,93,23,1,0_dist_green/trial24.png,,,1,0,greenverival,p,75,53,female,2021-02-19_18h03.34.079,exp11,2020.2.6,Win32,60,,,,,,,,,,,
,,,,,,,,,,,,,,p,1,0.900495,space,0.56659,0,94,94,24,1,0_dist_green/trial25.png,,,1,0,greenverival,p,75,53,female,2021-02-19_18h03.34.079,exp11,2020.2.6,Win32,60,,,,,,,,,,,
,,,,,,,,,,,,,,a,1,1.837735,space,0.38411,0,95,95,168,1,0_targ_10_dist_green/trial19.png,,,0,10,greenverival,a,75,53,female,2021-02-19_18h03.34.079,exp11,2020.2.6,Win32,60,,,,,,,,,,,
,,,,,,,,,,,,,,p,1,0.815275,space,0.402295,0,96,96,14,1,0_dist_green/trial15.png,,,1,0,greenverival,p,75,53,female,2021-02-19_18h03.34.079,exp11,2020.2.6,Win32,60,,,,,,,,,,,
,,,,,,,,,,,,,,p,1,0.79632,space,0.384635,0,97,97,94,1,15_dist_green/trial20.png,,,1,15,greenverival,p,75,53,female,2021-02-19_18h03.34.079,exp11,2020.2.6,Win32,60,,,,,,,,,,,
,,,,,,,,,,,,,,a,1,1.32798,space,0.38221,0,98,98,173,1,0_targ_10_dist_green/trial24.png,,,0,10,greenverival,a,75,53,female,2021-02-19_18h03.34.079,exp11,2020.2.6,Win32,60,,,,,,,,,,,
,,,,,,,,,,,,,,a,1,0.927535,space,0.33651,0,99,99,118,1,0_targ_1_dist_green/trial19.png,,,0,1,greenverival,a,75,53,female,2021-02-19_18h03.34.079,exp11,2020.2.6,Win32,60,,,,,,,,,,,
,,,,,,,,,,,,,,a,1,0.874315,space,0.35626,0,100,100,126,1,0_targ_4_dist_green/trial2.png,,,0,4,greenverival,a,75,53,female,2021-02-19_18h03.34.079,exp11,2020.2.6,Win32,60,,,,,,,,,,,
,,,,,,,,,,,,,,a,1,1.78655,space,0.35288,0,101,101,184,1,0_targ_16_dist_green/trial10.png,,,0,16,greenverival,a,75,53,female,2021-02-19_18h03.34.079,exp11,2020.2.6,Win32,60,,,,,,,,,,,
,,,,,,,,,,,,,,p,1,1.037255,space,0.376555,0,102,102,79,1,15_dist_green/trial5.png,,,1,15,greenverival,p,75,53,female,2021-02-19_18h03.34.079,exp11,2020.2.6,Win32,60,,,,,,,,,,,
,,,,,,,,,,,,,,p,1,1.143495,space,0.385395,0,103,103,40,1,3_dist_green/trial16.png,,,1,3,greenverival,p,75,53,female,2021-02-19_18h03.34.079,exp11,2020.2.6,Win32,60,,,,,,,,,,,
,,,,,,,,,,,,,,p,1,0.85004,space,0.465895,0,104,104,21,1,0_dist_green/trial22.png,,,1,0,greenverival,p,75,53,female,2021-02-19_18h03.34.079,exp11,2020.2.6,Win32,60,,,,,,,,,,,
,,,,,,,,,,,,,,p,1,0.86402,space,0.40808,0,105,105,3,1,0_dist_green/trial4.png,,,1,0,greenverival,p,75,53,female,2021-02-19_18h03.34.079,exp11,2020.2.6,Win32,60,,,,,,,,,,,
,,,,,,,,,,,,,,p,1,1.37206,space,0.73499,0,106,106,87,1,15_dist_green/trial13.png,,,1,15,greenverival,p,75,53,female,2021-02-19_18h03.34.079,exp11,2020.2.6,Win32,60,,,,,,,,,,,
,,,,,,,,,,,,,,a,1,1.192275,space,0.419085,0,107,107,149,1,0_targ_4_dist_green/trial25.png,,,0,4,greenverival,a,75,53,female,2021-02-19_18h03.34.079,exp11,2020.2.6,Win32,60,,,,,,,,,,,
,,,,,,,,,,,,,,a,1,0.975595,space,0.351275,0,108,108,120,1,0_targ_1_dist_green/trial21.png,,,0,1,greenverival,a,75,53,female,2021-02-19_18h03.34.079,exp11,2020.2.6,Win32,60,,,,,,,,,,,
,,,,,,,,,,,,,,a,1,1.576185,space,0.401385,0,109,109,161,1,0_targ_10_dist_green/trial12.png,,,0,10,greenverival,a,75,53,female,2021-02-19_18h03.34.079,exp11,2020.2.6,Win32,60,,,,,,,,,,,
,,,,,,,,,,,,,,a,1,1.56351,space,0.479115,0,110,110,154,1,0_targ_10_dist_green/trial5.png,,,0,10,greenverival,a,75,53,female,2021-02-19_18h03.34.079,exp11,2020.2.6,Win32,60,,,,,,,,,,,
,,,,,,,,,,,,,,a,1,1.06783,space,0.35885,0,111,111,155,1,0_targ_10_dist_green/trial6.png,,,0,10,greenverival,a,75,53,female,2021-02-19_18h03.34.079,exp11,2020.2.6,Win32,60,,,,,,,,,,,
,,,,,,,,,,,,,,a,1,1.8472,space,0.336875,0,112,112,187,1,0_targ_16_dist_green/trial13.png,,,0,16,greenverival,a,75,53,female,2021-02-19_18h03.34.079,exp11,2020.2.6,Win32,60,,,,,,,,,,,
,,,,,,,,,,,,,,p,1,0.9173,space,0.416,0,113,113,88,1,15_dist_green/trial14.png,,,1,15,greenverival,p,75,53,female,2021-02-19_18h03.34.079,exp11,2020.2.6,Win32,60,,,,,,,,,,,
,,,,,,,,,,,,,,p,1,1.49978,space,0.448745,0,114,114,90,1,15_dist_green/trial16.png,,,1,15,greenverival,p,75,53,female,2021-02-19_18h03.34.079,exp11,2020.2.6,Win32,60,,,,,,,,,,,
,,,,,,,,,,,,,,a,1,0.79445,space,0.40663,0,115,115,136,1,0_targ_4_dist_green/trial12.png,,,0,4,greenverival,a,75,53,female,2021-02-19_18h03.34.079,exp11,2020.2.6,Win32,60,,,,,,,,,,,
,,,,,,,,,,,,,,p,1,0.768185,space,0.48765,0,116,116,33,1,3_dist_green/trial9.png,,,1,3,greenverival,p,75,53,female,2021-02-19_18h03.34.079,exp11,2020.2.6,Win32,60,,,,,,,,,,,
,,,,,,,,,,,,,,p,1,1.144505,space,0.490135,0,117,117,92,1,15_dist_green/trial18.png,,,1,15,greenverival,p,75,53,female,2021-02-19_18h03.34.079,exp11,2020.2.6,Win32,60,,,,,,,,,,,
,,,,,,,,,,,,,,p,1,0.7739,space,0.50106,0,118,118,86,1,15_dist_green/trial12.png,,,1,15,greenverival,p,75,53,female,2021-02-19_18h03.34.079,exp11,2020.2.6,Win32,60,,,,,,,,,,,
,,,,,,,,,,,,,,a,1,0.66802,space,0.47198,0,119,119,116,1,0_targ_1_dist_green/trial17.png,,,0,1,greenverival,a,75,53,female,2021-02-19_18h03.34.079,exp11,2020.2.6,Win32,60,,,,,,,,,,,
,,,,,,,,,,,,,,a,1,1.685,space,0.39071,0,120,120,180,1,0_targ_16_dist_green/trial6.png,,,0,16,greenverival,a,75,53,female,2021-02-19_18h03.34.079,exp11,2020.2.6,Win32,60,,,,,,,,,,,
,,,,,,,,,,,,,,p,1,0.83393,space,0.4334,0,121,121,53,1,9_dist_green/trial4.png,,,1,9,greenverival,p,75,53,female,2021-02-19_18h03.34.079,exp11,2020.2.6,Win32,60,,,,,,,,,,,
,,,,,,,,,,,,,,a,1,1.23107,space,0.317755,0,122,122,169,1,0_targ_10_dist_green/trial20.png,,,0,10,greenverival,a,75,53,female,2021-02-19_18h03.34.079,exp11,2020.2.6,Win32,60,,,,,,,,,,,
,,,,,,,,,,,,,,a,1,1.07275,space,0.572755,0,123,123,128,1,0_targ_4_dist_green/trial4.png,,,0,4,greenverival,a,75,53,female,2021-02-19_18h03.34.079,exp11,2020.2.6,Win32,60,,,,,,,,,,,
,,,,,,,,,,,,,,a,1,1.934555,space,0.950765,0,124,124,188,1,0_targ_16_dist_green/trial14.png,,,0,16,greenverival,a,75,53,female,2021-02-19_18h03.34.079,exp11,2020.2.6,Win32,60,,,,,,,,,,,
,,,,,,,,,,,,,,a,1,1.83893,space,0.43563,0,125,125,152,1,0_targ_10_dist_green/trial3.png,,,0,10,greenverival,a,75,53,female,2021-02-19_18h03.34.079,exp11,2020.2.6,Win32,60,,,,,,,,,,,
,,,,,,,,,,,,,,p,1,0.98281,space,0.518145,0,126,126,59,1,9_dist_green/trial10.png,,,1,9,greenverival,p,75,53,female,2021-02-19_18h03.34.079,exp11,2020.2.6,Win32,60,,,,,,,,,,,
,,,,,,,,,,,,,,p,1,0.77953,space,0.455785,0,127,127,18,1,0_dist_green/trial19.png,,,1,0,greenverival,p,75,53,female,2021-02-19_18h03.34.079,exp11,2020.2.6,Win32,60,,,,,,,,,,,
,,,,,,,,,,,,,,a,1,0.78701,space,0.4086,0,128,128,105,1,0_targ_1_dist_green/trial6.png,,,0,1,greenverival,a,75,53,female,2021-02-19_18h03.34.079,exp11,2020.2.6,Win32,60,,,,,,,,,,,
,,,,,,,,,,,,,,a,1,1.05456,space,0.46022,0,129,129,123,1,0_targ_1_dist_green/trial24.png,,,0,1,greenverival,a,75,53,female,2021-02-19_18h03.34.079,exp11,2020.2.6,Win32,60,,,,,,,,,,,
,,,,,,,,,,,,,,p,1,1.0692,space,0.473235,0,130,130,95,1,15_dist_green/trial21.png,,,1,15,greenverival,p,75,53,female,2021-02-19_18h03.34.079,exp11,2020.2.6,Win32,60,,,,,,,,,,,
,,,,,,,,,,,,,,a,1,0.77891,space,0.4185,0,131,131,138,1,0_targ_4_dist_green/trial14.png,,,0,4,greenverival,a,75,53,female,2021-02-19_18h03.34.079,exp11,2020.2.6,Win32,60,,,,,,,,,,,
,,,,,,,,,,,,,,p,1,0.739555,space,0.59563,0,132,132,84,1,15_dist_green/trial10.png,,,1,15,greenverival,p,75,53,female,2021-02-19_18h03.34.079,exp11,2020.2.6,Win32,60,,,,,,,,,,,
,,,,,,,,,,,,,,p,1,1.301885,space,0.42371,0,133,133,75,1,15_dist_green/trial1.png,,,1,15,greenverival,p,75,53,female,2021-02-19_18h03.34.079,exp11,2020.2.6,Win32,60,,,,,,,,,,,
,,,,,,,,,,,,,,p,1,0.742815,space,0.41944,0,134,134,0,1,0_dist_green/trial1.png,,,1,0,greenverival,p,75,53,female,2021-02-19_18h03.34.079,exp11,2020.2.6,Win32,60,,,,,,,,,,,
,,,,,,,,,,,,,,p,1,0.79142,space,0.434995,0,135,135,35,1,3_dist_green/trial11.png,,,1,3,greenverival,p,75,53,female,2021-02-19_18h03.34.079,exp11,2020.2.6,Win32,60,,,,,,,,,,,
,,,,,,,,,,,,,,a,1,0.79409,space,0.60581,0,136,136,147,1,0_targ_4_dist_green/trial23.png,,,0,4,greenverival,a,75,53,female,2021-02-19_18h03.34.079,exp11,2020.2.6,Win32,60,,,,,,,,,,,
,,,,,,,,,,,,,,p,1,0.69193,space,0.67005,0,137,137,70,1,9_dist_green/trial21.png,,,1,9,greenverival,p,75,53,female,2021-02-19_18h03.34.079,exp11,2020.2.6,Win32,60,,,,,,,,,,,
,,,,,,,,,,,,,,a,1,1.550395,space,0.42226,0,138,138,195,1,0_targ_16_dist_green/trial21.png,,,0,16,greenverival,a,75,53,female,2021-02-19_18h03.34.079,exp11,2020.2.6,Win32,60,,,,,,,,,,,
,,,,,,,,,,,,,,a,1,1.016415,space,0.479075,0,139,139,108,1,0_targ_1_dist_green/trial9.png,,,0,1,greenverival,a,75,53,female,2021-02-19_18h03.34.079,exp11,2020.2.6,Win32,60,,,,,,,,,,,
,,,,,,,,,,,,,,p,1,0.753385,space,0.45556,0,140,140,6,1,0_dist_green/trial7.png,,,1,0,greenverival,p,75,53,female,2021-02-19_18h03.34.079,exp11,2020.2.6,Win32,60,,,,,,,,,,,
,,,,,,,,,,,,,,p,1,1.45679,space,0.87384,0,141,141,60,1,9_dist_green/trial11.png,,,1,9,greenverival,p,75,53,female,2021-02-19_18h03.34.079,exp11,2020.2.6,Win32,60,,,,,,,,,,,
,,,,,,,,,,,,,,a,1,1.09834,space,0.41567,0,142,142,131,1,0_targ_4_dist_green/trial7.png,,,0,4,greenverival,a,75,53,female,2021-02-19_18h03.34.079,exp11,2020.2.6,Win32,60,,,,,,,,,,,
,,,,,,,,,,,,,,a,1,0.836635,space,0.434835,0,143,143,109,1,0_targ_1_dist_green/trial10.png,,,0,1,greenverival,a,75,53,female,2021-02-19_18h03.34.079,exp11,2020.2.6,Win32,60,,,,,,,,,,,
,,,,,,,,,,,,,,p,1,0.82517,space,0.69404,0,144,144,49,1,3_dist_green/trial25.png,,,1,3,greenverival,p,75,53,female,2021-02-19_18h03.34.079,exp11,2020.2.6,Win32,60,,,,,,,,,,,
,,,,,,,,,,,,,,a,1,1.17571,space,0.34958,0,145,145,165,1,0_targ_10_dist_green/trial16.png,,,0,10,greenverival,a,75,53,female,2021-02-19_18h03.34.079,exp11,2020.2.6,Win32,60,,,,,,,,,,,
,,,,,,,,,,,,,,a,1,1.286425,space,0.36779,0,146,146,189,1,0_targ_16_dist_green/trial15.png,,,0,16,greenverival,a,75,53,female,2021-02-19_18h03.34.079,exp11,2020.2.6,Win32,60,,,,,,,,,,,
,,,,,,,,,,,,,,a,1,1.7755,space,0.358295,0,147,147,194,1,0_targ_16_dist_green/trial20.png,,,0,16,greenverival,a,75,53,female,2021-02-19_18h03.34.079,exp11,2020.2.6,Win32,60,,,,,,,,,,,
,,,,,,,,,,,,,,a,1,0.83688,space,0.41201,0,148,148,164,1,0_targ_10_dist_green/trial15.png,,,0,10,greenverival,a,75,53,female,2021-02-19_18h03.34.079,exp11,2020.2.6,Win32,60,,,,,,,,,,,
,,,,,,,,,,,,,,p,1,0.78167,space,0.432565,0,149,149,46,1,3_dist_green/trial22.png,,,1,3,greenverival,p,75,53,female,2021-02-19_18h03.34.079,exp11,2020.2.6,Win32,60,,,,,,,,,,,
,,,,,,,,,,,,,,p,1,0.94194,space,0.507395,0,150,150,38,1,3_dist_green/trial14.png,,,1,3,greenverival,p,75,53,female,2021-02-19_18h03.34.079,exp11,2020.2.6,Win32,60,,,,,,,,,,,
,,,,,,,,,,,,,,a,1,1.612665,space,0.419935,0,151,151,197,1,0_targ_16_dist_green/trial23.png,,,0,16,greenverival,a,75,53,female,2021-02-19_18h03.34.079,exp11,2020.2.6,Win32,60,,,,,,,,,,,
,,,,,,,,,,,,,,p,1,0.709335,space,0.385205,0,152,152,67,1,9_dist_green/trial18.png,,,1,9,greenverival,p,75,53,female,2021-02-19_18h03.34.079,exp11,2020.2.6,Win32,60,,,,,,,,,,,
,,,,,,,,,,,,,,p,1,0.82872,space,0.46854,0,153,153,36,1,3_dist_green/trial12.png,,,1,3,greenverival,p,75,53,female,2021-02-19_18h03.34.079,exp11,2020.2.6,Win32,60,,,,,,,,,,,
,,,,,,,,,,,,,,a,1,1.44807,space,0.42921,0,154,154,181,1,0_targ_16_dist_green/trial7.png,,,0,16,greenverival,a,75,53,female,2021-02-19_18h03.34.079,exp11,2020.2.6,Win32,60,,,,,,,,,,,
,,,,,,,,,,,,,,p,1,0.778615,space,0.419935,0,155,155,56,1,9_dist_green/trial7.png,,,1,9,greenverival,p,75,53,female,2021-02-19_18h03.34.079,exp11,2020.2.6,Win32,60,,,,,,,,,,,
,,,,,,,,,,,,,,p,1,0.927535,space,0.42993,0,156,156,17,1,0_dist_green/trial18.png,,,1,0,greenverival,p,75,53,female,2021-02-19_18h03.34.079,exp11,2020.2.6,Win32,60,,,,,,,,,,,
,,,,,,,,,,,,,,a,1,0.738635,space,0.401975,0,157,157,113,1,0_targ_1_dist_green/trial14.png,,,0,1,greenverival,a,75,53,female,2021-02-19_18h03.34.079,exp11,2020.2.6,Win32,60,,,,,,,,,,,
,,,,,,,,,,,,,,p,1,0.79248,space,0.4049,0,158,158,64,1,9_dist_green/trial15.png,,,1,9,greenverival,p,75,53,female,2021-02-19_18h03.34.079,exp11,2020.2.6,Win32,60,,,,,,,,,,,
,,,,,,,,,,,,,,a,1,0.74723,space,0.367985,0,159,159,103,1,0_targ_1_dist_green/trial4.png,,,0,1,greenverival,a,75,53,female,2021-02-19_18h03.34.079,exp11,2020.2.6,Win32,60,,,,,,,,,,,
,,,,,,,,,,,,,,a,1,0.826185,space,0.36856,0,160,160,145,1,0_targ_4_dist_green/trial21.png,,,0,4,greenverival,a,75,53,female,2021-02-19_18h03.34.079,exp11,2020.2.6,Win32,60,,,,,,,,,,,
,,,,,,,,,,,,,,a,1,1.31577,space,0.39953,0,161,161,178,1,0_targ_16_dist_green/trial4.png,,,0,16,greenverival,a,75,53,female,2021-02-19_18h03.34.079,exp11,2020.2.6,Win32,60,,,,,,,,,,,
,,,,,,,,,,,,,,a,1,0.7879,space,0.40255,0,162,162,139,1,0_targ_4_dist_green/trial15.png,,,0,4,greenverival,a,75,53,female,2021-02-19_18h03.34.079,exp11,2020.2.6,Win32,60,,,,,,,,,,,
,,,,,,,,,,,,,,p,1,0.69253,space,0.403735,0,163,163,19,1,0_dist_green/trial20.png,,,1,0,greenverival,p,75,53,female,2021-02-19_18h03.34.079,exp11,2020.2.6,Win32,60,,,,,,,,,,,
,,,,,,,,,,,,,,a,1,0.84775,space,0.349425,0,164,164,146,1,0_targ_4_dist_green/trial22.png,,,0,4,greenverival,a,75,53,female,2021-02-19_18h03.34.079,exp11,2020.2.6,Win32,60,,,,,,,,,,,
,,,,,,,,,,,,,,p,1,0.68926,space,0.471345,0,165,165,10,1,0_dist_green/trial11.png,,,1,0,greenverival,p,75,53,female,2021-02-19_18h03.34.079,exp11,2020.2.6,Win32,60,,,,,,,,,,,
,,,,,,,,,,,,,,p,1,0.78151,space,0.46042,0,166,166,47,1,3_dist_green/trial23.png,,,1,3,greenverival,p,75,53,female,2021-02-19_18h03.34.079,exp11,2020.2.6,Win32,60,,,,,,,,,,,
,,,,,,,,,,,,,,a,1,0.987385,space,0.59672,0,167,167,125,1,0_targ_4_dist_green/trial1.png,,,0,4,greenverival,a,75,53,female,2021-02-19_18h03.34.079,exp11,2020.2.6,Win32,60,,,,,,,,,,,
,,,,,,,,,,,,,,p,1,0.76912,space,0.659925,0,168,168,45,1,3_dist_green/trial21.png,,,1,3,greenverival,p,75,53,female,2021-02-19_18h03.34.079,exp11,2020.2.6,Win32,60,,,,,,,,,,,
,,,,,,,,,,,,,,p,1,1.00738,space,0.455775,0,169,169,2,1,0_dist_green/trial3.png,,,1,0,greenverival,p,75,53,female,2021-02-19_18h03.34.079,exp11,2020.2.6,Win32,60,,,,,,,,,,,
,,,,,,,,,,,,,,p,0,1.997965,space,0.651485,0,170,170,107,1,0_targ_1_dist_green/trial8.png,,,0,1,greenverival,a,75,53,female,2021-02-19_18h03.34.079,exp11,2020.2.6,Win32,60,,,,,,,,,,,
,,,,,,,,,,,,,,a,1,3.57253,space,0.49227,0,171,171,129,1,0_targ_4_dist_green/trial5.png,,,0,4,greenverival,a,75,53,female,2021-02-19_18h03.34.079,exp11,2020.2.6,Win32,60,,,,,,,,,,,
,,,,,,,,,,,,,,p,1,0.978035,space,0.38617,0,172,172,78,1,15_dist_green/trial4.png,,,1,15,greenverival,p,75,53,female,2021-02-19_18h03.34.079,exp11,2020.2.6,Win32,60,,,,,,,,,,,
,,,,,,,,,,,,,,a,1,0.80107,space,0.45898,0,173,173,134,1,0_targ_4_dist_green/trial10.png,,,0,4,greenverival,a,75,53,female,2021-02-19_18h03.34.079,exp11,2020.2.6,Win32,60,,,,,,,,,,,
,,,,,,,,,,,,,,p,1,0.742425,space,0.44927,0,174,174,8,1,0_dist_green/trial9.png,,,1,0,greenverival,p,75,53,female,2021-02-19_18h03.34.079,exp11,2020.2.6,Win32,60,,,,,,,,,,,
,,,,,,,,,,,,,,a,1,1.219895,space,0.428355,0,175,175,175,1,0_targ_16_dist_green/trial1.png,,,0,16,greenverival,a,75,53,female,2021-02-19_18h03.34.079,exp11,2020.2.6,Win32,60,,,,,,,,,,,
,,,,,,,,,,,,,,p,1,0.998105,space,0.45243,0,176,176,89,1,15_dist_green/trial15.png,,,1,15,greenverival,p,75,53,female,2021-02-19_18h03.34.079,exp11,2020.2.6,Win32,60,,,,,,,,,,,
,,,,,,,,,,,,,,a,1,0.800365,space,0.39319,0,177,177,174,1,0_targ_10_dist_green/trial25.png,,,0,10,greenverival,a,75,53,female,2021-02-19_18h03.34.079,exp11,2020.2.6,Win32,60,,,,,,,,,,,
,,,,,,,,,,,,,,a,1,1.588325,space,0.469965,0,178,178,159,1,0_targ_10_dist_green/trial10.png,,,0,10,greenverival,a,75,53,female,2021-02-19_18h03.34.079,exp11,2020.2.6,Win32,60,,,,,,,,,,,
,,,,,,,,,,,,,,p,1,0.787375,space,0.4181,0,179,179,34,1,3_dist_green/trial10.png,,,1,3,greenverival,p,75,53,female,2021-02-19_18h03.34.079,exp11,2020.2.6,Win32,60,,,,,,,,,,,
,,,,,,,,,,,,,,a,1,1.376385,space,0.426065,0,180,180,176,1,0_targ_16_dist_green/trial2.png,,,0,16,greenverival,a,75,53,female,2021-02-19_18h03.34.079,exp11,2020.2.6,Win32,60,,,,,,,,,,,
,,,,,,,,,,,,,,a,1,0.768295,space,0.416835,0,181,181,114,1,0_targ_1_dist_green/trial15.png,,,0,1,greenverival,a,75,53,female,2021-02-19_18h03.34.079,exp11,2020.2.6,Win32,60,,,,,,,,,,,
,,,,,,,,,,,,,,a,1,1.40581,space,0.469305,0,182,182,185,1,0_targ_16_dist_green/trial11.png,,,0,16,greenverival,a,75,53,female,2021-02-19_18h03.34.079,exp11,2020.2.6,Win32,60,,,,,,,,,,,
,,,,,,,,,,,,,,p,1,0.97556,space,0.507125,0,183,183,30,1,3_dist_green/trial6.png,,,1,3,greenverival,p,75,53,female,2021-02-19_18h03.34.079,exp11,2020.2.6,Win32,60,,,,,,,,,,,
,,,,,,,,,,,,,,p,1,1.06407,space,0.39732,0,184,184,29,1,3_dist_green/trial5.png,,,1,3,greenverival,p,75,53,female,2021-02-19_18h03.34.079,exp11,2020.2.6,Win32,60,,,,,,,,,,,
,,,,,,,,,,,,,,p,1,0.869745,space,0.452705,0,185,185,12,1,0_dist_green/trial13.png,,,1,0,greenverival,p,75,53,female,2021-02-19_18h03.34.079,exp11,2020.2.6,Win32,60,,,,,,,,,,,
,,,,,,,,,,,,,,p,1,1.920485,space,0.51597,0,186,186,82,1,15_dist_green/trial8.png,,,1,15,greenverival,p,75,53,female,2021-02-19_18h03.34.079,exp11,2020.2.6,Win32,60,,,,,,,,,,,
,,,,,,,,,,,,,,a,1,0.85726,space,0.42644,0,187,187,119,1,0_targ_1_dist_green/trial20.png,,,0,1,greenverival,a,75,53,female,2021-02-19_18h03.34.079,exp11,2020.2.6,Win32,60,,,,,,,,,,,
,,,,,,,,,,,,,,a,1,1.32723,space,0.440325,0,188,188,162,1,0_targ_10_dist_green/trial13.png,,,0,10,greenverival,a,75,53,female,2021-02-19_18h03.34.079,exp11,2020.2.6,Win32,60,,,,,,,,,,,
,,,,,,,,,,,,,,a,1,0.778575,space,0.39191,0,189,189,102,1,0_targ_1_dist_green/trial3.png,,,0,1,greenverival,a,75,53,female,2021-02-19_18h03.34.079,exp11,2020.2.6,Win32,60,,,,,,,,,,,
,,,,,,,,,,,,,,p,1,0.86227,space,0.55672,0,190,190,77,1,15_dist_green/trial3.png,,,1,15,greenverival,p,75,53,female,2021-02-19_18h03.34.079,exp11,2020.2.6,Win32,60,,,,,,,,,,,
,,,,,,,,,,,,,,p,1,0.840755,space,0.452015,0,191,191,96,1,15_dist_green/trial22.png,,,1,15,greenverival,p,75,53,female,2021-02-19_18h03.34.079,exp11,2020.2.6,Win32,60,,,,,,,,,,,
,,,,,,,,,,,,,,p,1,0.74933,space,0.419345,0,192,192,31,1,3_dist_green/trial7.png,,,1,3,greenverival,p,75,53,female,2021-02-19_18h03.34.079,exp11,2020.2.6,Win32,60,,,,,,,,,,,
,,,,,,,,,,,,,,a,1,0.84347,space,0.436575,0,193,193,130,1,0_targ_4_dist_green/trial6.png,,,0,4,greenverival,a,75,53,female,2021-02-19_18h03.34.079,exp11,2020.2.6,Win32,60,,,,,,,,,,,
,,,,,,,,,,,,,,p,1,0.8513,space,0.434295,0,194,194,91,1,15_dist_green/trial17.png,,,1,15,greenverival,p,75,53,female,2021-02-19_18h03.34.079,exp11,2020.2.6,Win32,60,,,,,,,,,,,
,,,,,,,,,,,,,,p,1,1.01269,space,0.426495,0,195,195,25,1,3_dist_green/trial1.png,,,1,3,greenverival,p,75,53,female,2021-02-19_18h03.34.079,exp11,2020.2.6,Win32,60,,,,,,,,,,,
,,,,,,,,,,,,,,p,1,1.890285,space,0.42103,0,196,196,39,1,3_dist_green/trial15.png,,,1,3,greenverival,p,75,53,female,2021-02-19_18h03.34.079,exp11,2020.2.6,Win32,60,,,,,,,,,,,
,,,,,,,,,,,,,,p,1,1.866755,space,0.69877,0,197,197,76,1,15_dist_green/trial2.png,,,1,15,greenverival,p,75,53,female,2021-02-19_18h03.34.079,exp11,2020.2.6,Win32,60,,,,,,,,,,,
,,,,,,,,,,,,,,a,1,1.572575,space,0.50942,0,198,198,172,1,0_targ_10_dist_green/trial23.png,,,0,10,greenverival,a,75,53,female,2021-02-19_18h03.34.079,exp11,2020.2.6,Win32,60,,,,,,,,,,,
,,,,,,,,,,,,,,p,1,0.620215,space,0.57254,0,199,199,61,1,9_dist_green/trial12.png,,,1,9,greenverival,p,75,53,female,2021-02-19_18h03.34.079,exp11,2020.2.6,Win32,60,,,,,,,,,,,
,,,,,,,,,,,,,,,,,,,,,,,,,,,,,,,75,53,female,2021-02-19_18h03.34.079,exp11,2020.2.6,Win32,60,0,0,0,0,1,conGreen.xlsx,green vertical,Look for green vertical bar (target) and indicate if it is present or absent in the array. If green vertical target is present press 'p' and if absent press 'a'. Press SPACE to start.,,,
,,,,,,,,,,space,14.761075,space,2.1102,a,1,1.73179,space,0.37465,0,0,0,198,1,0_targ_16_dist_red/trial24.png,,,0,16,redHorizontal,a,75,53,female,2021-02-19_18h03.34.079,exp11,2020.2.6,Win32,60,,,,,,,,,,,
,,,,,,,,,,,,,,p,1,1.549695,space,0.4197,0,1,1,69,1,9_dist_red/trial20.png,,,1,9,redHorizontal,p,75,53,female,2021-02-19_18h03.34.079,exp11,2020.2.6,Win32,60,,,,,,,,,,,
,,,,,,,,,,,,,,a,1,1.487385,space,0.34483,0,2,2,183,1,0_targ_16_dist_red/trial9.png,,,0,16,redHorizontal,a,75,53,female,2021-02-19_18h03.34.079,exp11,2020.2.6,Win32,60,,,,,,,,,,,
,,,,,,,,,,,,,,a,1,0.863345,space,0.406415,0,3,3,110,1,0_targ_1_dist_red/trial11.png,,,0,1,redHorizontal,a,75,53,female,2021-02-19_18h03.34.079,exp11,2020.2.6,Win32,60,,,,,,,,,,,
,,,,,,,,,,,,,,a,1,0.69012,space,0.419105,0,4,4,143,1,0_targ_4_dist_red/trial19.png,,,0,4,redHorizontal,a,75,53,female,2021-02-19_18h03.34.079,exp11,2020.2.6,Win32,60,,,,,,,,,,,
,,,,,,,,,,,,,,p,1,0.732385,space,0.485325,0,5,5,19,1,0_dist_red/trial20.png,,,1,0,redHorizontal,p,75,53,female,2021-02-19_18h03.34.079,exp11,2020.2.6,Win32,60,,,,,,,,,,,
,,,,,,,,,,,,,,p,1,0.682545,space,0.469665,0,6,6,0,1,0_dist_red/trial1.png,,,1,0,redHorizontal,p,75,53,female,2021-02-19_18h03.34.079,exp11,2020.2.6,Win32,60,,,,,,,,,,,
,,,,,,,,,,,,,,a,1,1.39099,space,0.482385,0,7,7,128,1,0_targ_4_dist_red/trial4.png,,,0,4,redHorizontal,a,75,53,female,2021-02-19_18h03.34.079,exp11,2020.2.6,Win32,60,,,,,,,,,,,
,,,,,,,,,,,,,,a,1,0.78675,space,0.403605,0,8,8,103,1,0_targ_1_dist_red/trial4.png,,,0,1,redHorizontal,a,75,53,female,2021-02-19_18h03.34.079,exp11,2020.2.6,Win32,60,,,,,,,,,,,
,,,,,,,,,,,,,,a,1,0.67292,space,0.45382,0,9,9,124,1,0_targ_1_dist_red/trial25.png,,,0,1,redHorizontal,a,75,53,female,2021-02-19_18h03.34.079,exp11,2020.2.6,Win32,60,,,,,,,,,,,
,,,,,,,,,,,,,,p,1,0.849585,space,0.465595,0,10,10,92,1,15_dist_red/trial18.png,,,1,15,redHorizontal,p,75,53,female,2021-02-19_18h03.34.079,exp11,2020.2.6,Win32,60,,,,,,,,,,,
,,,,,,,,,,,,,,a,1,1.011195,space,0.37164,0,11,11,192,1,0_targ_16_dist_red/trial18.png,,,0,16,redHorizontal,a,75,53,female,2021-02-19_18h03.34.079,exp11,2020.2.6,Win32,60,,,,,,,,,,,
,,,,,,,,,,,,,,a,1,1.00378,space,0.436905,0,12,12,160,1,0_targ_10_dist_red/trial11.png,,,0,10,redHorizontal,a,75,53,female,2021-02-19_18h03.34.079,exp11,2020.2.6,Win32,60,,,,,,,,,,,
,,,,,,,,,,,,,,p,1,0.95236,space,0.510305,0,13,13,34,1,3_dist_red/trial10.png,,,1,3,redHorizontal,p,75,53,female,2021-02-19_18h03.34.079,exp11,2020.2.6,Win32,60,,,,,,,,,,,
,,,,,,,,,,,,,,a,1,0.8831,space,0.384985,0,14,14,108,1,0_targ_1_dist_red/trial9.png,,,0,1,redHorizontal,a,75,53,female,2021-02-19_18h03.34.079,exp11,2020.2.6,Win32,60,,,,,,,,,,,
,,,,,,,,,,,,,,p,1,0.78478,space,0.441865,0,15,15,31,1,3_dist_red/trial7.png,,,1,3,redHorizontal,p,75,53,female,2021-02-19_18h03.34.079,exp11,2020.2.6,Win32,60,,,,,,,,,,,
,,,,,,,,,,,,,,a,1,0.875285,space,0.40954,0,16,16,142,1,0_targ_4_dist_red/trial18.png,,,0,4,redHorizontal,a,75,53,female,2021-02-19_18h03.34.079,exp11,2020.2.6,Win32,60,,,,,,,,,,,
,,,,,,,,,,,,,,p,1,0.76859,space,0.517445,0,17,17,87,1,15_dist_red/trial13.png,,,1,15,redHorizontal,p,75,53,female,2021-02-19_18h03.34.079,exp11,2020.2.6,Win32,60,,,,,,,,,,,
,,,,,,,,,,,,,,p,1,1.01469,space,0.44755,0,18,18,45,1,3_dist_red/trial21.png,,,1,3,redHorizontal,p,75,53,female,2021-02-19_18h03.34.079,exp11,2020.2.6,Win32,60,,,,,,,,,,,
,,,,,,,,,,,,,,p,1,1.338195,space,0.467485,0,19,19,85,1,15_dist_red/trial11.png,,,1,15,redHorizontal,p,75,53,female,2021-02-19_18h03.34.079,exp11,2020.2.6,Win32,60,,,,,,,,,,,
,,,,,,,,,,,,,,p,1,0.904565,space,0.44244,0,20,20,13,1,0_dist_red/trial14.png,,,1,0,redHorizontal,p,75,53,female,2021-02-19_18h03.34.079,exp11,2020.2.6,Win32,60,,,,,,,,,,,
,,,,,,,,,,,,,,p,1,0.97434,space,0.46909,0,21,21,22,1,0_dist_red/trial23.png,,,1,0,redHorizontal,p,75,53,female,2021-02-19_18h03.34.079,exp11,2020.2.6,Win32,60,,,,,,,,,,,
,,,,,,,,,,,,,,a,1,0.9731,space,0.399175,0,22,22,162,1,0_targ_10_dist_red/trial13.png,,,0,10,redHorizontal,a,75,53,female,2021-02-19_18h03.34.079,exp11,2020.2.6,Win32,60,,,,,,,,,,,
,,,,,,,,,,,,,,p,1,1.146715,space,0.588145,0,23,23,67,1,9_dist_red/trial18.png,,,1,9,redHorizontal,p,75,53,female,2021-02-19_18h03.34.079,exp11,2020.2.6,Win32,60,,,,,,,,,,,
,,,,,,,,,,,,,,p,1,0.9589,space,0.48243,0,24,24,82,1,15_dist_red/trial8.png,,,1,15,redHorizontal,p,75,53,female,2021-02-19_18h03.34.079,exp11,2020.2.6,Win32,60,,,,,,,,,,,
,,,,,,,,,,,,,,a,1,0.821635,space,0.323425,0,25,25,165,1,0_targ_10_dist_red/trial16.png,,,0,10,redHorizontal,a,75,53,female,2021-02-19_18h03.34.079,exp11,2020.2.6,Win32,60,,,,,,,,,,,
,,,,,,,,,,,,,,p,1,0.964445,space,0.51596,0,26,26,83,1,15_dist_red/trial9.png,,,1,15,redHorizontal,p,75,53,female,2021-02-19_18h03.34.079,exp11,2020.2.6,Win32,60,,,,,,,,,,,
,,,,,,,,,,,,,,p,1,0.827585,space,0.56944,0,27,27,48,1,3_dist_red/trial24.png,,,1,3,redHorizontal,p,75,53,female,2021-02-19_18h03.34.079,exp11,2020.2.6,Win32,60,,,,,,,,,,,
,,,,,,,,,,,,,,a,1,1.11641,space,0.465365,0,28,28,189,1,0_targ_16_dist_red/trial15.png,,,0,16,redHorizontal,a,75,53,female,2021-02-19_18h03.34.079,exp11,2020.2.6,Win32,60,,,,,,,,,,,
,,,,,,,,,,,,,,a,1,1.842935,space,0.369525,0,29,29,181,1,0_targ_16_dist_red/trial7.png,,,0,16,redHorizontal,a,75,53,female,2021-02-19_18h03.34.079,exp11,2020.2.6,Win32,60,,,,,,,,,,,
,,,,,,,,,,,,,,a,1,0.973975,space,0.45138,0,30,30,145,1,0_targ_4_dist_red/trial21.png,,,0,4,redHorizontal,a,75,53,female,2021-02-19_18h03.34.079,exp11,2020.2.6,Win32,60,,,,,,,,,,,
,,,,,,,,,,,,,,a,1,1.087815,space,0.425305,0,31,31,106,1,0_targ_1_dist_red/trial7.png,,,0,1,redHorizontal,a,75,53,female,2021-02-19_18h03.34.079,exp11,2020.2.6,Win32,60,,,,,,,,,,,
,,,,,,,,,,,,,,a,1,1.37014,space,0.424755,0,32,32,195,1,0_targ_16_dist_red/trial21.png,,,0,16,redHorizontal,a,75,53,female,2021-02-19_18h03.34.079,exp11,2020.2.6,Win32,60,,,,,,,,,,,
,,,,,,,,,,,,,,a,1,0.664055,space,0.37079,0,33,33,129,1,0_targ_4_dist_red/trial5.png,,,0,4,redHorizontal,a,75,53,female,2021-02-19_18h03.34.079,exp11,2020.2.6,Win32,60,,,,,,,,,,,
,,,,,,,,,,,,,,p,1,0.784055,space,0.436805,0,34,34,41,1,3_dist_red/trial17.png,,,1,3,redHorizontal,p,75,53,female,2021-02-19_18h03.34.079,exp11,2020.2.6,Win32,60,,,,,,,,,,,
,,,,,,,,,,,,,,p,1,0.747985,space,0.47447,0,35,35,8,1,0_dist_red/trial9.png,,,1,0,redHorizontal,p,75,53,female,2021-02-19_18h03.34.079,exp11,2020.2.6,Win32,60,,,,,,,,,,,
,,,,,,,,,,,,,,p,1,0.736355,space,0.568475,0,36,36,9,1,0_dist_red/trial10.png,,,1,0,redHorizontal,p,75,53,female,2021-02-19_18h03.34.079,exp11,2020.2.6,Win32,60,,,,,,,,,,,
,,,,,,,,,,,,,,a,1,0.8737,space,0.43727,0,37,37,111,1,0_targ_1_dist_red/trial12.png,,,0,1,redHorizontal,a,75,53,female,2021-02-19_18h03.34.079,exp11,2020.2.6,Win32,60,,,,,,,,,,,
,,,,,,,,,,,,,,a,1,1.03553,space,0.551905,0,38,38,156,1,0_targ_10_dist_red/trial7.png,,,0,10,redHorizontal,a,75,53,female,2021-02-19_18h03.34.079,exp11,2020.2.6,Win32,60,,,,,,,,,,,
,,,,,,,,,,,,,,p,1,1.1122,space,0.90883,0,39,39,26,1,3_dist_red/trial2.png,,,1,3,redHorizontal,p,75,53,female,2021-02-19_18h03.34.079,exp11,2020.2.6,Win32,60,,,,,,,,,,,
,,,,,,,,,,,,,,p,1,0.84398,space,0.50847,0,40,40,72,1,9_dist_red/trial23.png,,,1,9,redHorizontal,p,75,53,female,2021-02-19_18h03.34.079,exp11,2020.2.6,Win32,60,,,,,,,,,,,
,,,,,,,,,,,,,,a,1,0.739585,space,0.42775,0,41,41,138,1,0_targ_4_dist_red/trial14.png,,,0,4,redHorizontal,a,75,53,female,2021-02-19_18h03.34.079,exp11,2020.2.6,Win32,60,,,,,,,,,,,
,,,,,,,,,,,,,,a,1,0.965685,space,0.45717,0,42,42,119,1,0_targ_1_dist_red/trial20.png,,,0,1,redHorizontal,a,75,53,female,2021-02-19_18h03.34.079,exp11,2020.2.6,Win32,60,,,,,,,,,,,
,,,,,,,,,,,,,,a,1,0.64537,space,0.40333,0,43,43,135,1,0_targ_4_dist_red/trial11.png,,,0,4,redHorizontal,a,75,53,female,2021-02-19_18h03.34.079,exp11,2020.2.6,Win32,60,,,,,,,,,,,
,,,,,,,,,,,,,,a,1,0.61009,space,0.384455,0,44,44,105,1,0_targ_1_dist_red/trial6.png,,,0,1,redHorizontal,a,75,53,female,2021-02-19_18h03.34.079,exp11,2020.2.6,Win32,60,,,,,,,,,,,
,,,,,,,,,,,,,,p,1,1.120555,space,0.475715,0,45,45,86,1,15_dist_red/trial12.png,,,1,15,redHorizontal,p,75,53,female,2021-02-19_18h03.34.079,exp11,2020.2.6,Win32,60,,,,,,,,,,,
,,,,,,,,,,,,,,p,1,0.733205,space,0.45325,0,46,46,2,1,0_dist_red/trial3.png,,,1,0,redHorizontal,p,75,53,female,2021-02-19_18h03.34.079,exp11,2020.2.6,Win32,60,,,,,,,,,,,
,,,,,,,,,,,,,,a,1,0.9113,space,0.42047,0,47,47,167,1,0_targ_10_dist_red/trial18.png,,,0,10,redHorizontal,a,75,53,female,2021-02-19_18h03.34.079,exp11,2020.2.6,Win32,60,,,,,,,,,,,
,,,,,,,,,,,,,,a,1,1.44398,space,0.402415,0,48,48,133,1,0_targ_4_dist_red/trial9.png,,,0,4,redHorizontal,a,75,53,female,2021-02-19_18h03.34.079,exp11,2020.2.6,Win32,60,,,,,,,,,,,
,,,,,,,,,,,,,,p,1,0.653735,space,0.50015,0,49,49,11,1,0_dist_red/trial12.png,,,1,0,redHorizontal,p,75,53,female,2021-02-19_18h03.34.079,exp11,2020.2.6,Win32,60,,,,,,,,,,,
,,,,,,,,,,,,,,a,1,1.00785,space,0.405195,0,50,50,171,1,0_targ_10_dist_red/trial22.png,,,0,10,redHorizontal,a,75,53,female,2021-02-19_18h03.34.079,exp11,2020.2.6,Win32,60,,,,,,,,,,,
,,,,,,,,,,,,,,p,1,0.65454,space,0.572785,0,51,51,6,1,0_dist_red/trial7.png,,,1,0,redHorizontal,p,75,53,female,2021-02-19_18h03.34.079,exp11,2020.2.6,Win32,60,,,,,,,,,,,
,,,,,,,,,,,,,,a,1,1.61561,space,0.417425,0,52,52,193,1,0_targ_16_dist_red/trial19.png,,,0,16,redHorizontal,a,75,53,female,2021-02-19_18h03.34.079,exp11,2020.2.6,Win32,60,,,,,,,,,,,
,,,,,,,,,,,,,,a,1,0.66922,space,0.445485,0,53,53,114,1,0_targ_1_dist_red/trial15.png,,,0,1,redHorizontal,a,75,53,female,2021-02-19_18h03.34.079,exp11,2020.2.6,Win32,60,,,,,,,,,,,
,,,,,,,,,,,,,,p,1,1.165465,space,0.451235,0,54,54,95,1,15_dist_red/trial21.png,,,1,15,redHorizontal,p,75,53,female,2021-02-19_18h03.34.079,exp11,2020.2.6,Win32,60,,,,,,,,,,,
,,,,,,,,,,,,,,p,1,1.270935,space,0.493215,0,55,55,23,1,0_dist_red/trial24.png,,,1,0,redHorizontal,p,75,53,female,2021-02-19_18h03.34.079,exp11,2020.2.6,Win32,60,,,,,,,,,,,
,,,,,,,,,,,,,,a,1,0.774145,space,0.488615,0,56,56,137,1,0_targ_4_dist_red/trial13.png,,,0,4,redHorizontal,a,75,53,female,2021-02-19_18h03.34.079,exp11,2020.2.6,Win32,60,,,,,,,,,,,
,,,,,,,,,,,,,,a,1,0.867245,space,0.401605,0,57,57,139,1,0_targ_4_dist_red/trial15.png,,,0,4,redHorizontal,a,75,53,female,2021-02-19_18h03.34.079,exp11,2020.2.6,Win32,60,,,,,,,,,,,
,,,,,,,,,,,,,,p,1,0.64701,space,0.566705,0,58,58,62,1,9_dist_red/trial13.png,,,1,9,redHorizontal,p,75,53,female,2021-02-19_18h03.34.079,exp11,2020.2.6,Win32,60,,,,,,,,,,,
,,,,,,,,,,,,,,a,1,0.801915,space,0.52059,0,59,59,140,1,0_targ_4_dist_red/trial6.png,,,0,4,redHorizontal,a,75,53,female,2021-02-19_18h03.34.079,exp11,2020.2.6,Win32,60,,,,,,,,,,,
,,,,,,,,,,,,,,a,1,0.923985,space,0.419395,0,60,60,125,1,0_targ_4_dist_red/trial1.png,,,0,4,redHorizontal,a,75,53,female,2021-02-19_18h03.34.079,exp11,2020.2.6,Win32,60,,,,,,,,,,,
,,,,,,,,,,,,,,p,1,0.894125,space,1.001055,0,61,61,75,1,15_dist_red/trial1.png,,,1,15,redHorizontal,p,75,53,female,2021-02-19_18h03.34.079,exp11,2020.2.6,Win32,60,,,,,,,,,,,
,,,,,,,,,,,,,,p,1,1.14671,space,0.482595,0,62,62,52,1,9_dist_red/trial3.png,,,1,9,redHorizontal,p,75,53,female,2021-02-19_18h03.34.079,exp11,2020.2.6,Win32,60,,,,,,,,,,,
,,,,,,,,,,,,,,a,1,0.652075,space,0.378885,0,63,63,148,1,0_targ_4_dist_red/trial24.png,,,0,4,redHorizontal,a,75,53,female,2021-02-19_18h03.34.079,exp11,2020.2.6,Win32,60,,,,,,,,,,,
,,,,,,,,,,,,,,p,1,0.718495,space,0.717205,0,64,64,46,1,3_dist_red/trial22.png,,,1,3,redHorizontal,p,75,53,female,2021-02-19_18h03.34.079,exp11,2020.2.6,Win32,60,,,,,,,,,,,
,,,,,,,,,,,,,,a,1,0.71083,space,0.385525,0,65,65,113,1,0_targ_1_dist_red/trial14.png,,,0,1,redHorizontal,a,75,53,female,2021-02-19_18h03.34.079,exp11,2020.2.6,Win32,60,,,,,,,,,,,
,,,,,,,,,,,,,,p,1,0.985475,space,0.46894,0,66,66,39,1,3_dist_red/trial15.png,,,1,3,redHorizontal,p,75,53,female,2021-02-19_18h03.34.079,exp11,2020.2.6,Win32,60,,,,,,,,,,,
,,,,,,,,,,,,,,a,1,1.292385,space,0.370965,0,67,67,159,1,0_targ_10_dist_red/trial10.png,,,0,10,redHorizontal,a,75,53,female,2021-02-19_18h03.34.079,exp11,2020.2.6,Win32,60,,,,,,,,,,,
,,,,,,,,,,,,,,a,1,0.720215,space,0.39643,0,68,68,116,1,0_targ_1_dist_red/trial17.png,,,0,1,redHorizontal,a,75,53,female,2021-02-19_18h03.34.079,exp11,2020.2.6,Win32,60,,,,,,,,,,,
,,,,,,,,,,,,,,p,1,0.71802,space,0.46222,0,69,69,5,1,0_dist_red/trial6.png,,,1,0,redHorizontal,p,75,53,female,2021-02-19_18h03.34.079,exp11,2020.2.6,Win32,60,,,,,,,,,,,
,,,,,,,,,,,,,,p,1,1.353865,space,0.41603,0,70,70,59,1,9_dist_red/trial10.png,,,1,9,redHorizontal,p,75,53,female,2021-02-19_18h03.34.079,exp11,2020.2.6,Win32,60,,,,,,,,,,,
,,,,,,,,,,,,,,a,1,1.15365,space,0.42387,0,71,71,157,1,0_targ_10_dist_red/trial8.png,,,0,10,redHorizontal,a,75,53,female,2021-02-19_18h03.34.079,exp11,2020.2.6,Win32,60,,,,,,,,,,,
,,,,,,,,,,,,,,p,1,1.179945,space,0.418615,0,72,72,99,1,15_dist_red/trial25.png,,,1,15,redHorizontal,p,75,53,female,2021-02-19_18h03.34.079,exp11,2020.2.6,Win32,60,,,,,,,,,,,
,,,,,,,,,,,,,,p,1,0.991345,space,0.418895,0,73,73,7,1,0_dist_red/trial8.png,,,1,0,redHorizontal,p,75,53,female,2021-02-19_18h03.34.079,exp11,2020.2.6,Win32,60,,,,,,,,,,,
,,,,,,,,,,,,,,a,1,1.18523,space,0.47695,0,74,74,153,1,0_targ_10_dist_red/trial4.png,,,0,10,redHorizontal,a,75,53,female,2021-02-19_18h03.34.079,exp11,2020.2.6,Win32,60,,,,,,,,,,,
,,,,,,,,,,,,,,p,1,0.910555,space,0.519855,0,75,75,56,1,9_dist_red/trial7.png,,,1,9,redHorizontal,p,75,53,female,2021-02-19_18h03.34.079,exp11,2020.2.6,Win32,60,,,,,,,,,,,
,,,,,,,,,,,,,,p,1,0.902795,space,0.378775,0,76,76,50,1,9_dist_red/trial1.png,,,1,9,redHorizontal,p,75,53,female,2021-02-19_18h03.34.079,exp11,2020.2.6,Win32,60,,,,,,,,,,,
,,,,,,,,,,,,,,p,1,0.937235,space,0.49251,0,77,77,89,1,15_dist_red/trial15.png,,,1,15,redHorizontal,p,75,53,female,2021-02-19_18h03.34.079,exp11,2020.2.6,Win32,60,,,,,,,,,,,
,,,,,,,,,,,,,,a,1,1.26433,space,0.455,0,78,78,194,1,0_targ_16_dist_red/trial20.png,,,0,16,redHorizontal,a,75,53,female,2021-02-19_18h03.34.079,exp11,2020.2.6,Win32,60,,,,,,,,,,,
,,,,,,,,,,,,,,a,1,0.979025,space,0.428455,0,79,79,117,1,0_targ_1_dist_red/trial18.png,,,0,1,redHorizontal,a,75,53,female,2021-02-19_18h03.34.079,exp11,2020.2.6,Win32,60,,,,,,,,,,,
,,,,,,,,,,,,,,p,1,0.71,space,0.668255,0,80,80,21,1,0_dist_red/trial22.png,,,1,0,redHorizontal,p,75,53,female,2021-02-19_18h03.34.079,exp11,2020.2.6,Win32,60,,,,,,,,,,,
,,,,,,,,,,,,,,p,1,1.34204,space,0.41754,0,81,81,80,1,15_dist_red/trial6.png,,,1,15,redHorizontal,p,75,53,female,2021-02-19_18h03.34.079,exp11,2020.2.6,Win32,60,,,,,,,,,,,
,,,,,,,,,,,,,,p,1,0.76784,space,0.39516,0,82,82,65,1,9_dist_red/trial16.png,,,1,9,redHorizontal,p,75,53,female,2021-02-19_18h03.34.079,exp11,2020.2.6,Win32,60,,,,,,,,,,,
,,,,,,,,,,,,,,p,1,0.735975,space,0.458715,0,83,83,36,1,3_dist_red/trial12.png,,,1,3,redHorizontal,p,75,53,female,2021-02-19_18h03.34.079,exp11,2020.2.6,Win32,60,,,,,,,,,,,
,,,,,,,,,,,,,,p,1,0.86755,space,0.42667,0,84,84,97,1,15_dist_red/trial23.png,,,1,15,redHorizontal,p,75,53,female,2021-02-19_18h03.34.079,exp11,2020.2.6,Win32,60,,,,,,,,,,,
,,,,,,,,,,,,,,p,1,0.79019,space,0.448315,0,85,85,66,1,9_dist_red/trial17.png,,,1,9,redHorizontal,p,75,53,female,2021-02-19_18h03.34.079,exp11,2020.2.6,Win32,60,,,,,,,,,,,
,,,,,,,,,,,,,,p,1,0.985665,space,0.438965,0,86,86,53,1,9_dist_red/trial4.png,,,1,9,redHorizontal,p,75,53,female,2021-02-19_18h03.34.079,exp11,2020.2.6,Win32,60,,,,,,,,,,,
,,,,,,,,,,,,,,a,1,0.99097,space,0.3763,0,87,87,187,1,0_targ_16_dist_red/trial13.png,,,0,16,redHorizontal,a,75,53,female,2021-02-19_18h03.34.079,exp11,2020.2.6,Win32,60,,,,,,,,,,,
,,,,,,,,,,,,,,p,1,0.89563,space,0.41306,0,88,88,81,1,15_dist_red/trial7.png,,,1,15,redHorizontal,p,75,53,female,2021-02-19_18h03.34.079,exp11,2020.2.6,Win32,60,,,,,,,,,,,
,,,,,,,,,,,,,,p,1,0.768955,space,0.40142,0,89,89,28,1,3_dist_red/trial4.png,,,1,3,redHorizontal,p,75,53,female,2021-02-19_18h03.34.079,exp11,2020.2.6,Win32,60,,,,,,,,,,,
,,,,,,,,,,,,,,a,1,1.609235,space,0.33207,0,90,90,190,1,0_targ_16_dist_red/trial16.png,,,0,16,redHorizontal,a,75,53,female,2021-02-19_18h03.34.079,exp11,2020.2.6,Win32,60,,,,,,,,,,,
,,,,,,,,,,,,,,p,1,0.81884,space,0.715015,0,91,91,64,1,9_dist_red/trial15.png,,,1,9,redHorizontal,p,75,53,female,2021-02-19_18h03.34.079,exp11,2020.2.6,Win32,60,,,,,,,,,,,
,,,,,,,,,,,,,,a,1,0.879295,space,0.40651,0,92,92,146,1,0_targ_4_dist_red/trial22.png,,,0,4,redHorizontal,a,75,53,female,2021-02-19_18h03.34.079,exp11,2020.2.6,Win32,60,,,,,,,,,,,
,,,,,,,,,,,,,,p,1,0.87048,space,0.398245,0,93,93,49,1,3_dist_red/trial25.png,,,1,3,redHorizontal,p,75,53,female,2021-02-19_18h03.34.079,exp11,2020.2.6,Win32,60,,,,,,,,,,,
,,,,,,,,,,,,,,p,1,0.817815,space,0.432205,0,94,94,61,1,9_dist_red/trial12.png,,,1,9,redHorizontal,p,75,53,female,2021-02-19_18h03.34.079,exp11,2020.2.6,Win32,60,,,,,,,,,,,
,,,,,,,,,,,,,,p,1,0.773425,space,0.47161,0,95,95,15,1,0_dist_red/trial16.png,,,1,0,redHorizontal,p,75,53,female,2021-02-19_18h03.34.079,exp11,2020.2.6,Win32,60,,,,,,,,,,,
,,,,,,,,,,,,,,a,1,1.404385,space,0.55586,0,96,96,151,1,0_targ_10_dist_red/trial2.png,,,0,10,redHorizontal,a,75,53,female,2021-02-19_18h03.34.079,exp11,2020.2.6,Win32,60,,,,,,,,,,,
,,,,,,,,,,,,,,p,1,0.66926,space,0.526315,0,97,97,33,1,3_dist_red/trial9.png,,,1,3,redHorizontal,p,75,53,female,2021-02-19_18h03.34.079,exp11,2020.2.6,Win32,60,,,,,,,,,,,
,,,,,,,,,,,,,,p,1,1.111175,space,0.46664,0,98,98,79,1,15_dist_red/trial5.png,,,1,15,redHorizontal,p,75,53,female,2021-02-19_18h03.34.079,exp11,2020.2.6,Win32,60,,,,,,,,,,,
,,,,,,,,,,,,,,a,1,1.176915,space,0.454105,0,99,99,199,1,0_targ_16_dist_red/trial25.png,,,0,16,redHorizontal,a,75,53,female,2021-02-19_18h03.34.079,exp11,2020.2.6,Win32,60,,,,,,,,,,,
,,,,,,,,,,,,,,a,1,1.349645,space,0.421355,0,100,100,180,1,0_targ_16_dist_red/trial6.png,,,0,16,redHorizontal,a,75,53,female,2021-02-19_18h03.34.079,exp11,2020.2.6,Win32,60,,,,,,,,,,,
,,,,,,,,,,,,,,a,1,1.989705,space,0.37769,0,101,101,197,1,0_targ_16_dist_red/trial23.png,,,0,16,redHorizontal,a,75,53,female,2021-02-19_18h03.34.079,exp11,2020.2.6,Win32,60,,,,,,,,,,,
,,,,,,,,,,,,,,a,0,1.578295,space,1.149775,0,102,102,55,1,9_dist_red/trial6.png,,,1,9,redHorizontal,p,75,53,female,2021-02-19_18h03.34.079,exp11,2020.2.6,Win32,60,,,,,,,,,,,
,,,,,,,,,,,,,,p,1,1.175435,space,0.47693,0,103,103,47,1,3_dist_red/trial23.png,,,1,3,redHorizontal,p,75,53,female,2021-02-19_18h03.34.079,exp11,2020.2.6,Win32,60,,,,,,,,,,,
,,,,,,,,,,,,,,a,1,0.821055,space,0.41842,0,104,104,130,1,0_targ_4_dist_red/trial6.png,,,0,4,redHorizontal,a,75,53,female,2021-02-19_18h03.34.079,exp11,2020.2.6,Win32,60,,,,,,,,,,,
,,,,,,,,,,,,,,p,1,0.753345,space,0.40024,0,105,105,32,1,3_dist_red/trial8.png,,,1,3,redHorizontal,p,75,53,female,2021-02-19_18h03.34.079,exp11,2020.2.6,Win32,60,,,,,,,,,,,
,,,,,,,,,,,,,,p,1,0.988775,space,0.5157,0,106,106,4,1,0_dist_red/trial5.png,,,1,0,redHorizontal,p,75,53,female,2021-02-19_18h03.34.079,exp11,2020.2.6,Win32,60,,,,,,,,,,,
,,,,,,,,,,,,,,a,1,1.2324,space,0.53229,0,107,107,121,1,0_targ_1_dist_red/trial22.png,,,0,1,redHorizontal,a,75,53,female,2021-02-19_18h03.34.079,exp11,2020.2.6,Win32,60,,,,,,,,,,,
,,,,,,,,,,,,,,a,1,3.93414,space,0.399025,0,108,108,168,1,0_targ_10_dist_red/trial19.png,,,0,10,redHorizontal,a,75,53,female,2021-02-19_18h03.34.079,exp11,2020.2.6,Win32,60,,,,,,,,,,,
,,,,,,,,,,,,,,p,1,0.768555,space,0.42362,0,109,109,94,1,15_dist_red/trial20.png,,,1,15,redHorizontal,p,75,53,female,2021-02-19_18h03.34.079,exp11,2020.2.6,Win32,60,,,,,,,,,,,
,,,,,,,,,,,,,,a,1,1.00981,space,0.40161,0,110,110,164,1,0_targ_10_dist_red/trial15.png,,,0,10,redHorizontal,a,75,53,female,2021-02-19_18h03.34.079,exp11,2020.2.6,Win32,60,,,,,,,,,,,
,,,,,,,,,,,,,,a,1,0.835355,space,0.36799,0,111,111,109,1,0_targ_1_dist_red/trial10.png,,,0,1,redHorizontal,a,75,53,female,2021-02-19_18h03.34.079,exp11,2020.2.6,Win32,60,,,,,,,,,,,
,,,,,,,,,,,,,,p,1,0.65326,space,0.38563,0,112,112,18,1,0_dist_red/trial19.png,,,1,0,redHorizontal,p,75,53,female,2021-02-19_18h03.34.079,exp11,2020.2.6,Win32,60,,,,,,,,,,,
,,,,,,,,,,,,,,p,1,0.904725,space,0.399455,0,113,113,98,1,15_dist_red/trial24.png,,,1,15,redHorizontal,p,75,53,female,2021-02-19_18h03.34.079,exp11,2020.2.6,Win32,60,,,,,,,,,,,
,,,,,,,,,,,,,,p,1,0.750965,space,0.432835,0,114,114,27,1,3_dist_red/trial3.png,,,1,3,redHorizontal,p,75,53,female,2021-02-19_18h03.34.079,exp11,2020.2.6,Win32,60,,,,,,,,,,,
,,,,,,,,,,,,,,p,1,0.602145,space,0.351565,0,115,115,3,1,0_dist_red/trial4.png,,,1,0,redHorizontal,p,75,53,female,2021-02-19_18h03.34.079,exp11,2020.2.6,Win32,60,,,,,,,,,,,
,,,,,,,,,,,,,,p,1,0.64646,space,0.43877,0,116,116,38,1,3_dist_red/trial14.png,,,1,3,redHorizontal,p,75,53,female,2021-02-19_18h03.34.079,exp11,2020.2.6,Win32,60,,,,,,,,,,,
,,,,,,,,,,,,,,a,1,2.082815,space,0.53443,0,117,117,158,1,0_targ_10_dist_red/trial9.png,,,0,10,redHorizontal,a,75,53,female,2021-02-19_18h03.34.079,exp11,2020.2.6,Win32,60,,,,,,,,,,,
,,,,,,,,,,,,,,a,1,0.88785,space,0.432485,0,118,118,107,1,0_targ_1_dist_red/trial8.png,,,0,1,redHorizontal,a,75,53,female,2021-02-19_18h03.34.079,exp11,2020.2.6,Win32,60,,,,,,,,,,,
,,,,,,,,,,,,,,p,1,0.77414,space,0.56512,0,119,119,1,1,0_dist_red/trial2.png,,,1,0,redHorizontal,p,75,53,female,2021-02-19_18h03.34.079,exp11,2020.2.6,Win32,60,,,,,,,,,,,
,,,,,,,,,,,,,,a,1,0.725755,space,0.45116,0,120,120,118,1,0_targ_1_dist_red/trial19.png,,,0,1,redHorizontal,a,75,53,female,2021-02-19_18h03.34.079,exp11,2020.2.6,Win32,60,,,,,,,,,,,
,,,,,,,,,,,,,,p,1,0.652555,space,0.459075,0,121,121,14,1,0_dist_red/trial15.png,,,1,0,redHorizontal,p,75,53,female,2021-02-19_18h03.34.079,exp11,2020.2.6,Win32,60,,,,,,,,,,,
,,,,,,,,,,,,,,a,1,1.840185,space,0.41574,0,122,122,173,1,0_targ_10_dist_red/trial24.png,,,0,10,redHorizontal,a,75,53,female,2021-02-19_18h03.34.079,exp11,2020.2.6,Win32,60,,,,,,,,,,,
,,,,,,,,,,,,,,p,1,0.75981,space,0.452755,0,123,123,93,1,15_dist_red/trial19.png,,,1,15,redHorizontal,p,75,53,female,2021-02-19_18h03.34.079,exp11,2020.2.6,Win32,60,,,,,,,,,,,
,,,,,,,,,,,,,,a,1,0.7989,space,0.41949,0,124,124,174,1,0_targ_10_dist_red/trial25.png,,,0,10,redHorizontal,a,75,53,female,2021-02-19_18h03.34.079,exp11,2020.2.6,Win32,60,,,,,,,,,,,
,,,,,,,,,,,,,,p,1,0.78339,space,0.52883,0,125,125,12,1,0_dist_red/trial13.png,,,1,0,redHorizontal,p,75,53,female,2021-02-19_18h03.34.079,exp11,2020.2.6,Win32,60,,,,,,,,,,,
,,,,,,,,,,,,,,a,1,1.786025,space,1.06521,0,126,126,150,1,0_targ_10_dist_red/trial1.png,,,0,10,redHorizontal,a,75,53,female,2021-02-19_18h03.34.079,exp11,2020.2.6,Win32,60,,,,,,,,,,,
,,,,,,,,,,,,,,a,1,1.08292,space,0.40128,0,127,127,170,1,0_targ_10_dist_red/trial21.png,,,0,10,redHorizontal,a,75,53,female,2021-02-19_18h03.34.079,exp11,2020.2.6,Win32,60,,,,,,,,,,,
,,,,,,,,,,,,,,a,1,1.6565,space,0.405925,0,128,128,191,1,0_targ_16_dist_red/trial17.png,,,0,16,redHorizontal,a,75,53,female,2021-02-19_18h03.34.079,exp11,2020.2.6,Win32,60,,,,,,,,,,,
,,,,,,,,,,,,,,p,1,0.84995,space,0.475715,0,129,129,37,1,3_dist_red/trial13.png,,,1,3,redHorizontal,p,75,53,female,2021-02-19_18h03.34.079,exp11,2020.2.6,Win32,60,,,,,,,,,,,
,,,,,,,,,,,,,,a,1,0.841245,space,0.421515,0,130,130,132,1,0_targ_4_dist_red/trial8.png,,,0,4,redHorizontal,a,75,53,female,2021-02-19_18h03.34.079,exp11,2020.2.6,Win32,60,,,,,,,,,,,
,,,,,,,,,,,,,,a,1,1.10702,space,0.41969,0,131,131,163,1,0_targ_10_dist_red/trial14.png,,,0,10,redHorizontal,a,75,53,female,2021-02-19_18h03.34.079,exp11,2020.2.6,Win32,60,,,,,,,,,,,
,,,,,,,,,,,,,,a,1,1.199385,space,0.38219,0,132,132,178,1,0_targ_16_dist_red/trial4.png,,,0,16,redHorizontal,a,75,53,female,2021-02-19_18h03.34.079,exp11,2020.2.6,Win32,60,,,,,,,,,,,
,,,,,,,,,,,,,,a,1,1.40145,space,0.37528,0,133,133,152,1,0_targ_10_dist_red/trial3.png,,,0,10,redHorizontal,a,75,53,female,2021-02-19_18h03.34.079,exp11,2020.2.6,Win32,60,,,,,,,,,,,
,,,,,,,,,,,,,,a,1,1.192195,space,0.401155,0,134,134,177,1,0_targ_16_dist_red/trial3.png,,,0,16,redHorizontal,a,75,53,female,2021-02-19_18h03.34.079,exp11,2020.2.6,Win32,60,,,,,,,,,,,
,,,,,,,,,,,,,,p,1,0.916805,space,0.54051,0,135,135,51,1,9_dist_red/trial2.png,,,1,9,redHorizontal,p,75,53,female,2021-02-19_18h03.34.079,exp11,2020.2.6,Win32,60,,,,,,,,,,,
,,,,,,,,,,,,,,p,1,1.11659,space,0.441935,0,136,136,35,1,3_dist_red/trial11.png,,,1,3,redHorizontal,p,75,53,female,2021-02-19_18h03.34.079,exp11,2020.2.6,Win32,60,,,,,,,,,,,
,,,,,,,,,,,,,,p,1,0.72706,space,0.51577,0,137,137,63,1,9_dist_red/trial14.png,,,1,9,redHorizontal,p,75,53,female,2021-02-19_18h03.34.079,exp11,2020.2.6,Win32,60,,,,,,,,,,,
,,,,,,,,,,,,,,a,1,1.23409,space,0.414745,0,138,138,102,1,0_targ_1_dist_red/trial3.png,,,0,1,redHorizontal,a,75,53,female,2021-02-19_18h03.34.079,exp11,2020.2.6,Win32,60,,,,,,,,,,,
,,,,,,,,,,,,,,p,1,1.293625,space,0.40088,0,139,139,54,1,9_dist_red/trial5.png,,,1,9,redHorizontal,p,75,53,female,2021-02-19_18h03.34.079,exp11,2020.2.6,Win32,60,,,,,,,,,,,
,,,,,,,,,,,,,,p,1,0.941065,space,0.392115,0,140,140,84,1,15_dist_red/trial10.png,,,1,15,redHorizontal,p,75,53,female,2021-02-19_18h03.34.079,exp11,2020.2.6,Win32,60,,,,,,,,,,,
,,,,,,,,,,,,,,p,1,1.00629,space,0.486895,0,141,141,96,1,15_dist_red/trial22.png,,,1,15,redHorizontal,p,75,53,female,2021-02-19_18h03.34.079,exp11,2020.2.6,Win32,60,,,,,,,,,,,
,,,,,,,,,,,,,,p,1,0.855285,space,0.48693,0,142,142,70,1,9_dist_red/trial21.png,,,1,9,redHorizontal,p,75,53,female,2021-02-19_18h03.34.079,exp11,2020.2.6,Win32,60,,,,,,,,,,,
,,,,,,,,,,,,,,a,1,1.331765,space,0.38021,0,143,143,179,1,0_targ_16_dist_red/trial5.png,,,0,16,redHorizontal,a,75,53,female,2021-02-19_18h03.34.079,exp11,2020.2.6,Win32,60,,,,,,,,,,,
,,,,,,,,,,,,,,a,1,1.585735,space,0.36031,0,144,144,176,1,0_targ_16_dist_red/trial2.png,,,0,16,redHorizontal,a,75,53,female,2021-02-19_18h03.34.079,exp11,2020.2.6,Win32,60,,,,,,,,,,,
,,,,,,,,,,,,,,p,1,1.021115,space,0.4153,0,145,145,76,1,15_dist_red/trial2.png,,,1,15,redHorizontal,p,75,53,female,2021-02-19_18h03.34.079,exp11,2020.2.6,Win32,60,,,,,,,,,,,
,,,,,,,,,,,,,,a,1,1.24694,space,0.47132,0,146,146,186,1,0_targ_16_dist_red/trial12.png,,,0,16,redHorizontal,a,75,53,female,2021-02-19_18h03.34.079,exp11,2020.2.6,Win32,60,,,,,,,,,,,
,,,,,,,,,,,,,,a,1,1.734625,space,0.415035,0,147,147,182,1,0_targ_16_dist_red/trial8.png,,,0,16,redHorizontal,a,75,53,female,2021-02-19_18h03.34.079,exp11,2020.2.6,Win32,60,,,,,,,,,,,
,,,,,,,,,,,,,,p,1,0.91645,space,0.435565,0,148,148,77,1,15_dist_red/trial3.png,,,1,15,redHorizontal,p,75,53,female,2021-02-19_18h03.34.079,exp11,2020.2.6,Win32,60,,,,,,,,,,,
,,,,,,,,,,,,,,p,1,0.8987,space,0.33308,0,149,149,42,1,3_dist_red/trial18.png,,,1,3,redHorizontal,p,75,53,female,2021-02-19_18h03.34.079,exp11,2020.2.6,Win32,60,,,,,,,,,,,
,,,,,,,,,,,,,,p,1,0.76406,space,0.42873,0,150,150,25,1,3_dist_red/trial1.png,,,1,3,redHorizontal,p,75,53,female,2021-02-19_18h03.34.079,exp11,2020.2.6,Win32,60,,,,,,,,,,,
,,,,,,,,,,,,,,a,1,1.119415,space,0.41699,0,151,151,115,1,0_targ_1_dist_red/trial6.png,,,0,1,redHorizontal,a,75,53,female,2021-02-19_18h03.34.079,exp11,2020.2.6,Win32,60,,,,,,,,,,,
,,,,,,,,,,,,,,a,1,0.859755,space,0.399405,0,152,152,127,1,0_targ_4_dist_red/trial3.png,,,0,4,redHorizontal,a,75,53,female,2021-02-19_18h03.34.079,exp11,2020.2.6,Win32,60,,,,,,,,,,,
,,,,,,,,,,,,,,a,1,0.62026,space,0.35885,0,153,153,126,1,0_targ_4_dist_red/trial2.png,,,0,4,redHorizontal,a,75,53,female,2021-02-19_18h03.34.079,exp11,2020.2.6,Win32,60,,,,,,,,,,,
,,,,,,,,,,,,,,a,1,0.92619,space,0.569015,0,154,154,123,1,0_targ_1_dist_red/trial24.png,,,0,1,redHorizontal,a,75,53,female,2021-02-19_18h03.34.079,exp11,2020.2.6,Win32,60,,,,,,,,,,,
,,,,,,,,,,,,,,a,1,0.92095,space,0.42008,0,155,155,161,1,0_targ_10_dist_red/trial12.png,,,0,10,redHorizontal,a,75,53,female,2021-02-19_18h03.34.079,exp11,2020.2.6,Win32,60,,,,,,,,,,,
,,,,,,,,,,,,,,p,1,0.87813,space,0.38679,0,156,156,73,1,9_dist_red/trial24.png,,,1,9,redHorizontal,p,75,53,female,2021-02-19_18h03.34.079,exp11,2020.2.6,Win32,60,,,,,,,,,,,
,,,,,,,,,,,,,,p,1,1.2157,space,0.440795,0,157,157,71,1,9_dist_red/trial22.png,,,1,9,redHorizontal,p,75,53,female,2021-02-19_18h03.34.079,exp11,2020.2.6,Win32,60,,,,,,,,,,,
,,,,,,,,,,,,,,a,1,1.09579,space,0.46122,0,158,158,184,1,0_targ_16_dist_red/trial10.png,,,0,16,redHorizontal,a,75,53,female,2021-02-19_18h03.34.079,exp11,2020.2.6,Win32,60,,,,,,,,,,,
,,,,,,,,,,,,,,p,1,0.73064,space,0.42063,0,159,159,16,1,0_dist_red/trial17.png,,,1,0,redHorizontal,p,75,53,female,2021-02-19_18h03.34.079,exp11,2020.2.6,Win32,60,,,,,,,,,,,
,,,,,,,,,,,,,,a,1,0.93675,space,0.438,0,160,160,141,1,0_targ_4_dist_red/trial17.png,,,0,4,redHorizontal,a,75,53,female,2021-02-19_18h03.34.079,exp11,2020.2.6,Win32,60,,,,,,,,,,,
,,,,,,,,,,,,,,a,1,0.81572,space,0.36231,0,161,161,134,1,0_targ_4_dist_red/trial10.png,,,0,4,redHorizontal,a,75,53,female,2021-02-19_18h03.34.079,exp11,2020.2.6,Win32,60,,,,,,,,,,,
,,,,,,,,,,,,,,p,1,0.67285,space,0.51847,0,162,162,10,1,0_dist_red/trial11.png,,,1,0,redHorizontal,p,75,53,female,2021-02-19_18h03.34.079,exp11,2020.2.6,Win32,60,,,,,,,,,,,
,,,,,,,,,,,,,,a,1,0.803055,space,0.393885,0,163,163,131,1,0_targ_4_dist_red/trial7.png,,,0,4,redHorizontal,a,75,53,female,2021-02-19_18h03.34.079,exp11,2020.2.6,Win32,60,,,,,,,,,,,
,,,,,,,,,,,,,,p,1,0.74034,space,0.468525,0,164,164,17,1,0_dist_red/trial18.png,,,1,0,redHorizontal,p,75,53,female,2021-02-19_18h03.34.079,exp11,2020.2.6,Win32,60,,,,,,,,,,,
,,,,,,,,,,,,,,a,1,0.79874,space,0.41554,0,165,165,112,1,0_targ_1_dist_red/trial13.png,,,0,1,redHorizontal,a,75,53,female,2021-02-19_18h03.34.079,exp11,2020.2.6,Win32,60,,,,,,,,,,,
,,,,,,,,,,,,,,p,1,0.744565,space,0.45855,0,166,166,30,1,3_dist_red/trial6.png,,,1,3,redHorizontal,p,75,53,female,2021-02-19_18h03.34.079,exp11,2020.2.6,Win32,60,,,,,,,,,,,
,,,,,,,,,,,,,,a,1,0.80984,space,0.448495,0,167,167,149,1,0_targ_4_dist_red/trial25.png,,,0,4,redHorizontal,a,75,53,female,2021-02-19_18h03.34.079,exp11,2020.2.6,Win32,60,,,,,,,,,,,
,,,,,,,,,,,,,,p,1,0.833445,space,0.6565,0,168,168,43,1,3_dist_red/trial19.png,,,1,3,redHorizontal,p,75,53,female,2021-02-19_18h03.34.079,exp11,2020.2.6,Win32,60,,,,,,,,,,,
,,,,,,,,,,,,,,p,1,1.054945,space,0.490895,0,169,169,29,1,3_dist_red/trial5.png,,,1,3,redHorizontal,p,75,53,female,2021-02-19_18h03.34.079,exp11,2020.2.6,Win32,60,,,,,,,,,,,
,,,,,,,,,,,,,,a,1,0.82024,space,0.57528,0,170,170,172,1,0_targ_10_dist_red/trial23.png,,,0,10,redHorizontal,a,75,53,female,2021-02-19_18h03.34.079,exp11,2020.2.6,Win32,60,,,,,,,,,,,
,,,,,,,,,,,,,,p,1,0.794055,space,0.59136,0,171,171,58,1,9_dist_red/trial9.png,,,1,9,redHorizontal,p,75,53,female,2021-02-19_18h03.34.079,exp11,2020.2.6,Win32,60,,,,,,,,,,,
,,,,,,,,,,,,,,a,1,0.69485,space,0.42052,0,172,172,101,1,0_targ_1_dist_red/trial2.png,,,0,1,redHorizontal,a,75,53,female,2021-02-19_18h03.34.079,exp11,2020.2.6,Win32,60,,,,,,,,,,,
,,,,,,,,,,,,,,a,1,0.721495,space,0.467775,0,173,173,100,1,0_targ_1_dist_red/trial1.png,,,0,1,redHorizontal,a,75,53,female,2021-02-19_18h03.34.079,exp11,2020.2.6,Win32,60,,,,,,,,,,,
,,,,,,,,,,,,,,a,1,0.80674,space,0.36567,0,174,174,104,1,0_targ_1_dist_red/trial5.png,,,0,1,redHorizontal,a,75,53,female,2021-02-19_18h03.34.079,exp11,2020.2.6,Win32,60,,,,,,,,,,,
,,,,,,,,,,,,,,p,1,0.619945,space,0.63713,0,175,175,44,1,3_dist_red/trial20.png,,,1,3,redHorizontal,p,75,53,female,2021-02-19_18h03.34.079,exp11,2020.2.6,Win32,60,,,,,,,,,,,
,,,,,,,,,,,,,,p,1,0.985145,space,0.418685,0,176,176,40,1,3_dist_red/trial16.png,,,1,3,redHorizontal,p,75,53,female,2021-02-19_18h03.34.079,exp11,2020.2.6,Win32,60,,,,,,,,,,,
,,,,,,,,,,,,,,a,1,0.934485,space,0.384655,0,177,177,175,1,0_targ_16_dist_red/trial1.png,,,0,16,redHorizontal,a,75,53,female,2021-02-19_18h03.34.079,exp11,2020.2.6,Win32,60,,,,,,,,,,,
,,,,,,,,,,,,,,a,1,1.185325,space,1.15265,0,178,178,144,1,0_targ_4_dist_red/trial20.png,,,0,4,redHorizontal,a,75,53,female,2021-02-19_18h03.34.079,exp11,2020.2.6,Win32,60,,,,,,,,,,,
,,,,,,,,,,,,,,a,1,1.317155,space,0.53473,0,179,179,188,1,0_targ_16_dist_red/trial14.png,,,0,16,redHorizontal,a,75,53,female,2021-02-19_18h03.34.079,exp11,2020.2.6,Win32,60,,,,,,,,,,,
,,,,,,,,,,,,,,a,1,0.76863,space,0.40777,0,180,180,169,1,0_targ_10_dist_red/trial20.png,,,0,10,redHorizontal,a,75,53,female,2021-02-19_18h03.34.079,exp11,2020.2.6,Win32,60,,,,,,,,,,,
,,,,,,,,,,,,,,p,1,1.08065,space,0.43812,0,181,181,78,1,15_dist_red/trial4.png,,,1,15,redHorizontal,p,75,53,female,2021-02-19_18h03.34.079,exp11,2020.2.6,Win32,60,,,,,,,,,,,
,,,,,,,,,,,,,,p,1,1.107945,space,0.395475,0,182,182,74,1,9_dist_red/trial25.png,,,1,9,redHorizontal,p,75,53,female,2021-02-19_18h03.34.079,exp11,2020.2.6,Win32,60,,,,,,,,,,,
,,,,,,,,,,,,,,p,1,0.855485,space,0.38358,0,183,183,91,1,15_dist_red/trial17.png,,,1,15,redHorizontal,p,75,53,female,2021-02-19_18h03.34.079,exp11,2020.2.6,Win32,60,,,,,,,,,,,
,,,,,,,,,,,,,,p,1,0.94204,space,0.43961,0,184,184,90,1,15_dist_red/trial16.png,,,1,15,redHorizontal,p,75,53,female,2021-02-19_18h03.34.079,exp11,2020.2.6,Win32,60,,,,,,,,,,,
,,,,,,,,,,,,,,a,1,0.943375,space,0.559375,0,185,185,154,1,0_targ_10_dist_red/trial5.png,,,0,10,redHorizontal,a,75,53,female,2021-02-19_18h03.34.079,exp11,2020.2.6,Win32,60,,,,,,,,,,,
,,,,,,,,,,,,,,p,1,1.01854,space,0.757705,0,186,186,88,1,15_dist_red/trial14.png,,,1,15,redHorizontal,p,75,53,female,2021-02-19_18h03.34.079,exp11,2020.2.6,Win32,60,,,,,,,,,,,
,,,,,,,,,,,,,,p,1,0.820625,space,0.46516,0,187,187,57,1,9_dist_red/trial8.png,,,1,9,redHorizontal,p,75,53,female,2021-02-19_18h03.34.079,exp11,2020.2.6,Win32,60,,,,,,,,,,,
,,,,,,,,,,,,,,a,1,1.03125,space,0.403185,0,188,188,166,1,0_targ_10_dist_red/trial17.png,,,0,10,redHorizontal,a,75,53,female,2021-02-19_18h03.34.079,exp11,2020.2.6,Win32,60,,,,,,,,,,,
,,,,,,,,,,,,,,a,1,1.04098,space,0.422025,0,189,189,196,1,0_targ_16_dist_red/trial22.png,,,0,16,redHorizontal,a,75,53,female,2021-02-19_18h03.34.079,exp11,2020.2.6,Win32,60,,,,,,,,,,,
,,,,,,,,,,,,,,a,1,1.258835,space,0.420915,0,190,190,120,1,0_targ_1_dist_red/trial21.png,,,0,1,redHorizontal,a,75,53,female,2021-02-19_18h03.34.079,exp11,2020.2.6,Win32,60,,,,,,,,,,,
,,,,,,,,,,,,,,a,1,0.871425,space,0.374535,0,191,191,147,1,0_targ_4_dist_red/trial23.png,,,0,4,redHorizontal,a,75,53,female,2021-02-19_18h03.34.079,exp11,2020.2.6,Win32,60,,,,,,,,,,,
,,,,,,,,,,,,,,a,1,0.68778,space,0.367375,0,192,192,136,1,0_targ_4_dist_red/trial12.png,,,0,4,redHorizontal,a,75,53,female,2021-02-19_18h03.34.079,exp11,2020.2.6,Win32,60,,,,,,,,,,,
,,,,,,,,,,,,,,a,1,1.067015,space,0.415085,0,193,193,155,1,0_targ_10_dist_red/trial6.png,,,0,10,redHorizontal,a,75,53,female,2021-02-19_18h03.34.079,exp11,2020.2.6,Win32,60,,,,,,,,,,,
,,,,,,,,,,,,,,p,1,0.934285,space,0.391055,0,194,194,60,1,9_dist_red/trial11.png,,,1,9,redHorizontal,p,75,53,female,2021-02-19_18h03.34.079,exp11,2020.2.6,Win32,60,,,,,,,,,,,
,,,,,,,,,,,,,,p,1,0.788445,space,0.40146,0,195,195,20,1,0_dist_red/trial21.png,,,1,0,redHorizontal,p,75,53,female,2021-02-19_18h03.34.079,exp11,2020.2.6,Win32,60,,,,,,,,,,,
,,,,,,,,,,,,,,a,1,0.968905,space,0.387125,0,196,196,185,1,0_targ_16_dist_red/trial11.png,,,0,16,redHorizontal,a,75,53,female,2021-02-19_18h03.34.079,exp11,2020.2.6,Win32,60,,,,,,,,,,,
,,,,,,,,,,,,,,a,1,0.84121,space,0.352325,0,197,197,122,1,0_targ_1_dist_red/trial23.png,,,0,1,redHorizontal,a,75,53,female,2021-02-19_18h03.34.079,exp11,2020.2.6,Win32,60,,,,,,,,,,,
,,,,,,,,,,,,,,p,1,0.75265,space,0.915,0,198,198,68,1,9_dist_red/trial19.png,,,1,9,redHorizontal,p,75,53,female,2021-02-19_18h03.34.079,exp11,2020.2.6,Win32,60,,,,,,,,,,,
,,,,,,,,,,,,,,p,1,0.756215,space,0.56733,0,199,199,24,1,0_dist_red/trial25.png,,,1,0,redHorizontal,p,75,53,female,2021-02-19_18h03.34.079,exp11,2020.2.6,Win32,60,,,,,,,,,,,
,,,,,,,,,,,,,,,,,,,,,,,,,,,,,,,75,53,female,2021-02-19_18h03.34.079,exp11,2020.2.6,Win32,60,0,1,1,1,1,conRed.xlsx,red horizontal,Look for red horizontal bar (target) and indicate if it is present or absent in the array. If red horizontal target is present press 'p' and if absent press 'a'. Press SPACE to start.,,,
