key_resp_6.keys,key_resp_6.rt,key_resp_7.keys,key_resp_7.rt,key_resp_8.keys,key_resp_8.rt,key_resp_10.keys,key_resp_10.rt,key_resp_9.keys,key_resp_9.rt,key_resp_3.keys,key_resp_3.rt,key_resp_5.keys,key_resp_5.rt,key_resp.keys,key_resp.corr,key_resp.rt,key_resp_4.keys,key_resp_4.rt,trials.thisRepN,trials.thisTrialN,trials.thisN,trials.thisIndex,trials.ran,ImageFile,tarPos,tarSize,targPres,numDist,targetName,correctAns,participant,age,sex,date,expName,psychopyVersion,OS,frameRate,trials_2.thisRepN,trials_2.thisTrialN,trials_2.thisN,trials_2.thisIndex,trials_2.ran,condsFile,targName,instructionText,colTarget,sizeTarg,posit
space,7.001,space,7.523,space,7.528,space,9.524,space,5.218,space,13.134,space,5.473,p,1,2.322,space,5.149,0,0,0,78,1,15_dist_green/trial4.png,,,1,15,greenverival,p,76,49,F,2021-02-17_21h38.56.558,exp11,2020.2.6,MacIntel,60,,,,,,,,,,,
,,,,,,,,,,,,,,p,1,0.821,space,2.81,0,1,1,40,1,3_dist_green/trial16.png,,,1,3,greenverival,p,76,49,F,2021-02-17_21h38.56.558,exp11,2020.2.6,MacIntel,60,,,,,,,,,,,
,,,,,,,,,,,,,,p,1,1.38,space,1.504,0,2,2,36,1,3_dist_green/trial12.png,,,1,3,greenverival,p,76,49,F,2021-02-17_21h38.56.558,exp11,2020.2.6,MacIntel,60,,,,,,,,,,,
,,,,,,,,,,,,,,p,0,0.98,space,0.28,0,3,3,102,1,0_targ_1_dist_green/trial3.png,,,0,1,greenverival,a,76,49,F,2021-02-17_21h38.56.558,exp11,2020.2.6,MacIntel,60,,,,,,,,,,,
,,,,,,,,,,,,,,a,1,1.463,space,1.61,0,4,4,101,1,0_targ_1_dist_green/trial2.png,,,0,1,greenverival,a,76,49,F,2021-02-17_21h38.56.558,exp11,2020.2.6,MacIntel,60,,,,,,,,,,,
,,,,,,,,,,,,,,a,1,0.802,space,1.105,0,5,5,109,1,0_targ_1_dist_green/trial10.png,,,0,1,greenverival,a,76,49,F,2021-02-17_21h38.56.558,exp11,2020.2.6,MacIntel,60,,,,,,,,,,,
,,,,,,,,,,,,,,p,1,1.872,space,1.281,0,6,6,20,1,0_dist_green/trial21.png,,,1,0,greenverival,p,76,49,F,2021-02-17_21h38.56.558,exp11,2020.2.6,MacIntel,60,,,,,,,,,,,
,,,,,,,,,,,,,,a,1,1.368,space,1.039,0,7,7,175,1,0_targ_16_dist_green/trial1.png,,,0,16,greenverival,a,76,49,F,2021-02-17_21h38.56.558,exp11,2020.2.6,MacIntel,60,,,,,,,,,,,
,,,,,,,,,,,,,,p,1,1.507,space,1.069,0,8,8,38,1,3_dist_green/trial14.png,,,1,3,greenverival,p,76,49,F,2021-02-17_21h38.56.558,exp11,2020.2.6,MacIntel,60,,,,,,,,,,,
,,,,,,,,,,,,,,p,0,1.664,space,0.685,0,9,9,177,1,0_targ_16_dist_green/trial3.png,,,0,16,greenverival,a,76,49,F,2021-02-17_21h38.56.558,exp11,2020.2.6,MacIntel,60,,,,,,,,,,,
,,,,,,,,,,,,,,p,1,1.487,space,0.999,0,10,10,99,1,15_dist_green/trial25.png,,,1,15,greenverival,p,76,49,F,2021-02-17_21h38.56.558,exp11,2020.2.6,MacIntel,60,,,,,,,,,,,
,,,,,,,,,,,,,,p,1,1.096,space,1.081,0,11,11,46,1,3_dist_green/trial22.png,,,1,3,greenverival,p,76,49,F,2021-02-17_21h38.56.558,exp11,2020.2.6,MacIntel,60,,,,,,,,,,,
,,,,,,,,,,,,,,a,1,1.158,space,1.091,0,12,12,190,1,0_targ_16_dist_green/trial16.png,,,0,16,greenverival,a,76,49,F,2021-02-17_21h38.56.558,exp11,2020.2.6,MacIntel,60,,,,,,,,,,,
,,,,,,,,,,,,,,a,1,1.185,space,0.7,0,13,13,126,1,0_targ_4_dist_green/trial2.png,,,0,4,greenverival,a,76,49,F,2021-02-17_21h38.56.558,exp11,2020.2.6,MacIntel,60,,,,,,,,,,,
,,,,,,,,,,,,,,p,1,0.839,space,0.626,0,14,14,24,1,0_dist_green/trial25.png,,,1,0,greenverival,p,76,49,F,2021-02-17_21h38.56.558,exp11,2020.2.6,MacIntel,60,,,,,,,,,,,
,,,,,,,,,,,,,,a,1,0.868,space,0.961,0,15,15,178,1,0_targ_16_dist_green/trial4.png,,,0,16,greenverival,a,76,49,F,2021-02-17_21h38.56.558,exp11,2020.2.6,MacIntel,60,,,,,,,,,,,
,,,,,,,,,,,,,,a,1,1.087,space,0.677,0,16,16,134,1,0_targ_4_dist_green/trial10.png,,,0,4,greenverival,a,76,49,F,2021-02-17_21h38.56.558,exp11,2020.2.6,MacIntel,60,,,,,,,,,,,
,,,,,,,,,,,,,,p,1,1.131,space,1.455,0,17,17,90,1,15_dist_green/trial16.png,,,1,15,greenverival,p,76,49,F,2021-02-17_21h38.56.558,exp11,2020.2.6,MacIntel,60,,,,,,,,,,,
,,,,,,,,,,,,,,a,1,0.873,space,0.693,0,18,18,137,1,0_targ_4_dist_green/trial13.png,,,0,4,greenverival,a,76,49,F,2021-02-17_21h38.56.558,exp11,2020.2.6,MacIntel,60,,,,,,,,,,,
,,,,,,,,,,,,,,a,1,0.796,space,0.737,0,19,19,106,1,0_targ_1_dist_green/trial7.png,,,0,1,greenverival,a,76,49,F,2021-02-17_21h38.56.558,exp11,2020.2.6,MacIntel,60,,,,,,,,,,,
,,,,,,,,,,,,,,p,1,0.838,space,0.772,0,20,20,64,1,9_dist_green/trial15.png,,,1,9,greenverival,p,76,49,F,2021-02-17_21h38.56.558,exp11,2020.2.6,MacIntel,60,,,,,,,,,,,
,,,,,,,,,,,,,,p,1,0.71,space,0.813,0,21,21,48,1,3_dist_green/trial24.png,,,1,3,greenverival,p,76,49,F,2021-02-17_21h38.56.558,exp11,2020.2.6,MacIntel,60,,,,,,,,,,,
,,,,,,,,,,,,,,a,1,0.773,space,0.787,0,22,22,180,1,0_targ_16_dist_green/trial6.png,,,0,16,greenverival,a,76,49,F,2021-02-17_21h38.56.558,exp11,2020.2.6,MacIntel,60,,,,,,,,,,,
,,,,,,,,,,,,,,a,1,0.715,space,0.668,0,23,23,144,1,0_targ_4_dist_green/trial20.png,,,0,4,greenverival,a,76,49,F,2021-02-17_21h38.56.558,exp11,2020.2.6,MacIntel,60,,,,,,,,,,,
,,,,,,,,,,,,,,p,1,0.745,space,0.676,0,24,24,0,1,0_dist_green/trial1.png,,,1,0,greenverival,p,76,49,F,2021-02-17_21h38.56.558,exp11,2020.2.6,MacIntel,60,,,,,,,,,,,
,,,,,,,,,,,,,,a,1,0.743,space,0.613,0,25,25,163,1,0_targ_10_dist_green/trial14.png,,,0,10,greenverival,a,76,49,F,2021-02-17_21h38.56.558,exp11,2020.2.6,MacIntel,60,,,,,,,,,,,
,,,,,,,,,,,,,,p,1,0.6,space,1.045,0,26,26,97,1,15_dist_green/trial23.png,,,1,15,greenverival,p,76,49,F,2021-02-17_21h38.56.558,exp11,2020.2.6,MacIntel,60,,,,,,,,,,,
,,,,,,,,,,,,,,p,1,0.97,space,0.728,0,27,27,71,1,9_dist_green/trial22.png,,,1,9,greenverival,p,76,49,F,2021-02-17_21h38.56.558,exp11,2020.2.6,MacIntel,60,,,,,,,,,,,
,,,,,,,,,,,,,,p,1,0.894,space,0.664,0,28,28,96,1,15_dist_green/trial22.png,,,1,15,greenverival,p,76,49,F,2021-02-17_21h38.56.558,exp11,2020.2.6,MacIntel,60,,,,,,,,,,,
,,,,,,,,,,,,,,a,1,0.6,space,0.597,0,29,29,115,1,0_targ_1_dist_green/trial6.png,,,0,1,greenverival,a,76,49,F,2021-02-17_21h38.56.558,exp11,2020.2.6,MacIntel,60,,,,,,,,,,,
,,,,,,,,,,,,,,a,1,0.747,space,0.541,0,30,30,150,1,0_targ_10_dist_green/trial1.png,,,0,10,greenverival,a,76,49,F,2021-02-17_21h38.56.558,exp11,2020.2.6,MacIntel,60,,,,,,,,,,,
,,,,,,,,,,,,,,a,1,0.638,space,0.687,0,31,31,166,1,0_targ_10_dist_green/trial17.png,,,0,10,greenverival,a,76,49,F,2021-02-17_21h38.56.558,exp11,2020.2.6,MacIntel,60,,,,,,,,,,,
,,,,,,,,,,,,,,a,1,0.632,space,0.477,0,32,32,154,1,0_targ_10_dist_green/trial5.png,,,0,10,greenverival,a,76,49,F,2021-02-17_21h38.56.558,exp11,2020.2.6,MacIntel,60,,,,,,,,,,,
,,,,,,,,,,,,,,a,1,0.996,space,0.554,0,33,33,191,1,0_targ_16_dist_green/trial17.png,,,0,16,greenverival,a,76,49,F,2021-02-17_21h38.56.558,exp11,2020.2.6,MacIntel,60,,,,,,,,,,,
,,,,,,,,,,,,,,a,1,0.728,space,0.551,0,34,34,181,1,0_targ_16_dist_green/trial7.png,,,0,16,greenverival,a,76,49,F,2021-02-17_21h38.56.558,exp11,2020.2.6,MacIntel,60,,,,,,,,,,,
,,,,,,,,,,,,,,a,1,0.717,space,0.5,0,35,35,107,1,0_targ_1_dist_green/trial8.png,,,0,1,greenverival,a,76,49,F,2021-02-17_21h38.56.558,exp11,2020.2.6,MacIntel,60,,,,,,,,,,,
,,,,,,,,,,,,,,p,1,0.536,space,0.631,0,36,36,66,1,9_dist_green/trial17.png,,,1,9,greenverival,p,76,49,F,2021-02-17_21h38.56.558,exp11,2020.2.6,MacIntel,60,,,,,,,,,,,
,,,,,,,,,,,,,,a,1,0.62,space,0.509,0,37,37,105,1,0_targ_1_dist_green/trial6.png,,,0,1,greenverival,a,76,49,F,2021-02-17_21h38.56.558,exp11,2020.2.6,MacIntel,60,,,,,,,,,,,
,,,,,,,,,,,,,,a,1,0.631,space,0.562,0,38,38,104,1,0_targ_1_dist_green/trial5.png,,,0,1,greenverival,a,76,49,F,2021-02-17_21h38.56.558,exp11,2020.2.6,MacIntel,60,,,,,,,,,,,
,,,,,,,,,,,,,,a,1,0.587,space,0.493,0,39,39,103,1,0_targ_1_dist_green/trial4.png,,,0,1,greenverival,a,76,49,F,2021-02-17_21h38.56.558,exp11,2020.2.6,MacIntel,60,,,,,,,,,,,
,,,,,,,,,,,,,,p,1,0.904,space,0.456,0,40,40,28,1,3_dist_green/trial4.png,,,1,3,greenverival,p,76,49,F,2021-02-17_21h38.56.558,exp11,2020.2.6,MacIntel,60,,,,,,,,,,,
,,,,,,,,,,,,,,p,1,1.078,space,0.928,0,41,41,41,1,3_dist_green/trial17.png,,,1,3,greenverival,p,76,49,F,2021-02-17_21h38.56.558,exp11,2020.2.6,MacIntel,60,,,,,,,,,,,
,,,,,,,,,,,,,,p,0,0.807,space,1.952,0,42,42,152,1,0_targ_10_dist_green/trial3.png,,,0,10,greenverival,a,76,49,F,2021-02-17_21h38.56.558,exp11,2020.2.6,MacIntel,60,,,,,,,,,,,
,,,,,,,,,,,,,,p,1,1.664,space,0.858,0,43,43,63,1,9_dist_green/trial14.png,,,1,9,greenverival,p,76,49,F,2021-02-17_21h38.56.558,exp11,2020.2.6,MacIntel,60,,,,,,,,,,,
,,,,,,,,,,,,,,p,1,0.849,space,1.003,0,44,44,87,1,15_dist_green/trial13.png,,,1,15,greenverival,p,76,49,F,2021-02-17_21h38.56.558,exp11,2020.2.6,MacIntel,60,,,,,,,,,,,
,,,,,,,,,,,,,,a,1,0.895,space,0.651,0,45,45,153,1,0_targ_10_dist_green/trial4.png,,,0,10,greenverival,a,76,49,F,2021-02-17_21h38.56.558,exp11,2020.2.6,MacIntel,60,,,,,,,,,,,
,,,,,,,,,,,,,,a,1,1.086,space,0.546,0,46,46,159,1,0_targ_10_dist_green/trial10.png,,,0,10,greenverival,a,76,49,F,2021-02-17_21h38.56.558,exp11,2020.2.6,MacIntel,60,,,,,,,,,,,
,,,,,,,,,,,,,,p,1,0.75,space,0.756,0,47,47,1,1,0_dist_green/trial2.png,,,1,0,greenverival,p,76,49,F,2021-02-17_21h38.56.558,exp11,2020.2.6,MacIntel,60,,,,,,,,,,,
,,,,,,,,,,,,,,p,1,0.758,space,0.68,0,48,48,69,1,9_dist_green/trial20.png,,,1,9,greenverival,p,76,49,F,2021-02-17_21h38.56.558,exp11,2020.2.6,MacIntel,60,,,,,,,,,,,
,,,,,,,,,,,,,,p,1,0.816,space,0.582,0,49,49,72,1,9_dist_green/trial23.png,,,1,9,greenverival,p,76,49,F,2021-02-17_21h38.56.558,exp11,2020.2.6,MacIntel,60,,,,,,,,,,,
,,,,,,,,,,,,,,a,1,1.11,space,0.447,0,50,50,156,1,0_targ_10_dist_green/trial7.png,,,0,10,greenverival,a,76,49,F,2021-02-17_21h38.56.558,exp11,2020.2.6,MacIntel,60,,,,,,,,,,,
,,,,,,,,,,,,,,a,1,1.011,space,0.531,0,51,51,170,1,0_targ_10_dist_green/trial21.png,,,0,10,greenverival,a,76,49,F,2021-02-17_21h38.56.558,exp11,2020.2.6,MacIntel,60,,,,,,,,,,,
,,,,,,,,,,,,,,p,1,0.743,space,0.517,0,52,52,68,1,9_dist_green/trial19.png,,,1,9,greenverival,p,76,49,F,2021-02-17_21h38.56.558,exp11,2020.2.6,MacIntel,60,,,,,,,,,,,
,,,,,,,,,,,,,,p,1,0.835,space,0.437,0,53,53,58,1,9_dist_green/trial9.png,,,1,9,greenverival,p,76,49,F,2021-02-17_21h38.56.558,exp11,2020.2.6,MacIntel,60,,,,,,,,,,,
,,,,,,,,,,,,,,a,1,0.976,space,0.6,0,54,54,141,1,0_targ_4_dist_green/trial17.png,,,0,4,greenverival,a,76,49,F,2021-02-17_21h38.56.558,exp11,2020.2.6,MacIntel,60,,,,,,,,,,,
,,,,,,,,,,,,,,p,1,0.934,space,0.601,0,55,55,61,1,9_dist_green/trial12.png,,,1,9,greenverival,p,76,49,F,2021-02-17_21h38.56.558,exp11,2020.2.6,MacIntel,60,,,,,,,,,,,
,,,,,,,,,,,,,,p,1,1.254,space,0.467,0,56,56,80,1,15_dist_green/trial6.png,,,1,15,greenverival,p,76,49,F,2021-02-17_21h38.56.558,exp11,2020.2.6,MacIntel,60,,,,,,,,,,,
,,,,,,,,,,,,,,p,1,1.047,space,1.28,0,57,57,84,1,15_dist_green/trial10.png,,,1,15,greenverival,p,76,49,F,2021-02-17_21h38.56.558,exp11,2020.2.6,MacIntel,60,,,,,,,,,,,
,,,,,,,,,,,,,,a,1,1.128,space,0.763,0,58,58,112,1,0_targ_1_dist_green/trial13.png,,,0,1,greenverival,a,76,49,F,2021-02-17_21h38.56.558,exp11,2020.2.6,MacIntel,60,,,,,,,,,,,
,,,,,,,,,,,,,,a,1,1.026,space,0.473,0,59,59,149,1,0_targ_4_dist_green/trial25.png,,,0,4,greenverival,a,76,49,F,2021-02-17_21h38.56.558,exp11,2020.2.6,MacIntel,60,,,,,,,,,,,
,,,,,,,,,,,,,,p,1,0.768,space,0.442,0,60,60,59,1,9_dist_green/trial10.png,,,1,9,greenverival,p,76,49,F,2021-02-17_21h38.56.558,exp11,2020.2.6,MacIntel,60,,,,,,,,,,,
,,,,,,,,,,,,,,p,1,0.823,space,0.568,0,61,61,4,1,0_dist_green/trial5.png,,,1,0,greenverival,p,76,49,F,2021-02-17_21h38.56.558,exp11,2020.2.6,MacIntel,60,,,,,,,,,,,
,,,,,,,,,,,,,,a,1,0.872,space,0.605,0,62,62,132,1,0_targ_4_dist_green/trial8.png,,,0,4,greenverival,a,76,49,F,2021-02-17_21h38.56.558,exp11,2020.2.6,MacIntel,60,,,,,,,,,,,
,,,,,,,,,,,,,,a,1,1.31,space,0.502,0,63,63,187,1,0_targ_16_dist_green/trial13.png,,,0,16,greenverival,a,76,49,F,2021-02-17_21h38.56.558,exp11,2020.2.6,MacIntel,60,,,,,,,,,,,
,,,,,,,,,,,,,,a,1,1.58,space,0.453,0,64,64,179,1,0_targ_16_dist_green/trial5.png,,,0,16,greenverival,a,76,49,F,2021-02-17_21h38.56.558,exp11,2020.2.6,MacIntel,60,,,,,,,,,,,
,,,,,,,,,,,,,,p,1,0.949,space,0.521,0,65,65,49,1,3_dist_green/trial25.png,,,1,3,greenverival,p,76,49,F,2021-02-17_21h38.56.558,exp11,2020.2.6,MacIntel,60,,,,,,,,,,,
,,,,,,,,,,,,,,p,1,0.77,space,0.887,0,66,66,67,1,9_dist_green/trial18.png,,,1,9,greenverival,p,76,49,F,2021-02-17_21h38.56.558,exp11,2020.2.6,MacIntel,60,,,,,,,,,,,
,,,,,,,,,,,,,,a,1,0.755,space,0.523,0,67,67,131,1,0_targ_4_dist_green/trial7.png,,,0,4,greenverival,a,76,49,F,2021-02-17_21h38.56.558,exp11,2020.2.6,MacIntel,60,,,,,,,,,,,
,,,,,,,,,,,,,,a,1,0.852,space,0.444,0,68,68,128,1,0_targ_4_dist_green/trial4.png,,,0,4,greenverival,a,76,49,F,2021-02-17_21h38.56.558,exp11,2020.2.6,MacIntel,60,,,,,,,,,,,
,,,,,,,,,,,,,,a,1,0.701,space,0.552,0,69,69,146,1,0_targ_4_dist_green/trial22.png,,,0,4,greenverival,a,76,49,F,2021-02-17_21h38.56.558,exp11,2020.2.6,MacIntel,60,,,,,,,,,,,
,,,,,,,,,,,,,,a,1,0.67,space,0.482,0,70,70,130,1,0_targ_4_dist_green/trial6.png,,,0,4,greenverival,a,76,49,F,2021-02-17_21h38.56.558,exp11,2020.2.6,MacIntel,60,,,,,,,,,,,
,,,,,,,,,,,,,,a,1,0.731,space,0.464,0,71,71,125,1,0_targ_4_dist_green/trial1.png,,,0,4,greenverival,a,76,49,F,2021-02-17_21h38.56.558,exp11,2020.2.6,MacIntel,60,,,,,,,,,,,
,,,,,,,,,,,,,,p,1,0.738,space,0.497,0,72,72,2,1,0_dist_green/trial3.png,,,1,0,greenverival,p,76,49,F,2021-02-17_21h38.56.558,exp11,2020.2.6,MacIntel,60,,,,,,,,,,,
,,,,,,,,,,,,,,p,1,0.793,space,0.533,0,73,73,89,1,15_dist_green/trial15.png,,,1,15,greenverival,p,76,49,F,2021-02-17_21h38.56.558,exp11,2020.2.6,MacIntel,60,,,,,,,,,,,
,,,,,,,,,,,,,,a,1,0.73,space,0.541,0,74,74,169,1,0_targ_10_dist_green/trial20.png,,,0,10,greenverival,a,76,49,F,2021-02-17_21h38.56.558,exp11,2020.2.6,MacIntel,60,,,,,,,,,,,
,,,,,,,,,,,,,,p,1,0.586,space,0.469,0,75,75,43,1,3_dist_green/trial19.png,,,1,3,greenverival,p,76,49,F,2021-02-17_21h38.56.558,exp11,2020.2.6,MacIntel,60,,,,,,,,,,,
,,,,,,,,,,,,,,a,1,0.945,space,0.494,0,76,76,151,1,0_targ_10_dist_green/trial2.png,,,0,10,greenverival,a,76,49,F,2021-02-17_21h38.56.558,exp11,2020.2.6,MacIntel,60,,,,,,,,,,,
,,,,,,,,,,,,,,a,1,0.868,space,0.514,0,77,77,133,1,0_targ_4_dist_green/trial9.png,,,0,4,greenverival,a,76,49,F,2021-02-17_21h38.56.558,exp11,2020.2.6,MacIntel,60,,,,,,,,,,,
,,,,,,,,,,,,,,p,1,0.753,space,0.466,0,78,78,56,1,9_dist_green/trial7.png,,,1,9,greenverival,p,76,49,F,2021-02-17_21h38.56.558,exp11,2020.2.6,MacIntel,60,,,,,,,,,,,
,,,,,,,,,,,,,,p,1,1.221,space,0.572,0,79,79,95,1,15_dist_green/trial21.png,,,1,15,greenverival,p,76,49,F,2021-02-17_21h38.56.558,exp11,2020.2.6,MacIntel,60,,,,,,,,,,,
,,,,,,,,,,,,,,p,1,0.862,space,0.594,0,80,80,42,1,3_dist_green/trial18.png,,,1,3,greenverival,p,76,49,F,2021-02-17_21h38.56.558,exp11,2020.2.6,MacIntel,60,,,,,,,,,,,
,,,,,,,,,,,,,,p,1,1.664,space,0.485,0,81,81,5,1,0_dist_green/trial6.png,,,1,0,greenverival,p,76,49,F,2021-02-17_21h38.56.558,exp11,2020.2.6,MacIntel,60,,,,,,,,,,,
,,,,,,,,,,,,,,a,1,1.449,space,0.907,0,82,82,120,1,0_targ_1_dist_green/trial21.png,,,0,1,greenverival,a,76,49,F,2021-02-17_21h38.56.558,exp11,2020.2.6,MacIntel,60,,,,,,,,,,,
,,,,,,,,,,,,,,p,1,1.312,space,1.403,0,83,83,22,1,0_dist_green/trial23.png,,,1,0,greenverival,p,76,49,F,2021-02-17_21h38.56.558,exp11,2020.2.6,MacIntel,60,,,,,,,,,,,
,,,,,,,,,,,,,,p,1,1.202,space,0.736,0,84,84,60,1,9_dist_green/trial11.png,,,1,9,greenverival,p,76,49,F,2021-02-17_21h38.56.558,exp11,2020.2.6,MacIntel,60,,,,,,,,,,,
,,,,,,,,,,,,,,p,1,0.775,space,0.465,0,85,85,82,1,15_dist_green/trial8.png,,,1,15,greenverival,p,76,49,F,2021-02-17_21h38.56.558,exp11,2020.2.6,MacIntel,60,,,,,,,,,,,
,,,,,,,,,,,,,,a,1,0.586,space,0.619,0,86,86,110,1,0_targ_1_dist_green/trial11.png,,,0,1,greenverival,a,76,49,F,2021-02-17_21h38.56.558,exp11,2020.2.6,MacIntel,60,,,,,,,,,,,
,,,,,,,,,,,,,,p,1,0.924,space,0.343,0,87,87,54,1,9_dist_green/trial5.png,,,1,9,greenverival,p,76,49,F,2021-02-17_21h38.56.558,exp11,2020.2.6,MacIntel,60,,,,,,,,,,,
,,,,,,,,,,,,,,p,1,0.645,space,0.464,0,88,88,29,1,3_dist_green/trial5.png,,,1,3,greenverival,p,76,49,F,2021-02-17_21h38.56.558,exp11,2020.2.6,MacIntel,60,,,,,,,,,,,
,,,,,,,,,,,,,,a,1,0.752,space,0.434,0,89,89,199,1,0_targ_16_dist_green/trial25.png,,,0,16,greenverival,a,76,49,F,2021-02-17_21h38.56.558,exp11,2020.2.6,MacIntel,60,,,,,,,,,,,
,,,,,,,,,,,,,,a,1,0.868,space,0.396,0,90,90,129,1,0_targ_4_dist_green/trial5.png,,,0,4,greenverival,a,76,49,F,2021-02-17_21h38.56.558,exp11,2020.2.6,MacIntel,60,,,,,,,,,,,
,,,,,,,,,,,,,,a,1,0.867,space,0.439,0,91,91,192,1,0_targ_16_dist_green/trial18.png,,,0,16,greenverival,a,76,49,F,2021-02-17_21h38.56.558,exp11,2020.2.6,MacIntel,60,,,,,,,,,,,
,,,,,,,,,,,,,,a,1,1.099,space,0.39,0,92,92,186,1,0_targ_16_dist_green/trial12.png,,,0,16,greenverival,a,76,49,F,2021-02-17_21h38.56.558,exp11,2020.2.6,MacIntel,60,,,,,,,,,,,
,,,,,,,,,,,,,,p,1,0.827,space,0.911,0,93,93,70,1,9_dist_green/trial21.png,,,1,9,greenverival,p,76,49,F,2021-02-17_21h38.56.558,exp11,2020.2.6,MacIntel,60,,,,,,,,,,,
,,,,,,,,,,,,,,p,1,0.709,space,0.441,0,94,94,62,1,9_dist_green/trial13.png,,,1,9,greenverival,p,76,49,F,2021-02-17_21h38.56.558,exp11,2020.2.6,MacIntel,60,,,,,,,,,,,
,,,,,,,,,,,,,,p,1,0.71,space,0.449,0,95,95,19,1,0_dist_green/trial20.png,,,1,0,greenverival,p,76,49,F,2021-02-17_21h38.56.558,exp11,2020.2.6,MacIntel,60,,,,,,,,,,,
,,,,,,,,,,,,,,a,1,0.802,space,0.582,0,96,96,176,1,0_targ_16_dist_green/trial2.png,,,0,16,greenverival,a,76,49,F,2021-02-17_21h38.56.558,exp11,2020.2.6,MacIntel,60,,,,,,,,,,,
,,,,,,,,,,,,,,a,0,0.804,space,0.558,0,97,97,83,1,15_dist_green/trial9.png,,,1,15,greenverival,p,76,49,F,2021-02-17_21h38.56.558,exp11,2020.2.6,MacIntel,60,,,,,,,,,,,
,,,,,,,,,,,,,,p,1,1.514,space,1.085,0,98,98,81,1,15_dist_green/trial7.png,,,1,15,greenverival,p,76,49,F,2021-02-17_21h38.56.558,exp11,2020.2.6,MacIntel,60,,,,,,,,,,,
,,,,,,,,,,,,,,a,1,0.878,space,0.667,0,99,99,158,1,0_targ_10_dist_green/trial9.png,,,0,10,greenverival,a,76,49,F,2021-02-17_21h38.56.558,exp11,2020.2.6,MacIntel,60,,,,,,,,,,,
,,,,,,,,,,,,,,a,1,1.309,space,0.833,0,100,100,118,1,0_targ_1_dist_green/trial19.png,,,0,1,greenverival,a,76,49,F,2021-02-17_21h38.56.558,exp11,2020.2.6,MacIntel,60,,,,,,,,,,,
,,,,,,,,,,,,,,a,1,1.003,space,0.953,0,101,101,142,1,0_targ_4_dist_green/trial18.png,,,0,4,greenverival,a,76,49,F,2021-02-17_21h38.56.558,exp11,2020.2.6,MacIntel,60,,,,,,,,,,,
,,,,,,,,,,,,,,p,1,0.952,space,0.545,0,102,102,77,1,15_dist_green/trial3.png,,,1,15,greenverival,p,76,49,F,2021-02-17_21h38.56.558,exp11,2020.2.6,MacIntel,60,,,,,,,,,,,
,,,,,,,,,,,,,,a,1,1.04,space,0.418,0,103,103,160,1,0_targ_10_dist_green/trial11.png,,,0,10,greenverival,a,76,49,F,2021-02-17_21h38.56.558,exp11,2020.2.6,MacIntel,60,,,,,,,,,,,
,,,,,,,,,,,,,,p,1,0.934,space,0.489,0,104,104,51,1,9_dist_green/trial2.png,,,1,9,greenverival,p,76,49,F,2021-02-17_21h38.56.558,exp11,2020.2.6,MacIntel,60,,,,,,,,,,,
,,,,,,,,,,,,,,a,1,1.667,space,0.452,0,105,105,138,1,0_targ_4_dist_green/trial14.png,,,0,4,greenverival,a,76,49,F,2021-02-17_21h38.56.558,exp11,2020.2.6,MacIntel,60,,,,,,,,,,,
,,,,,,,,,,,,,,p,1,0.789,space,0.459,0,106,106,57,1,9_dist_green/trial8.png,,,1,9,greenverival,p,76,49,F,2021-02-17_21h38.56.558,exp11,2020.2.6,MacIntel,60,,,,,,,,,,,
,,,,,,,,,,,,,,a,1,0.963,space,0.517,0,107,107,184,1,0_targ_16_dist_green/trial10.png,,,0,16,greenverival,a,76,49,F,2021-02-17_21h38.56.558,exp11,2020.2.6,MacIntel,60,,,,,,,,,,,
,,,,,,,,,,,,,,p,1,0.836,space,0.624,0,108,108,85,1,15_dist_green/trial11.png,,,1,15,greenverival,p,76,49,F,2021-02-17_21h38.56.558,exp11,2020.2.6,MacIntel,60,,,,,,,,,,,
,,,,,,,,,,,,,,a,1,0.799,space,0.451,0,109,109,164,1,0_targ_10_dist_green/trial15.png,,,0,10,greenverival,a,76,49,F,2021-02-17_21h38.56.558,exp11,2020.2.6,MacIntel,60,,,,,,,,,,,
,,,,,,,,,,,,,,a,1,0.937,space,0.576,0,110,110,171,1,0_targ_10_dist_green/trial22.png,,,0,10,greenverival,a,76,49,F,2021-02-17_21h38.56.558,exp11,2020.2.6,MacIntel,60,,,,,,,,,,,
,,,,,,,,,,,,,,p,1,1.026,space,0.497,0,111,111,55,1,9_dist_green/trial6.png,,,1,9,greenverival,p,76,49,F,2021-02-17_21h38.56.558,exp11,2020.2.6,MacIntel,60,,,,,,,,,,,
,,,,,,,,,,,,,,p,1,0.784,space,0.505,0,112,112,37,1,3_dist_green/trial13.png,,,1,3,greenverival,p,76,49,F,2021-02-17_21h38.56.558,exp11,2020.2.6,MacIntel,60,,,,,,,,,,,
,,,,,,,,,,,,,,a,1,0.816,space,0.494,0,113,113,116,1,0_targ_1_dist_green/trial17.png,,,0,1,greenverival,a,76,49,F,2021-02-17_21h38.56.558,exp11,2020.2.6,MacIntel,60,,,,,,,,,,,
,,,,,,,,,,,,,,p,1,1.015,space,0.519,0,114,114,11,1,0_dist_green/trial12.png,,,1,0,greenverival,p,76,49,F,2021-02-17_21h38.56.558,exp11,2020.2.6,MacIntel,60,,,,,,,,,,,
,,,,,,,,,,,,,,p,1,0.643,space,0.44,0,115,115,33,1,3_dist_green/trial9.png,,,1,3,greenverival,p,76,49,F,2021-02-17_21h38.56.558,exp11,2020.2.6,MacIntel,60,,,,,,,,,,,
,,,,,,,,,,,,,,a,1,0.759,space,0.52,0,116,116,147,1,0_targ_4_dist_green/trial23.png,,,0,4,greenverival,a,76,49,F,2021-02-17_21h38.56.558,exp11,2020.2.6,MacIntel,60,,,,,,,,,,,
,,,,,,,,,,,,,,a,1,1.026,space,0.502,0,117,117,117,1,0_targ_1_dist_green/trial18.png,,,0,1,greenverival,a,76,49,F,2021-02-17_21h38.56.558,exp11,2020.2.6,MacIntel,60,,,,,,,,,,,
,,,,,,,,,,,,,,a,1,1.182,space,0.518,0,118,118,198,1,0_targ_16_dist_green/trial24.png,,,0,16,greenverival,a,76,49,F,2021-02-17_21h38.56.558,exp11,2020.2.6,MacIntel,60,,,,,,,,,,,
,,,,,,,,,,,,,,a,0,1.192,space,1.216,0,119,119,53,1,9_dist_green/trial4.png,,,1,9,greenverival,p,76,49,F,2021-02-17_21h38.56.558,exp11,2020.2.6,MacIntel,60,,,,,,,,,,,
,,,,,,,,,,,,,,p,1,1.148,space,0.76,0,120,120,25,1,3_dist_green/trial1.png,,,1,3,greenverival,p,76,49,F,2021-02-17_21h38.56.558,exp11,2020.2.6,MacIntel,60,,,,,,,,,,,
,,,,,,,,,,,,,,p,1,1.108,space,0.399,0,121,121,65,1,9_dist_green/trial16.png,,,1,9,greenverival,p,76,49,F,2021-02-17_21h38.56.558,exp11,2020.2.6,MacIntel,60,,,,,,,,,,,
,,,,,,,,,,,,,,p,1,1.007,space,0.419,0,122,122,47,1,3_dist_green/trial23.png,,,1,3,greenverival,p,76,49,F,2021-02-17_21h38.56.558,exp11,2020.2.6,MacIntel,60,,,,,,,,,,,
,,,,,,,,,,,,,,a,1,1.425,space,0.776,0,123,123,167,1,0_targ_10_dist_green/trial18.png,,,0,10,greenverival,a,76,49,F,2021-02-17_21h38.56.558,exp11,2020.2.6,MacIntel,60,,,,,,,,,,,
,,,,,,,,,,,,,,a,1,0.969,space,0.57,0,124,124,162,1,0_targ_10_dist_green/trial13.png,,,0,10,greenverival,a,76,49,F,2021-02-17_21h38.56.558,exp11,2020.2.6,MacIntel,60,,,,,,,,,,,
,,,,,,,,,,,,,,p,1,0.947,space,0.977,0,125,125,93,1,15_dist_green/trial19.png,,,1,15,greenverival,p,76,49,F,2021-02-17_21h38.56.558,exp11,2020.2.6,MacIntel,60,,,,,,,,,,,
,,,,,,,,,,,,,,p,1,0.918,space,0.544,0,126,126,35,1,3_dist_green/trial11.png,,,1,3,greenverival,p,76,49,F,2021-02-17_21h38.56.558,exp11,2020.2.6,MacIntel,60,,,,,,,,,,,
,,,,,,,,,,,,,,a,0,0.78,space,0.263,0,127,127,73,1,9_dist_green/trial24.png,,,1,9,greenverival,p,76,49,F,2021-02-17_21h38.56.558,exp11,2020.2.6,MacIntel,60,,,,,,,,,,,
,,,,,,,,,,,,,,p,1,1.049,space,0.433,0,128,128,27,1,3_dist_green/trial3.png,,,1,3,greenverival,p,76,49,F,2021-02-17_21h38.56.558,exp11,2020.2.6,MacIntel,60,,,,,,,,,,,
,,,,,,,,,,,,,,p,1,0.642,space,0.492,0,129,129,12,1,0_dist_green/trial13.png,,,1,0,greenverival,p,76,49,F,2021-02-17_21h38.56.558,exp11,2020.2.6,MacIntel,60,,,,,,,,,,,
,,,,,,,,,,,,,,p,1,0.641,space,0.531,0,130,130,86,1,15_dist_green/trial12.png,,,1,15,greenverival,p,76,49,F,2021-02-17_21h38.56.558,exp11,2020.2.6,MacIntel,60,,,,,,,,,,,
,,,,,,,,,,,,,,a,1,0.962,space,0.527,0,131,131,188,1,0_targ_16_dist_green/trial14.png,,,0,16,greenverival,a,76,49,F,2021-02-17_21h38.56.558,exp11,2020.2.6,MacIntel,60,,,,,,,,,,,
,,,,,,,,,,,,,,a,1,0.986,space,0.437,0,132,132,114,1,0_targ_1_dist_green/trial15.png,,,0,1,greenverival,a,76,49,F,2021-02-17_21h38.56.558,exp11,2020.2.6,MacIntel,60,,,,,,,,,,,
,,,,,,,,,,,,,,p,1,0.732,space,0.44,0,133,133,17,1,0_dist_green/trial18.png,,,1,0,greenverival,p,76,49,F,2021-02-17_21h38.56.558,exp11,2020.2.6,MacIntel,60,,,,,,,,,,,
,,,,,,,,,,,,,,p,1,1.223,space,0.484,0,134,134,76,1,15_dist_green/trial2.png,,,1,15,greenverival,p,76,49,F,2021-02-17_21h38.56.558,exp11,2020.2.6,MacIntel,60,,,,,,,,,,,
,,,,,,,,,,,,,,p,1,0.828,space,0.548,0,135,135,10,1,0_dist_green/trial11.png,,,1,0,greenverival,p,76,49,F,2021-02-17_21h38.56.558,exp11,2020.2.6,MacIntel,60,,,,,,,,,,,
,,,,,,,,,,,,,,p,1,0.832,space,0.37,0,136,136,44,1,3_dist_green/trial20.png,,,1,3,greenverival,p,76,49,F,2021-02-17_21h38.56.558,exp11,2020.2.6,MacIntel,60,,,,,,,,,,,
,,,,,,,,,,,,,,p,1,0.922,space,0.426,0,137,137,74,1,9_dist_green/trial25.png,,,1,9,greenverival,p,76,49,F,2021-02-17_21h38.56.558,exp11,2020.2.6,MacIntel,60,,,,,,,,,,,
,,,,,,,,,,,,,,p,1,1.067,space,0.465,0,138,138,75,1,15_dist_green/trial1.png,,,1,15,greenverival,p,76,49,F,2021-02-17_21h38.56.558,exp11,2020.2.6,MacIntel,60,,,,,,,,,,,
,,,,,,,,,,,,,,p,1,0.762,space,0.468,0,139,139,23,1,0_dist_green/trial24.png,,,1,0,greenverival,p,76,49,F,2021-02-17_21h38.56.558,exp11,2020.2.6,MacIntel,60,,,,,,,,,,,
,,,,,,,,,,,,,,a,1,1.232,space,0.486,0,140,140,174,1,0_targ_10_dist_green/trial25.png,,,0,10,greenverival,a,76,49,F,2021-02-17_21h38.56.558,exp11,2020.2.6,MacIntel,60,,,,,,,,,,,
,,,,,,,,,,,,,,a,1,0.953,space,0.414,0,141,141,143,1,0_targ_4_dist_green/trial19.png,,,0,4,greenverival,a,76,49,F,2021-02-17_21h38.56.558,exp11,2020.2.6,MacIntel,60,,,,,,,,,,,
,,,,,,,,,,,,,,p,1,0.821,space,0.717,0,142,142,88,1,15_dist_green/trial14.png,,,1,15,greenverival,p,76,49,F,2021-02-17_21h38.56.558,exp11,2020.2.6,MacIntel,60,,,,,,,,,,,
,,,,,,,,,,,,,,a,1,0.749,space,0.497,0,143,143,121,1,0_targ_1_dist_green/trial22.png,,,0,1,greenverival,a,76,49,F,2021-02-17_21h38.56.558,exp11,2020.2.6,MacIntel,60,,,,,,,,,,,
,,,,,,,,,,,,,,a,1,1.368,space,0.366,0,144,144,148,1,0_targ_4_dist_green/trial24.png,,,0,4,greenverival,a,76,49,F,2021-02-17_21h38.56.558,exp11,2020.2.6,MacIntel,60,,,,,,,,,,,
,,,,,,,,,,,,,,a,1,1.246,space,0.493,0,145,145,189,1,0_targ_16_dist_green/trial15.png,,,0,16,greenverival,a,76,49,F,2021-02-17_21h38.56.558,exp11,2020.2.6,MacIntel,60,,,,,,,,,,,
,,,,,,,,,,,,,,a,1,0.83,space,0.542,0,146,146,127,1,0_targ_4_dist_green/trial3.png,,,0,4,greenverival,a,76,49,F,2021-02-17_21h38.56.558,exp11,2020.2.6,MacIntel,60,,,,,,,,,,,
,,,,,,,,,,,,,,a,1,0.862,space,0.341,0,147,147,155,1,0_targ_10_dist_green/trial6.png,,,0,10,greenverival,a,76,49,F,2021-02-17_21h38.56.558,exp11,2020.2.6,MacIntel,60,,,,,,,,,,,
,,,,,,,,,,,,,,p,1,0.848,space,0.583,0,148,148,91,1,15_dist_green/trial17.png,,,1,15,greenverival,p,76,49,F,2021-02-17_21h38.56.558,exp11,2020.2.6,MacIntel,60,,,,,,,,,,,
,,,,,,,,,,,,,,p,1,0.803,space,0.55,0,149,149,34,1,3_dist_green/trial10.png,,,1,3,greenverival,p,76,49,F,2021-02-17_21h38.56.558,exp11,2020.2.6,MacIntel,60,,,,,,,,,,,
,,,,,,,,,,,,,,a,1,0.997,space,0.408,0,150,150,182,1,0_targ_16_dist_green/trial8.png,,,0,16,greenverival,a,76,49,F,2021-02-17_21h38.56.558,exp11,2020.2.6,MacIntel,60,,,,,,,,,,,
,,,,,,,,,,,,,,p,1,1.056,space,0.417,0,151,151,31,1,3_dist_green/trial7.png,,,1,3,greenverival,p,76,49,F,2021-02-17_21h38.56.558,exp11,2020.2.6,MacIntel,60,,,,,,,,,,,
,,,,,,,,,,,,,,a,1,0.829,space,0.416,0,152,152,145,1,0_targ_4_dist_green/trial21.png,,,0,4,greenverival,a,76,49,F,2021-02-17_21h38.56.558,exp11,2020.2.6,MacIntel,60,,,,,,,,,,,
,,,,,,,,,,,,,,p,1,0.959,space,0.547,0,153,153,21,1,0_dist_green/trial22.png,,,1,0,greenverival,p,76,49,F,2021-02-17_21h38.56.558,exp11,2020.2.6,MacIntel,60,,,,,,,,,,,
,,,,,,,,,,,,,,p,1,0.589,space,0.466,0,154,154,16,1,0_dist_green/trial17.png,,,1,0,greenverival,p,76,49,F,2021-02-17_21h38.56.558,exp11,2020.2.6,MacIntel,60,,,,,,,,,,,
,,,,,,,,,,,,,,a,1,0.816,space,0.602,0,155,155,157,1,0_targ_10_dist_green/trial8.png,,,0,10,greenverival,a,76,49,F,2021-02-17_21h38.56.558,exp11,2020.2.6,MacIntel,60,,,,,,,,,,,
,,,,,,,,,,,,,,p,1,0.851,space,0.823,0,156,156,45,1,3_dist_green/trial21.png,,,1,3,greenverival,p,76,49,F,2021-02-17_21h38.56.558,exp11,2020.2.6,MacIntel,60,,,,,,,,,,,
,,,,,,,,,,,,,,p,1,0.756,space,0.438,0,157,157,30,1,3_dist_green/trial6.png,,,1,3,greenverival,p,76,49,F,2021-02-17_21h38.56.558,exp11,2020.2.6,MacIntel,60,,,,,,,,,,,
,,,,,,,,,,,,,,a,1,0.678,space,0.519,0,158,158,122,1,0_targ_1_dist_green/trial23.png,,,0,1,greenverival,a,76,49,F,2021-02-17_21h38.56.558,exp11,2020.2.6,MacIntel,60,,,,,,,,,,,
,,,,,,,,,,,,,,a,1,0.597,space,0.463,0,159,159,123,1,0_targ_1_dist_green/trial24.png,,,0,1,greenverival,a,76,49,F,2021-02-17_21h38.56.558,exp11,2020.2.6,MacIntel,60,,,,,,,,,,,
,,,,,,,,,,,,,,p,1,1.88,space,0.403,0,160,160,79,1,15_dist_green/trial5.png,,,1,15,greenverival,p,76,49,F,2021-02-17_21h38.56.558,exp11,2020.2.6,MacIntel,60,,,,,,,,,,,
,,,,,,,,,,,,,,a,1,1.2,space,0.549,0,161,161,196,1,0_targ_16_dist_green/trial22.png,,,0,16,greenverival,a,76,49,F,2021-02-17_21h38.56.558,exp11,2020.2.6,MacIntel,60,,,,,,,,,,,
,,,,,,,,,,,,,,a,1,1.317,space,0.583,0,162,162,139,1,0_targ_4_dist_green/trial15.png,,,0,4,greenverival,a,76,49,F,2021-02-17_21h38.56.558,exp11,2020.2.6,MacIntel,60,,,,,,,,,,,
,,,,,,,,,,,,,,p,1,1.118,space,0.629,0,163,163,50,1,9_dist_green/trial1.png,,,1,9,greenverival,p,76,49,F,2021-02-17_21h38.56.558,exp11,2020.2.6,MacIntel,60,,,,,,,,,,,
,,,,,,,,,,,,,,p,1,0.932,space,0.385,0,164,164,98,1,15_dist_green/trial24.png,,,1,15,greenverival,p,76,49,F,2021-02-17_21h38.56.558,exp11,2020.2.6,MacIntel,60,,,,,,,,,,,
,,,,,,,,,,,,,,p,1,0.712,space,0.419,0,165,165,94,1,15_dist_green/trial20.png,,,1,15,greenverival,p,76,49,F,2021-02-17_21h38.56.558,exp11,2020.2.6,MacIntel,60,,,,,,,,,,,
,,,,,,,,,,,,,,p,1,0.811,space,0.439,0,166,166,15,1,0_dist_green/trial16.png,,,1,0,greenverival,p,76,49,F,2021-02-17_21h38.56.558,exp11,2020.2.6,MacIntel,60,,,,,,,,,,,
,,,,,,,,,,,,,,p,1,0.701,space,0.568,0,167,167,13,1,0_dist_green/trial14.png,,,1,0,greenverival,p,76,49,F,2021-02-17_21h38.56.558,exp11,2020.2.6,MacIntel,60,,,,,,,,,,,
,,,,,,,,,,,,,,a,1,0.628,space,0.447,0,168,168,108,1,0_targ_1_dist_green/trial9.png,,,0,1,greenverival,a,76,49,F,2021-02-17_21h38.56.558,exp11,2020.2.6,MacIntel,60,,,,,,,,,,,
,,,,,,,,,,,,,,p,1,0.967,space,0.473,0,169,169,52,1,9_dist_green/trial3.png,,,1,9,greenverival,p,76,49,F,2021-02-17_21h38.56.558,exp11,2020.2.6,MacIntel,60,,,,,,,,,,,
,,,,,,,,,,,,,,p,1,0.813,space,0.454,0,170,170,7,1,0_dist_green/trial8.png,,,1,0,greenverival,p,76,49,F,2021-02-17_21h38.56.558,exp11,2020.2.6,MacIntel,60,,,,,,,,,,,
,,,,,,,,,,,,,,a,1,0.929,space,0.516,0,171,171,161,1,0_targ_10_dist_green/trial12.png,,,0,10,greenverival,a,76,49,F,2021-02-17_21h38.56.558,exp11,2020.2.6,MacIntel,60,,,,,,,,,,,
,,,,,,,,,,,,,,a,1,1.76,space,0.466,0,172,172,183,1,0_targ_16_dist_green/trial9.png,,,0,16,greenverival,a,76,49,F,2021-02-17_21h38.56.558,exp11,2020.2.6,MacIntel,60,,,,,,,,,,,
,,,,,,,,,,,,,,a,1,0.936,space,0.693,0,173,173,172,1,0_targ_10_dist_green/trial23.png,,,0,10,greenverival,a,76,49,F,2021-02-17_21h38.56.558,exp11,2020.2.6,MacIntel,60,,,,,,,,,,,
,,,,,,,,,,,,,,a,1,0.81,space,0.643,0,174,174,136,1,0_targ_4_dist_green/trial12.png,,,0,4,greenverival,a,76,49,F,2021-02-17_21h38.56.558,exp11,2020.2.6,MacIntel,60,,,,,,,,,,,
,,,,,,,,,,,,,,a,1,0.686,space,0.411,0,175,175,135,1,0_targ_4_dist_green/trial11.png,,,0,4,greenverival,a,76,49,F,2021-02-17_21h38.56.558,exp11,2020.2.6,MacIntel,60,,,,,,,,,,,
,,,,,,,,,,,,,,a,1,1.133,space,0.36,0,176,176,195,1,0_targ_16_dist_green/trial21.png,,,0,16,greenverival,a,76,49,F,2021-02-17_21h38.56.558,exp11,2020.2.6,MacIntel,60,,,,,,,,,,,
,,,,,,,,,,,,,,a,1,0.819,space,0.443,0,177,177,173,1,0_targ_10_dist_green/trial24.png,,,0,10,greenverival,a,76,49,F,2021-02-17_21h38.56.558,exp11,2020.2.6,MacIntel,60,,,,,,,,,,,
,,,,,,,,,,,,,,a,1,1.13,space,0.565,0,178,178,197,1,0_targ_16_dist_green/trial23.png,,,0,16,greenverival,a,76,49,F,2021-02-17_21h38.56.558,exp11,2020.2.6,MacIntel,60,,,,,,,,,,,
,,,,,,,,,,,,,,p,1,1.342,space,1.026,0,179,179,92,1,15_dist_green/trial18.png,,,1,15,greenverival,p,76,49,F,2021-02-17_21h38.56.558,exp11,2020.2.6,MacIntel,60,,,,,,,,,,,
,,,,,,,,,,,,,,p,1,0.9,space,0.831,0,180,180,18,1,0_dist_green/trial19.png,,,1,0,greenverival,p,76,49,F,2021-02-17_21h38.56.558,exp11,2020.2.6,MacIntel,60,,,,,,,,,,,
,,,,,,,,,,,,,,a,1,1.217,space,0.654,0,181,181,124,1,0_targ_1_dist_green/trial25.png,,,0,1,greenverival,a,76,49,F,2021-02-17_21h38.56.558,exp11,2020.2.6,MacIntel,60,,,,,,,,,,,
,,,,,,,,,,,,,,a,1,2.322,space,0.661,0,182,182,100,1,0_targ_1_dist_green/trial1.png,,,0,1,greenverival,a,76,49,F,2021-02-17_21h38.56.558,exp11,2020.2.6,MacIntel,60,,,,,,,,,,,
,,,,,,,,,,,,,,a,1,1.064,space,0.662,0,183,183,194,1,0_targ_16_dist_green/trial20.png,,,0,16,greenverival,a,76,49,F,2021-02-17_21h38.56.558,exp11,2020.2.6,MacIntel,60,,,,,,,,,,,
,,,,,,,,,,,,,,a,1,0.669,space,0.455,0,184,184,185,1,0_targ_16_dist_green/trial11.png,,,0,16,greenverival,a,76,49,F,2021-02-17_21h38.56.558,exp11,2020.2.6,MacIntel,60,,,,,,,,,,,
,,,,,,,,,,,,,,p,1,1.235,space,0.686,0,185,185,14,1,0_dist_green/trial15.png,,,1,0,greenverival,p,76,49,F,2021-02-17_21h38.56.558,exp11,2020.2.6,MacIntel,60,,,,,,,,,,,
,,,,,,,,,,,,,,a,1,1.247,space,0.45,0,186,186,119,1,0_targ_1_dist_green/trial20.png,,,0,1,greenverival,a,76,49,F,2021-02-17_21h38.56.558,exp11,2020.2.6,MacIntel,60,,,,,,,,,,,
,,,,,,,,,,,,,,a,1,1.431,space,0.847,0,187,187,193,1,0_targ_16_dist_green/trial19.png,,,0,16,greenverival,a,76,49,F,2021-02-17_21h38.56.558,exp11,2020.2.6,MacIntel,60,,,,,,,,,,,
,,,,,,,,,,,,,,p,1,1.613,space,0.579,0,188,188,26,1,3_dist_green/trial2.png,,,1,3,greenverival,p,76,49,F,2021-02-17_21h38.56.558,exp11,2020.2.6,MacIntel,60,,,,,,,,,,,
,,,,,,,,,,,,,,p,1,0.791,space,0.556,0,189,189,8,1,0_dist_green/trial9.png,,,1,0,greenverival,p,76,49,F,2021-02-17_21h38.56.558,exp11,2020.2.6,MacIntel,60,,,,,,,,,,,
,,,,,,,,,,,,,,a,1,1.245,space,0.353,0,190,190,140,1,0_targ_4_dist_green/trial6.png,,,0,4,greenverival,a,76,49,F,2021-02-17_21h38.56.558,exp11,2020.2.6,MacIntel,60,,,,,,,,,,,
,,,,,,,,,,,,,,a,1,0.845,space,0.226,0,191,191,165,1,0_targ_10_dist_green/trial16.png,,,0,10,greenverival,a,76,49,F,2021-02-17_21h38.56.558,exp11,2020.2.6,MacIntel,60,,,,,,,,,,,
,,,,,,,,,,,,,,a,1,0.727,space,0.314,0,192,192,168,1,0_targ_10_dist_green/trial19.png,,,0,10,greenverival,a,76,49,F,2021-02-17_21h38.56.558,exp11,2020.2.6,MacIntel,60,,,,,,,,,,,
,,,,,,,,,,,,,,a,1,0.817,space,0.463,0,193,193,111,1,0_targ_1_dist_green/trial12.png,,,0,1,greenverival,a,76,49,F,2021-02-17_21h38.56.558,exp11,2020.2.6,MacIntel,60,,,,,,,,,,,
,,,,,,,,,,,,,,p,1,1.682,space,0.837,0,194,194,3,1,0_dist_green/trial4.png,,,1,0,greenverival,p,76,49,F,2021-02-17_21h38.56.558,exp11,2020.2.6,MacIntel,60,,,,,,,,,,,
,,,,,,,,,,,,,,a,1,1.061,space,0.317,0,195,195,113,1,0_targ_1_dist_green/trial14.png,,,0,1,greenverival,a,76,49,F,2021-02-17_21h38.56.558,exp11,2020.2.6,MacIntel,60,,,,,,,,,,,
,,,,,,,,,,,,,,p,1,1.187,space,0.523,0,196,196,32,1,3_dist_green/trial8.png,,,1,3,greenverival,p,76,49,F,2021-02-17_21h38.56.558,exp11,2020.2.6,MacIntel,60,,,,,,,,,,,
,,,,,,,,,,,,,,p,1,0.647,space,0.392,0,197,197,9,1,0_dist_green/trial10.png,,,1,0,greenverival,p,76,49,F,2021-02-17_21h38.56.558,exp11,2020.2.6,MacIntel,60,,,,,,,,,,,
,,,,,,,,,,,,,,p,1,0.736,space,0.357,0,198,198,6,1,0_dist_green/trial7.png,,,1,0,greenverival,p,76,49,F,2021-02-17_21h38.56.558,exp11,2020.2.6,MacIntel,60,,,,,,,,,,,
,,,,,,,,,,,,,,p,1,0.617,space,0.406,0,199,199,39,1,3_dist_green/trial15.png,,,1,3,greenverival,p,76,49,F,2021-02-17_21h38.56.558,exp11,2020.2.6,MacIntel,60,,,,,,,,,,,
,,,,,,,,,,,,,,,,,,,,,,,,,,,,,,,76,49,F,2021-02-17_21h38.56.558,exp11,2020.2.6,MacIntel,60,0,0,0,0,1,conGreen.xlsx,green vertical,Look for green vertical bar (target) and indicate if it is present or absent in the array. If green vertical target is present press 'p' and if absent press 'a'. Press SPACE to start.,,,
,,,,,,,,,,space,6.395,space,1.451,a,1,1.586,space,0.813,0,0,0,110,1,0_targ_1_dist_red/trial11.png,,,0,1,redHorizontal,a,76,49,F,2021-02-17_21h38.56.558,exp11,2020.2.6,MacIntel,60,,,,,,,,,,,
,,,,,,,,,,,,,,a,1,0.938,space,0.383,0,1,1,180,1,0_targ_16_dist_red/trial6.png,,,0,16,redHorizontal,a,76,49,F,2021-02-17_21h38.56.558,exp11,2020.2.6,MacIntel,60,,,,,,,,,,,
,,,,,,,,,,,,,,p,1,1.481,space,0.953,0,2,2,99,1,15_dist_red/trial25.png,,,1,15,redHorizontal,p,76,49,F,2021-02-17_21h38.56.558,exp11,2020.2.6,MacIntel,60,,,,,,,,,,,
,,,,,,,,,,,,,,p,1,0.608,space,0.58,0,3,3,94,1,15_dist_red/trial20.png,,,1,15,redHorizontal,p,76,49,F,2021-02-17_21h38.56.558,exp11,2020.2.6,MacIntel,60,,,,,,,,,,,
,,,,,,,,,,,,,,p,0,0.654,space,0.889,0,4,4,103,1,0_targ_1_dist_red/trial4.png,,,0,1,redHorizontal,a,76,49,F,2021-02-17_21h38.56.558,exp11,2020.2.6,MacIntel,60,,,,,,,,,,,
,,,,,,,,,,,,,,p,1,1.165,space,0.757,0,5,5,28,1,3_dist_red/trial4.png,,,1,3,redHorizontal,p,76,49,F,2021-02-17_21h38.56.558,exp11,2020.2.6,MacIntel,60,,,,,,,,,,,
,,,,,,,,,,,,,,p,1,0.69,space,0.687,0,6,6,10,1,0_dist_red/trial11.png,,,1,0,redHorizontal,p,76,49,F,2021-02-17_21h38.56.558,exp11,2020.2.6,MacIntel,60,,,,,,,,,,,
,,,,,,,,,,,,,,p,1,1.451,space,0.525,0,7,7,29,1,3_dist_red/trial5.png,,,1,3,redHorizontal,p,76,49,F,2021-02-17_21h38.56.558,exp11,2020.2.6,MacIntel,60,,,,,,,,,,,
,,,,,,,,,,,,,,p,1,0.888,space,0.514,0,8,8,68,1,9_dist_red/trial19.png,,,1,9,redHorizontal,p,76,49,F,2021-02-17_21h38.56.558,exp11,2020.2.6,MacIntel,60,,,,,,,,,,,
,,,,,,,,,,,,,,a,1,1.433,space,0.316,0,9,9,147,1,0_targ_4_dist_red/trial23.png,,,0,4,redHorizontal,a,76,49,F,2021-02-17_21h38.56.558,exp11,2020.2.6,MacIntel,60,,,,,,,,,,,
,,,,,,,,,,,,,,p,1,1.605,space,0.517,0,10,10,92,1,15_dist_red/trial18.png,,,1,15,redHorizontal,p,76,49,F,2021-02-17_21h38.56.558,exp11,2020.2.6,MacIntel,60,,,,,,,,,,,
,,,,,,,,,,,,,,p,1,0.928,space,0.576,0,11,11,81,1,15_dist_red/trial7.png,,,1,15,redHorizontal,p,76,49,F,2021-02-17_21h38.56.558,exp11,2020.2.6,MacIntel,60,,,,,,,,,,,
,,,,,,,,,,,,,,p,1,0.939,space,0.442,0,12,12,25,1,3_dist_red/trial1.png,,,1,3,redHorizontal,p,76,49,F,2021-02-17_21h38.56.558,exp11,2020.2.6,MacIntel,60,,,,,,,,,,,
,,,,,,,,,,,,,,p,1,0.864,space,0.443,0,13,13,41,1,3_dist_red/trial17.png,,,1,3,redHorizontal,p,76,49,F,2021-02-17_21h38.56.558,exp11,2020.2.6,MacIntel,60,,,,,,,,,,,
,,,,,,,,,,,,,,a,1,1.406,space,0.398,0,14,14,169,1,0_targ_10_dist_red/trial20.png,,,0,10,redHorizontal,a,76,49,F,2021-02-17_21h38.56.558,exp11,2020.2.6,MacIntel,60,,,,,,,,,,,
,,,,,,,,,,,,,,p,1,1.26,space,0.494,0,15,15,5,1,0_dist_red/trial6.png,,,1,0,redHorizontal,p,76,49,F,2021-02-17_21h38.56.558,exp11,2020.2.6,MacIntel,60,,,,,,,,,,,
,,,,,,,,,,,,,,p,1,0.904,space,0.6,0,16,16,76,1,15_dist_red/trial2.png,,,1,15,redHorizontal,p,76,49,F,2021-02-17_21h38.56.558,exp11,2020.2.6,MacIntel,60,,,,,,,,,,,
,,,,,,,,,,,,,,a,1,1.536,space,0.348,0,17,17,163,1,0_targ_10_dist_red/trial14.png,,,0,10,redHorizontal,a,76,49,F,2021-02-17_21h38.56.558,exp11,2020.2.6,MacIntel,60,,,,,,,,,,,
,,,,,,,,,,,,,,a,1,1.514,space,0.648,0,18,18,113,1,0_targ_1_dist_red/trial14.png,,,0,1,redHorizontal,a,76,49,F,2021-02-17_21h38.56.558,exp11,2020.2.6,MacIntel,60,,,,,,,,,,,
,,,,,,,,,,,,,,a,1,0.847,space,0.43,0,19,19,130,1,0_targ_4_dist_red/trial6.png,,,0,4,redHorizontal,a,76,49,F,2021-02-17_21h38.56.558,exp11,2020.2.6,MacIntel,60,,,,,,,,,,,
,,,,,,,,,,,,,,a,1,0.905,space,0.627,0,20,20,184,1,0_targ_16_dist_red/trial10.png,,,0,16,redHorizontal,a,76,49,F,2021-02-17_21h38.56.558,exp11,2020.2.6,MacIntel,60,,,,,,,,,,,
,,,,,,,,,,,,,,p,1,1.324,space,0.943,0,21,21,75,1,15_dist_red/trial1.png,,,1,15,redHorizontal,p,76,49,F,2021-02-17_21h38.56.558,exp11,2020.2.6,MacIntel,60,,,,,,,,,,,
,,,,,,,,,,,,,,a,1,1.381,space,0.414,0,22,22,161,1,0_targ_10_dist_red/trial12.png,,,0,10,redHorizontal,a,76,49,F,2021-02-17_21h38.56.558,exp11,2020.2.6,MacIntel,60,,,,,,,,,,,
,,,,,,,,,,,,,,a,1,0.688,space,0.309,0,23,23,142,1,0_targ_4_dist_red/trial18.png,,,0,4,redHorizontal,a,76,49,F,2021-02-17_21h38.56.558,exp11,2020.2.6,MacIntel,60,,,,,,,,,,,
,,,,,,,,,,,,,,a,1,0.843,space,0.352,0,24,24,101,1,0_targ_1_dist_red/trial2.png,,,0,1,redHorizontal,a,76,49,F,2021-02-17_21h38.56.558,exp11,2020.2.6,MacIntel,60,,,,,,,,,,,
,,,,,,,,,,,,,,p,1,1.298,space,0.626,0,25,25,7,1,0_dist_red/trial8.png,,,1,0,redHorizontal,p,76,49,F,2021-02-17_21h38.56.558,exp11,2020.2.6,MacIntel,60,,,,,,,,,,,
,,,,,,,,,,,,,,p,1,0.839,space,0.598,0,26,26,58,1,9_dist_red/trial9.png,,,1,9,redHorizontal,p,76,49,F,2021-02-17_21h38.56.558,exp11,2020.2.6,MacIntel,60,,,,,,,,,,,
,,,,,,,,,,,,,,a,1,1.449,space,0.33,0,27,27,157,1,0_targ_10_dist_red/trial8.png,,,0,10,redHorizontal,a,76,49,F,2021-02-17_21h38.56.558,exp11,2020.2.6,MacIntel,60,,,,,,,,,,,
,,,,,,,,,,,,,,a,1,1.993,space,0.317,0,28,28,112,1,0_targ_1_dist_red/trial13.png,,,0,1,redHorizontal,a,76,49,F,2021-02-17_21h38.56.558,exp11,2020.2.6,MacIntel,60,,,,,,,,,,,
,,,,,,,,,,,,,,a,1,0.803,space,0.566,0,29,29,173,1,0_targ_10_dist_red/trial24.png,,,0,10,redHorizontal,a,76,49,F,2021-02-17_21h38.56.558,exp11,2020.2.6,MacIntel,60,,,,,,,,,,,
,,,,,,,,,,,,,,a,1,0.603,space,0.522,0,30,30,129,1,0_targ_4_dist_red/trial5.png,,,0,4,redHorizontal,a,76,49,F,2021-02-17_21h38.56.558,exp11,2020.2.6,MacIntel,60,,,,,,,,,,,
,,,,,,,,,,,,,,p,1,1.11,space,0.514,0,31,31,32,1,3_dist_red/trial8.png,,,1,3,redHorizontal,p,76,49,F,2021-02-17_21h38.56.558,exp11,2020.2.6,MacIntel,60,,,,,,,,,,,
,,,,,,,,,,,,,,p,1,0.89,space,0.356,0,32,32,62,1,9_dist_red/trial13.png,,,1,9,redHorizontal,p,76,49,F,2021-02-17_21h38.56.558,exp11,2020.2.6,MacIntel,60,,,,,,,,,,,
,,,,,,,,,,,,,,a,1,1.212,space,0.37,0,33,33,159,1,0_targ_10_dist_red/trial10.png,,,0,10,redHorizontal,a,76,49,F,2021-02-17_21h38.56.558,exp11,2020.2.6,MacIntel,60,,,,,,,,,,,
,,,,,,,,,,,,,,a,1,1.042,space,0.333,0,34,34,118,1,0_targ_1_dist_red/trial19.png,,,0,1,redHorizontal,a,76,49,F,2021-02-17_21h38.56.558,exp11,2020.2.6,MacIntel,60,,,,,,,,,,,
,,,,,,,,,,,,,,a,1,0.787,space,0.154,0,35,35,174,1,0_targ_10_dist_red/trial25.png,,,0,10,redHorizontal,a,76,49,F,2021-02-17_21h38.56.558,exp11,2020.2.6,MacIntel,60,,,,,,,,,,,
,,,,,,,,,,,,,,a,1,0.756,space,0.198,0,36,36,111,1,0_targ_1_dist_red/trial12.png,,,0,1,redHorizontal,a,76,49,F,2021-02-17_21h38.56.558,exp11,2020.2.6,MacIntel,60,,,,,,,,,,,
,,,,,,,,,,,,,,p,1,1.318,space,0.36,0,37,37,11,1,0_dist_red/trial12.png,,,1,0,redHorizontal,p,76,49,F,2021-02-17_21h38.56.558,exp11,2020.2.6,MacIntel,60,,,,,,,,,,,
,,,,,,,,,,,,,,p,1,0.745,space,0.477,0,38,38,31,1,3_dist_red/trial7.png,,,1,3,redHorizontal,p,76,49,F,2021-02-17_21h38.56.558,exp11,2020.2.6,MacIntel,60,,,,,,,,,,,
,,,,,,,,,,,,,,p,1,1.159,space,0.609,0,39,39,73,1,9_dist_red/trial24.png,,,1,9,redHorizontal,p,76,49,F,2021-02-17_21h38.56.558,exp11,2020.2.6,MacIntel,60,,,,,,,,,,,
,,,,,,,,,,,,,,p,1,0.931,space,0.599,0,40,40,46,1,3_dist_red/trial22.png,,,1,3,redHorizontal,p,76,49,F,2021-02-17_21h38.56.558,exp11,2020.2.6,MacIntel,60,,,,,,,,,,,
,,,,,,,,,,,,,,p,1,0.871,space,0.688,0,41,41,39,1,3_dist_red/trial15.png,,,1,3,redHorizontal,p,76,49,F,2021-02-17_21h38.56.558,exp11,2020.2.6,MacIntel,60,,,,,,,,,,,
,,,,,,,,,,,,,,p,1,0.812,space,0.362,0,42,42,49,1,3_dist_red/trial25.png,,,1,3,redHorizontal,p,76,49,F,2021-02-17_21h38.56.558,exp11,2020.2.6,MacIntel,60,,,,,,,,,,,
,,,,,,,,,,,,,,p,1,1.078,space,0.46,0,43,43,83,1,15_dist_red/trial9.png,,,1,15,redHorizontal,p,76,49,F,2021-02-17_21h38.56.558,exp11,2020.2.6,MacIntel,60,,,,,,,,,,,
,,,,,,,,,,,,,,a,1,1.407,space,0.453,0,44,44,149,1,0_targ_4_dist_red/trial25.png,,,0,4,redHorizontal,a,76,49,F,2021-02-17_21h38.56.558,exp11,2020.2.6,MacIntel,60,,,,,,,,,,,
,,,,,,,,,,,,,,p,1,1.205,space,0.399,0,45,45,72,1,9_dist_red/trial23.png,,,1,9,redHorizontal,p,76,49,F,2021-02-17_21h38.56.558,exp11,2020.2.6,MacIntel,60,,,,,,,,,,,
,,,,,,,,,,,,,,a,1,1.504,space,0.291,0,46,46,134,1,0_targ_4_dist_red/trial10.png,,,0,4,redHorizontal,a,76,49,F,2021-02-17_21h38.56.558,exp11,2020.2.6,MacIntel,60,,,,,,,,,,,
,,,,,,,,,,,,,,a,1,0.997,space,0.333,0,47,47,114,1,0_targ_1_dist_red/trial15.png,,,0,1,redHorizontal,a,76,49,F,2021-02-17_21h38.56.558,exp11,2020.2.6,MacIntel,60,,,,,,,,,,,
,,,,,,,,,,,,,,a,1,1.129,space,0.047,0,48,48,185,1,0_targ_16_dist_red/trial11.png,,,0,16,redHorizontal,a,76,49,F,2021-02-17_21h38.56.558,exp11,2020.2.6,MacIntel,60,,,,,,,,,,,
,,,,,,,,,,,,,,a,1,1.034,space,0.646,0,49,49,197,1,0_targ_16_dist_red/trial23.png,,,0,16,redHorizontal,a,76,49,F,2021-02-17_21h38.56.558,exp11,2020.2.6,MacIntel,60,,,,,,,,,,,
,,,,,,,,,,,,,,a,1,0.654,space,0.385,0,50,50,100,1,0_targ_1_dist_red/trial1.png,,,0,1,redHorizontal,a,76,49,F,2021-02-17_21h38.56.558,exp11,2020.2.6,MacIntel,60,,,,,,,,,,,
,,,,,,,,,,,,,,a,1,0.691,space,0.286,0,51,51,152,1,0_targ_10_dist_red/trial3.png,,,0,10,redHorizontal,a,76,49,F,2021-02-17_21h38.56.558,exp11,2020.2.6,MacIntel,60,,,,,,,,,,,
,,,,,,,,,,,,,,p,1,1.036,space,0.42,0,52,52,13,1,0_dist_red/trial14.png,,,1,0,redHorizontal,p,76,49,F,2021-02-17_21h38.56.558,exp11,2020.2.6,MacIntel,60,,,,,,,,,,,
,,,,,,,,,,,,,,a,1,1.195,space,0.327,0,53,53,115,1,0_targ_1_dist_red/trial6.png,,,0,1,redHorizontal,a,76,49,F,2021-02-17_21h38.56.558,exp11,2020.2.6,MacIntel,60,,,,,,,,,,,
,,,,,,,,,,,,,,a,1,1.218,space,0.009,0,54,54,194,1,0_targ_16_dist_red/trial20.png,,,0,16,redHorizontal,a,76,49,F,2021-02-17_21h38.56.558,exp11,2020.2.6,MacIntel,60,,,,,,,,,,,
,,,,,,,,,,,,,,a,1,0.963,space,0.448,0,55,55,127,1,0_targ_4_dist_red/trial3.png,,,0,4,redHorizontal,a,76,49,F,2021-02-17_21h38.56.558,exp11,2020.2.6,MacIntel,60,,,,,,,,,,,
,,,,,,,,,,,,,,p,1,1.168,space,0.328,0,56,56,12,1,0_dist_red/trial13.png,,,1,0,redHorizontal,p,76,49,F,2021-02-17_21h38.56.558,exp11,2020.2.6,MacIntel,60,,,,,,,,,,,
,,,,,,,,,,,,,,a,1,1.243,space,0.232,0,57,57,124,1,0_targ_1_dist_red/trial25.png,,,0,1,redHorizontal,a,76,49,F,2021-02-17_21h38.56.558,exp11,2020.2.6,MacIntel,60,,,,,,,,,,,
,,,,,,,,,,,,,,p,1,1.441,space,0.234,0,58,58,98,1,15_dist_red/trial24.png,,,1,15,redHorizontal,p,76,49,F,2021-02-17_21h38.56.558,exp11,2020.2.6,MacIntel,60,,,,,,,,,,,
,,,,,,,,,,,,,,a,1,1.146,space,0.268,0,59,59,135,1,0_targ_4_dist_red/trial11.png,,,0,4,redHorizontal,a,76,49,F,2021-02-17_21h38.56.558,exp11,2020.2.6,MacIntel,60,,,,,,,,,,,
,,,,,,,,,,,,,,p,1,1.023,space,0.3,0,60,60,0,1,0_dist_red/trial1.png,,,1,0,redHorizontal,p,76,49,F,2021-02-17_21h38.56.558,exp11,2020.2.6,MacIntel,60,,,,,,,,,,,
,,,,,,,,,,,,,,p,1,0.714,space,0.287,0,61,61,23,1,0_dist_red/trial24.png,,,1,0,redHorizontal,p,76,49,F,2021-02-17_21h38.56.558,exp11,2020.2.6,MacIntel,60,,,,,,,,,,,
,,,,,,,,,,,,,,a,1,1.186,space,0.384,0,62,62,146,1,0_targ_4_dist_red/trial22.png,,,0,4,redHorizontal,a,76,49,F,2021-02-17_21h38.56.558,exp11,2020.2.6,MacIntel,60,,,,,,,,,,,
,,,,,,,,,,,,,,a,1,1.629,space,0.564,0,63,63,156,1,0_targ_10_dist_red/trial7.png,,,0,10,redHorizontal,a,76,49,F,2021-02-17_21h38.56.558,exp11,2020.2.6,MacIntel,60,,,,,,,,,,,
,,,,,,,,,,,,,,a,1,1.067,space,1.023,0,64,64,183,1,0_targ_16_dist_red/trial9.png,,,0,16,redHorizontal,a,76,49,F,2021-02-17_21h38.56.558,exp11,2020.2.6,MacIntel,60,,,,,,,,,,,
,,,,,,,,,,,,,,a,1,0.757,space,0.443,0,65,65,151,1,0_targ_10_dist_red/trial2.png,,,0,10,redHorizontal,a,76,49,F,2021-02-17_21h38.56.558,exp11,2020.2.6,MacIntel,60,,,,,,,,,,,
,,,,,,,,,,,,,,a,1,0.774,space,0.281,0,66,66,179,1,0_targ_16_dist_red/trial5.png,,,0,16,redHorizontal,a,76,49,F,2021-02-17_21h38.56.558,exp11,2020.2.6,MacIntel,60,,,,,,,,,,,
,,,,,,,,,,,,,,p,1,1.077,space,0.21,0,67,67,91,1,15_dist_red/trial17.png,,,1,15,redHorizontal,p,76,49,F,2021-02-17_21h38.56.558,exp11,2020.2.6,MacIntel,60,,,,,,,,,,,
,,,,,,,,,,,,,,p,1,0.839,space,0.24,0,68,68,71,1,9_dist_red/trial22.png,,,1,9,redHorizontal,p,76,49,F,2021-02-17_21h38.56.558,exp11,2020.2.6,MacIntel,60,,,,,,,,,,,
,,,,,,,,,,,,,,a,1,1.262,space,0.276,0,69,69,138,1,0_targ_4_dist_red/trial14.png,,,0,4,redHorizontal,a,76,49,F,2021-02-17_21h38.56.558,exp11,2020.2.6,MacIntel,60,,,,,,,,,,,
,,,,,,,,,,,,,,p,1,1.377,space,0.197,0,70,70,17,1,0_dist_red/trial18.png,,,1,0,redHorizontal,p,76,49,F,2021-02-17_21h38.56.558,exp11,2020.2.6,MacIntel,60,,,,,,,,,,,
,,,,,,,,,,,,,,p,1,0.793,space,0.183,0,71,71,52,1,9_dist_red/trial3.png,,,1,9,redHorizontal,p,76,49,F,2021-02-17_21h38.56.558,exp11,2020.2.6,MacIntel,60,,,,,,,,,,,
,,,,,,,,,,,,,,p,1,0.946,space,0.547,0,72,72,55,1,9_dist_red/trial6.png,,,1,9,redHorizontal,p,76,49,F,2021-02-17_21h38.56.558,exp11,2020.2.6,MacIntel,60,,,,,,,,,,,
,,,,,,,,,,,,,,a,1,1.236,space,0.393,0,73,73,165,1,0_targ_10_dist_red/trial16.png,,,0,10,redHorizontal,a,76,49,F,2021-02-17_21h38.56.558,exp11,2020.2.6,MacIntel,60,,,,,,,,,,,
,,,,,,,,,,,,,,a,0,0.697,space,0.1,0,74,74,36,1,3_dist_red/trial12.png,,,1,3,redHorizontal,p,76,49,F,2021-02-17_21h38.56.558,exp11,2020.2.6,MacIntel,60,,,,,,,,,,,
,,,,,,,,,,,,,,p,1,1.499,space,0.356,0,75,75,77,1,15_dist_red/trial3.png,,,1,15,redHorizontal,p,76,49,F,2021-02-17_21h38.56.558,exp11,2020.2.6,MacIntel,60,,,,,,,,,,,
,,,,,,,,,,,,,,p,1,0.59,space,0.381,0,76,76,38,1,3_dist_red/trial14.png,,,1,3,redHorizontal,p,76,49,F,2021-02-17_21h38.56.558,exp11,2020.2.6,MacIntel,60,,,,,,,,,,,
,,,,,,,,,,,,,,p,1,0.567,space,0.423,0,77,77,2,1,0_dist_red/trial3.png,,,1,0,redHorizontal,p,76,49,F,2021-02-17_21h38.56.558,exp11,2020.2.6,MacIntel,60,,,,,,,,,,,
,,,,,,,,,,,,,,a,1,1.182,space,0.276,0,78,78,162,1,0_targ_10_dist_red/trial13.png,,,0,10,redHorizontal,a,76,49,F,2021-02-17_21h38.56.558,exp11,2020.2.6,MacIntel,60,,,,,,,,,,,
,,,,,,,,,,,,,,a,1,1.235,space,0.166,0,79,79,155,1,0_targ_10_dist_red/trial6.png,,,0,10,redHorizontal,a,76,49,F,2021-02-17_21h38.56.558,exp11,2020.2.6,MacIntel,60,,,,,,,,,,,
,,,,,,,,,,,,,,p,1,0.992,space,0.246,0,80,80,9,1,0_dist_red/trial10.png,,,1,0,redHorizontal,p,76,49,F,2021-02-17_21h38.56.558,exp11,2020.2.6,MacIntel,60,,,,,,,,,,,
,,,,,,,,,,,,,,p,1,0.713,space,0.253,0,81,81,1,1,0_dist_red/trial2.png,,,1,0,redHorizontal,p,76,49,F,2021-02-17_21h38.56.558,exp11,2020.2.6,MacIntel,60,,,,,,,,,,,
,,,,,,,,,,,,,,a,1,1.32,space,0.371,0,82,82,123,1,0_targ_1_dist_red/trial24.png,,,0,1,redHorizontal,a,76,49,F,2021-02-17_21h38.56.558,exp11,2020.2.6,MacIntel,60,,,,,,,,,,,
,,,,,,,,,,,,,,p,1,1.379,space,0.19,0,83,83,35,1,3_dist_red/trial11.png,,,1,3,redHorizontal,p,76,49,F,2021-02-17_21h38.56.558,exp11,2020.2.6,MacIntel,60,,,,,,,,,,,
,,,,,,,,,,,,,,p,1,0.905,space,0.245,0,84,84,57,1,9_dist_red/trial8.png,,,1,9,redHorizontal,p,76,49,F,2021-02-17_21h38.56.558,exp11,2020.2.6,MacIntel,60,,,,,,,,,,,
,,,,,,,,,,,,,,a,1,1.165,space,0.29,0,85,85,109,1,0_targ_1_dist_red/trial10.png,,,0,1,redHorizontal,a,76,49,F,2021-02-17_21h38.56.558,exp11,2020.2.6,MacIntel,60,,,,,,,,,,,
,,,,,,,,,,,,,,p,1,1.183,space,0.195,0,86,86,67,1,9_dist_red/trial18.png,,,1,9,redHorizontal,p,76,49,F,2021-02-17_21h38.56.558,exp11,2020.2.6,MacIntel,60,,,,,,,,,,,
,,,,,,,,,,,,,,p,1,0.878,space,0.304,0,87,87,66,1,9_dist_red/trial17.png,,,1,9,redHorizontal,p,76,49,F,2021-02-17_21h38.56.558,exp11,2020.2.6,MacIntel,60,,,,,,,,,,,
,,,,,,,,,,,,,,a,1,1.351,space,0.29,0,88,88,181,1,0_targ_16_dist_red/trial7.png,,,0,16,redHorizontal,a,76,49,F,2021-02-17_21h38.56.558,exp11,2020.2.6,MacIntel,60,,,,,,,,,,,
,,,,,,,,,,,,,,p,1,1.099,space,0.194,0,89,89,3,1,0_dist_red/trial4.png,,,1,0,redHorizontal,p,76,49,F,2021-02-17_21h38.56.558,exp11,2020.2.6,MacIntel,60,,,,,,,,,,,
,,,,,,,,,,,,,,a,1,1.323,space,0.182,0,90,90,158,1,0_targ_10_dist_red/trial9.png,,,0,10,redHorizontal,a,76,49,F,2021-02-17_21h38.56.558,exp11,2020.2.6,MacIntel,60,,,,,,,,,,,
,,,,,,,,,,,,,,p,1,1.226,space,0.18,0,91,91,51,1,9_dist_red/trial2.png,,,1,9,redHorizontal,p,76,49,F,2021-02-17_21h38.56.558,exp11,2020.2.6,MacIntel,60,,,,,,,,,,,
,,,,,,,,,,,,,,a,1,1.061,space,0.2,0,92,92,102,1,0_targ_1_dist_red/trial3.png,,,0,1,redHorizontal,a,76,49,F,2021-02-17_21h38.56.558,exp11,2020.2.6,MacIntel,60,,,,,,,,,,,
,,,,,,,,,,,,,,a,1,1.273,space,0.237,0,93,93,171,1,0_targ_10_dist_red/trial22.png,,,0,10,redHorizontal,a,76,49,F,2021-02-17_21h38.56.558,exp11,2020.2.6,MacIntel,60,,,,,,,,,,,
,,,,,,,,,,,,,,a,1,0.917,space,0.209,0,94,94,172,1,0_targ_10_dist_red/trial23.png,,,0,10,redHorizontal,a,76,49,F,2021-02-17_21h38.56.558,exp11,2020.2.6,MacIntel,60,,,,,,,,,,,
,,,,,,,,,,,,,,a,1,0.838,space,0.156,0,95,95,170,1,0_targ_10_dist_red/trial21.png,,,0,10,redHorizontal,a,76,49,F,2021-02-17_21h38.56.558,exp11,2020.2.6,MacIntel,60,,,,,,,,,,,
,,,,,,,,,,,,,,p,1,1.269,space,0.241,0,96,96,53,1,9_dist_red/trial4.png,,,1,9,redHorizontal,p,76,49,F,2021-02-17_21h38.56.558,exp11,2020.2.6,MacIntel,60,,,,,,,,,,,
,,,,,,,,,,,,,,a,1,1.112,space,0.265,0,97,97,106,1,0_targ_1_dist_red/trial7.png,,,0,1,redHorizontal,a,76,49,F,2021-02-17_21h38.56.558,exp11,2020.2.6,MacIntel,60,,,,,,,,,,,
,,,,,,,,,,,,,,p,1,1.699,space,0.22,0,98,98,96,1,15_dist_red/trial22.png,,,1,15,redHorizontal,p,76,49,F,2021-02-17_21h38.56.558,exp11,2020.2.6,MacIntel,60,,,,,,,,,,,
,,,,,,,,,,,,,,p,1,0.728,space,0.127,0,99,99,27,1,3_dist_red/trial3.png,,,1,3,redHorizontal,p,76,49,F,2021-02-17_21h38.56.558,exp11,2020.2.6,MacIntel,60,,,,,,,,,,,
,,,,,,,,,,,,,,p,1,1.249,space,0.646,0,100,100,26,1,3_dist_red/trial2.png,,,1,3,redHorizontal,p,76,49,F,2021-02-17_21h38.56.558,exp11,2020.2.6,MacIntel,60,,,,,,,,,,,
,,,,,,,,,,,,,,p,1,0.756,space,0.676,0,101,101,87,1,15_dist_red/trial13.png,,,1,15,redHorizontal,p,76,49,F,2021-02-17_21h38.56.558,exp11,2020.2.6,MacIntel,60,,,,,,,,,,,
,,,,,,,,,,,,,,a,1,1.229,space,0.278,0,102,102,119,1,0_targ_1_dist_red/trial20.png,,,0,1,redHorizontal,a,76,49,F,2021-02-17_21h38.56.558,exp11,2020.2.6,MacIntel,60,,,,,,,,,,,
,,,,,,,,,,,,,,p,1,1.943,space,0.268,0,103,103,85,1,15_dist_red/trial11.png,,,1,15,redHorizontal,p,76,49,F,2021-02-17_21h38.56.558,exp11,2020.2.6,MacIntel,60,,,,,,,,,,,
,,,,,,,,,,,,,,p,1,0.683,space,0.289,0,104,104,15,1,0_dist_red/trial16.png,,,1,0,redHorizontal,p,76,49,F,2021-02-17_21h38.56.558,exp11,2020.2.6,MacIntel,60,,,,,,,,,,,
,,,,,,,,,,,,,,a,1,1.487,space,0.204,0,105,105,196,1,0_targ_16_dist_red/trial22.png,,,0,16,redHorizontal,a,76,49,F,2021-02-17_21h38.56.558,exp11,2020.2.6,MacIntel,60,,,,,,,,,,,
,,,,,,,,,,,,,,p,1,1.24,space,0.269,0,106,106,79,1,15_dist_red/trial5.png,,,1,15,redHorizontal,p,76,49,F,2021-02-17_21h38.56.558,exp11,2020.2.6,MacIntel,60,,,,,,,,,,,
,,,,,,,,,,,,,,a,1,1.511,space,0.215,0,107,107,189,1,0_targ_16_dist_red/trial15.png,,,0,16,redHorizontal,a,76,49,F,2021-02-17_21h38.56.558,exp11,2020.2.6,MacIntel,60,,,,,,,,,,,
,,,,,,,,,,,,,,p,1,1.566,space,0.255,0,108,108,69,1,9_dist_red/trial20.png,,,1,9,redHorizontal,p,76,49,F,2021-02-17_21h38.56.558,exp11,2020.2.6,MacIntel,60,,,,,,,,,,,
,,,,,,,,,,,,,,a,1,1.244,space,0.213,0,109,109,193,1,0_targ_16_dist_red/trial19.png,,,0,16,redHorizontal,a,76,49,F,2021-02-17_21h38.56.558,exp11,2020.2.6,MacIntel,60,,,,,,,,,,,
,,,,,,,,,,,,,,a,0,0.99,space,0.433,0,110,110,54,1,9_dist_red/trial5.png,,,1,9,redHorizontal,p,76,49,F,2021-02-17_21h38.56.558,exp11,2020.2.6,MacIntel,60,,,,,,,,,,,
,,,,,,,,,,,,,,p,1,1.873,space,0.711,0,111,111,78,1,15_dist_red/trial4.png,,,1,15,redHorizontal,p,76,49,F,2021-02-17_21h38.56.558,exp11,2020.2.6,MacIntel,60,,,,,,,,,,,
,,,,,,,,,,,,,,p,1,0.702,space,0.599,0,112,112,34,1,3_dist_red/trial10.png,,,1,3,redHorizontal,p,76,49,F,2021-02-17_21h38.56.558,exp11,2020.2.6,MacIntel,60,,,,,,,,,,,
,,,,,,,,,,,,,,a,1,1.405,space,0.309,0,113,113,167,1,0_targ_10_dist_red/trial18.png,,,0,10,redHorizontal,a,76,49,F,2021-02-17_21h38.56.558,exp11,2020.2.6,MacIntel,60,,,,,,,,,,,
,,,,,,,,,,,,,,p,1,1.135,space,0.925,0,114,114,82,1,15_dist_red/trial8.png,,,1,15,redHorizontal,p,76,49,F,2021-02-17_21h38.56.558,exp11,2020.2.6,MacIntel,60,,,,,,,,,,,
,,,,,,,,,,,,,,a,1,1.711,space,0.227,0,115,115,186,1,0_targ_16_dist_red/trial12.png,,,0,16,redHorizontal,a,76,49,F,2021-02-17_21h38.56.558,exp11,2020.2.6,MacIntel,60,,,,,,,,,,,
,,,,,,,,,,,,,,p,1,1.628,space,0.479,0,116,116,95,1,15_dist_red/trial21.png,,,1,15,redHorizontal,p,76,49,F,2021-02-17_21h38.56.558,exp11,2020.2.6,MacIntel,60,,,,,,,,,,,
,,,,,,,,,,,,,,p,1,0.917,space,0.252,0,117,117,16,1,0_dist_red/trial17.png,,,1,0,redHorizontal,p,76,49,F,2021-02-17_21h38.56.558,exp11,2020.2.6,MacIntel,60,,,,,,,,,,,
,,,,,,,,,,,,,,p,1,0.72,space,0.424,0,118,118,22,1,0_dist_red/trial23.png,,,1,0,redHorizontal,p,76,49,F,2021-02-17_21h38.56.558,exp11,2020.2.6,MacIntel,60,,,,,,,,,,,
,,,,,,,,,,,,,,p,1,0.736,space,0.394,0,119,119,93,1,15_dist_red/trial19.png,,,1,15,redHorizontal,p,76,49,F,2021-02-17_21h38.56.558,exp11,2020.2.6,MacIntel,60,,,,,,,,,,,
,,,,,,,,,,,,,,a,1,1.133,space,0.361,0,120,120,128,1,0_targ_4_dist_red/trial4.png,,,0,4,redHorizontal,a,76,49,F,2021-02-17_21h38.56.558,exp11,2020.2.6,MacIntel,60,,,,,,,,,,,
,,,,,,,,,,,,,,p,1,1.178,space,0.331,0,121,121,30,1,3_dist_red/trial6.png,,,1,3,redHorizontal,p,76,49,F,2021-02-17_21h38.56.558,exp11,2020.2.6,MacIntel,60,,,,,,,,,,,
,,,,,,,,,,,,,,a,1,1.269,space,0.289,0,122,122,168,1,0_targ_10_dist_red/trial19.png,,,0,10,redHorizontal,a,76,49,F,2021-02-17_21h38.56.558,exp11,2020.2.6,MacIntel,60,,,,,,,,,,,
,,,,,,,,,,,,,,p,1,1.125,space,0.397,0,123,123,59,1,9_dist_red/trial10.png,,,1,9,redHorizontal,p,76,49,F,2021-02-17_21h38.56.558,exp11,2020.2.6,MacIntel,60,,,,,,,,,,,
,,,,,,,,,,,,,,a,1,1.578,space,0.243,0,124,124,177,1,0_targ_16_dist_red/trial3.png,,,0,16,redHorizontal,a,76,49,F,2021-02-17_21h38.56.558,exp11,2020.2.6,MacIntel,60,,,,,,,,,,,
,,,,,,,,,,,,,,a,1,0.995,space,0.443,0,125,125,160,1,0_targ_10_dist_red/trial11.png,,,0,10,redHorizontal,a,76,49,F,2021-02-17_21h38.56.558,exp11,2020.2.6,MacIntel,60,,,,,,,,,,,
,,,,,,,,,,,,,,p,1,1.163,space,0.129,0,126,126,47,1,3_dist_red/trial23.png,,,1,3,redHorizontal,p,76,49,F,2021-02-17_21h38.56.558,exp11,2020.2.6,MacIntel,60,,,,,,,,,,,
,,,,,,,,,,,,,,a,1,1.183,space,0.327,0,127,127,164,1,0_targ_10_dist_red/trial15.png,,,0,10,redHorizontal,a,76,49,F,2021-02-17_21h38.56.558,exp11,2020.2.6,MacIntel,60,,,,,,,,,,,
,,,,,,,,,,,,,,a,1,1.05,space,0.208,0,128,128,195,1,0_targ_16_dist_red/trial21.png,,,0,16,redHorizontal,a,76,49,F,2021-02-17_21h38.56.558,exp11,2020.2.6,MacIntel,60,,,,,,,,,,,
,,,,,,,,,,,,,,a,1,0.875,space,0.135,0,129,129,132,1,0_targ_4_dist_red/trial8.png,,,0,4,redHorizontal,a,76,49,F,2021-02-17_21h38.56.558,exp11,2020.2.6,MacIntel,60,,,,,,,,,,,
,,,,,,,,,,,,,,p,1,1.248,space,0.544,0,130,130,89,1,15_dist_red/trial15.png,,,1,15,redHorizontal,p,76,49,F,2021-02-17_21h38.56.558,exp11,2020.2.6,MacIntel,60,,,,,,,,,,,
,,,,,,,,,,,,,,a,1,1.223,space,0.305,0,131,131,198,1,0_targ_16_dist_red/trial24.png,,,0,16,redHorizontal,a,76,49,F,2021-02-17_21h38.56.558,exp11,2020.2.6,MacIntel,60,,,,,,,,,,,
,,,,,,,,,,,,,,p,1,1.095,space,0.612,0,132,132,63,1,9_dist_red/trial14.png,,,1,9,redHorizontal,p,76,49,F,2021-02-17_21h38.56.558,exp11,2020.2.6,MacIntel,60,,,,,,,,,,,
,,,,,,,,,,,,,,p,1,0.727,space,0.452,0,133,133,44,1,3_dist_red/trial20.png,,,1,3,redHorizontal,p,76,49,F,2021-02-17_21h38.56.558,exp11,2020.2.6,MacIntel,60,,,,,,,,,,,
,,,,,,,,,,,,,,p,1,1.021,space,0.199,0,134,134,74,1,9_dist_red/trial25.png,,,1,9,redHorizontal,p,76,49,F,2021-02-17_21h38.56.558,exp11,2020.2.6,MacIntel,60,,,,,,,,,,,
,,,,,,,,,,,,,,p,1,1.261,space,0.45,0,135,135,65,1,9_dist_red/trial16.png,,,1,9,redHorizontal,p,76,49,F,2021-02-17_21h38.56.558,exp11,2020.2.6,MacIntel,60,,,,,,,,,,,
,,,,,,,,,,,,,,p,1,0.75,space,0.263,0,136,136,37,1,3_dist_red/trial13.png,,,1,3,redHorizontal,p,76,49,F,2021-02-17_21h38.56.558,exp11,2020.2.6,MacIntel,60,,,,,,,,,,,
,,,,,,,,,,,,,,a,1,1.496,space,0.218,0,137,137,182,1,0_targ_16_dist_red/trial8.png,,,0,16,redHorizontal,a,76,49,F,2021-02-17_21h38.56.558,exp11,2020.2.6,MacIntel,60,,,,,,,,,,,
,,,,,,,,,,,,,,p,1,1.138,space,0.61,0,138,138,14,1,0_dist_red/trial15.png,,,1,0,redHorizontal,p,76,49,F,2021-02-17_21h38.56.558,exp11,2020.2.6,MacIntel,60,,,,,,,,,,,
,,,,,,,,,,,,,,p,1,1.987,space,0.518,0,139,139,33,1,3_dist_red/trial9.png,,,1,3,redHorizontal,p,76,49,F,2021-02-17_21h38.56.558,exp11,2020.2.6,MacIntel,60,,,,,,,,,,,
,,,,,,,,,,,,,,a,1,1.433,space,0.716,0,140,140,122,1,0_targ_1_dist_red/trial23.png,,,0,1,redHorizontal,a,76,49,F,2021-02-17_21h38.56.558,exp11,2020.2.6,MacIntel,60,,,,,,,,,,,
,,,,,,,,,,,,,,a,1,1.967,space,0.302,0,141,141,188,1,0_targ_16_dist_red/trial14.png,,,0,16,redHorizontal,a,76,49,F,2021-02-17_21h38.56.558,exp11,2020.2.6,MacIntel,60,,,,,,,,,,,
,,,,,,,,,,,,,,a,1,1.168,space,0.011,0,142,142,178,1,0_targ_16_dist_red/trial4.png,,,0,16,redHorizontal,a,76,49,F,2021-02-17_21h38.56.558,exp11,2020.2.6,MacIntel,60,,,,,,,,,,,
,,,,,,,,,,,,,,a,1,0.876,space,0.267,0,143,143,137,1,0_targ_4_dist_red/trial13.png,,,0,4,redHorizontal,a,76,49,F,2021-02-17_21h38.56.558,exp11,2020.2.6,MacIntel,60,,,,,,,,,,,
,,,,,,,,,,,,,,a,1,0.636,space,0.644,0,144,144,131,1,0_targ_4_dist_red/trial7.png,,,0,4,redHorizontal,a,76,49,F,2021-02-17_21h38.56.558,exp11,2020.2.6,MacIntel,60,,,,,,,,,,,
,,,,,,,,,,,,,,p,1,1.069,space,0.266,0,145,145,43,1,3_dist_red/trial19.png,,,1,3,redHorizontal,p,76,49,F,2021-02-17_21h38.56.558,exp11,2020.2.6,MacIntel,60,,,,,,,,,,,
,,,,,,,,,,,,,,p,1,0.684,space,0.307,0,146,146,61,1,9_dist_red/trial12.png,,,1,9,redHorizontal,p,76,49,F,2021-02-17_21h38.56.558,exp11,2020.2.6,MacIntel,60,,,,,,,,,,,
,,,,,,,,,,,,,,a,1,1.509,space,0.257,0,147,147,199,1,0_targ_16_dist_red/trial25.png,,,0,16,redHorizontal,a,76,49,F,2021-02-17_21h38.56.558,exp11,2020.2.6,MacIntel,60,,,,,,,,,,,
,,,,,,,,,,,,,,a,1,1.444,space,0.282,0,148,148,187,1,0_targ_16_dist_red/trial13.png,,,0,16,redHorizontal,a,76,49,F,2021-02-17_21h38.56.558,exp11,2020.2.6,MacIntel,60,,,,,,,,,,,
,,,,,,,,,,,,,,p,1,1.183,space,0.21,0,149,149,18,1,0_dist_red/trial19.png,,,1,0,redHorizontal,p,76,49,F,2021-02-17_21h38.56.558,exp11,2020.2.6,MacIntel,60,,,,,,,,,,,
,,,,,,,,,,,,,,a,1,1.279,space,0.227,0,150,150,191,1,0_targ_16_dist_red/trial17.png,,,0,16,redHorizontal,a,76,49,F,2021-02-17_21h38.56.558,exp11,2020.2.6,MacIntel,60,,,,,,,,,,,
,,,,,,,,,,,,,,p,1,1.25,space,0.137,0,151,151,60,1,9_dist_red/trial11.png,,,1,9,redHorizontal,p,76,49,F,2021-02-17_21h38.56.558,exp11,2020.2.6,MacIntel,60,,,,,,,,,,,
,,,,,,,,,,,,,,a,1,0.976,space,0.236,0,152,152,117,1,0_targ_1_dist_red/trial18.png,,,0,1,redHorizontal,a,76,49,F,2021-02-17_21h38.56.558,exp11,2020.2.6,MacIntel,60,,,,,,,,,,,
,,,,,,,,,,,,,,a,1,0.844,space,0.617,0,153,153,125,1,0_targ_4_dist_red/trial1.png,,,0,4,redHorizontal,a,76,49,F,2021-02-17_21h38.56.558,exp11,2020.2.6,MacIntel,60,,,,,,,,,,,
,,,,,,,,,,,,,,p,1,1.227,space,0.182,0,154,154,40,1,3_dist_red/trial16.png,,,1,3,redHorizontal,p,76,49,F,2021-02-17_21h38.56.558,exp11,2020.2.6,MacIntel,60,,,,,,,,,,,
,,,,,,,,,,,,,,a,1,1.13,space,0.28,0,155,155,116,1,0_targ_1_dist_red/trial17.png,,,0,1,redHorizontal,a,76,49,F,2021-02-17_21h38.56.558,exp11,2020.2.6,MacIntel,60,,,,,,,,,,,
,,,,,,,,,,,,,,a,1,1.529,space,0.343,0,156,156,175,1,0_targ_16_dist_red/trial1.png,,,0,16,redHorizontal,a,76,49,F,2021-02-17_21h38.56.558,exp11,2020.2.6,MacIntel,60,,,,,,,,,,,
,,,,,,,,,,,,,,p,1,1.281,space,0.285,0,157,157,4,1,0_dist_red/trial5.png,,,1,0,redHorizontal,p,76,49,F,2021-02-17_21h38.56.558,exp11,2020.2.6,MacIntel,60,,,,,,,,,,,
,,,,,,,,,,,,,,p,1,0.767,space,0.331,0,158,158,6,1,0_dist_red/trial7.png,,,1,0,redHorizontal,p,76,49,F,2021-02-17_21h38.56.558,exp11,2020.2.6,MacIntel,60,,,,,,,,,,,
,,,,,,,,,,,,,,a,0,1.279,space,0.252,0,159,159,80,1,15_dist_red/trial6.png,,,1,15,redHorizontal,p,76,49,F,2021-02-17_21h38.56.558,exp11,2020.2.6,MacIntel,60,,,,,,,,,,,
,,,,,,,,,,,,,,p,1,1.2,space,0.537,0,160,160,88,1,15_dist_red/trial14.png,,,1,15,redHorizontal,p,76,49,F,2021-02-17_21h38.56.558,exp11,2020.2.6,MacIntel,60,,,,,,,,,,,
,,,,,,,,,,,,,,a,1,1.018,space,0.399,0,161,161,148,1,0_targ_4_dist_red/trial24.png,,,0,4,redHorizontal,a,76,49,F,2021-02-17_21h38.56.558,exp11,2020.2.6,MacIntel,60,,,,,,,,,,,
,,,,,,,,,,,,,,a,1,1.878,space,0.519,0,162,162,176,1,0_targ_16_dist_red/trial2.png,,,0,16,redHorizontal,a,76,49,F,2021-02-17_21h38.56.558,exp11,2020.2.6,MacIntel,60,,,,,,,,,,,
,,,,,,,,,,,,,,a,1,1.043,space,0.339,0,163,163,133,1,0_targ_4_dist_red/trial9.png,,,0,4,redHorizontal,a,76,49,F,2021-02-17_21h38.56.558,exp11,2020.2.6,MacIntel,60,,,,,,,,,,,
,,,,,,,,,,,,,,a,1,0.845,space,0.24,0,164,164,145,1,0_targ_4_dist_red/trial21.png,,,0,4,redHorizontal,a,76,49,F,2021-02-17_21h38.56.558,exp11,2020.2.6,MacIntel,60,,,,,,,,,,,
,,,,,,,,,,,,,,p,1,0.95,space,0.449,0,165,165,21,1,0_dist_red/trial22.png,,,1,0,redHorizontal,p,76,49,F,2021-02-17_21h38.56.558,exp11,2020.2.6,MacIntel,60,,,,,,,,,,,
,,,,,,,,,,,,,,p,1,0.771,space,0.243,0,166,166,64,1,9_dist_red/trial15.png,,,1,9,redHorizontal,p,76,49,F,2021-02-17_21h38.56.558,exp11,2020.2.6,MacIntel,60,,,,,,,,,,,
,,,,,,,,,,,,,,p,1,0.649,space,0.261,0,167,167,48,1,3_dist_red/trial24.png,,,1,3,redHorizontal,p,76,49,F,2021-02-17_21h38.56.558,exp11,2020.2.6,MacIntel,60,,,,,,,,,,,
,,,,,,,,,,,,,,p,1,1.12,space,0.293,0,168,168,90,1,15_dist_red/trial16.png,,,1,15,redHorizontal,p,76,49,F,2021-02-17_21h38.56.558,exp11,2020.2.6,MacIntel,60,,,,,,,,,,,
,,,,,,,,,,,,,,a,1,1.181,space,0.48,0,169,169,120,1,0_targ_1_dist_red/trial21.png,,,0,1,redHorizontal,a,76,49,F,2021-02-17_21h38.56.558,exp11,2020.2.6,MacIntel,60,,,,,,,,,,,
,,,,,,,,,,,,,,p,1,1.89,space,0.366,0,170,170,84,1,15_dist_red/trial10.png,,,1,15,redHorizontal,p,76,49,F,2021-02-17_21h38.56.558,exp11,2020.2.6,MacIntel,60,,,,,,,,,,,
,,,,,,,,,,,,,,a,1,1.895,space,0.266,0,171,171,166,1,0_targ_10_dist_red/trial17.png,,,0,10,redHorizontal,a,76,49,F,2021-02-17_21h38.56.558,exp11,2020.2.6,MacIntel,60,,,,,,,,,,,
,,,,,,,,,,,,,,p,1,2.004,space,0.225,0,172,172,86,1,15_dist_red/trial12.png,,,1,15,redHorizontal,p,76,49,F,2021-02-17_21h38.56.558,exp11,2020.2.6,MacIntel,60,,,,,,,,,,,
,,,,,,,,,,,,,,a,1,0.964,space,0.298,0,173,173,107,1,0_targ_1_dist_red/trial8.png,,,0,1,redHorizontal,a,76,49,F,2021-02-17_21h38.56.558,exp11,2020.2.6,MacIntel,60,,,,,,,,,,,
,,,,,,,,,,,,,,a,0,0.747,space,2.501,0,174,174,42,1,3_dist_red/trial18.png,,,1,3,redHorizontal,p,76,49,F,2021-02-17_21h38.56.558,exp11,2020.2.6,MacIntel,60,,,,,,,,,,,
,,,,,,,,,,,,,,a,1,1.156,space,0.242,0,175,175,139,1,0_targ_4_dist_red/trial15.png,,,0,4,redHorizontal,a,76,49,F,2021-02-17_21h38.56.558,exp11,2020.2.6,MacIntel,60,,,,,,,,,,,
,,,,,,,,,,,,,,a,1,0.934,space,0.206,0,176,176,141,1,0_targ_4_dist_red/trial17.png,,,0,4,redHorizontal,a,76,49,F,2021-02-17_21h38.56.558,exp11,2020.2.6,MacIntel,60,,,,,,,,,,,
,,,,,,,,,,,,,,p,1,1.642,space,0.572,0,177,177,70,1,9_dist_red/trial21.png,,,1,9,redHorizontal,p,76,49,F,2021-02-17_21h38.56.558,exp11,2020.2.6,MacIntel,60,,,,,,,,,,,
,,,,,,,,,,,,,,a,1,1.363,space,0.902,0,178,178,192,1,0_targ_16_dist_red/trial18.png,,,0,16,redHorizontal,a,76,49,F,2021-02-17_21h38.56.558,exp11,2020.2.6,MacIntel,60,,,,,,,,,,,
,,,,,,,,,,,,,,a,1,0.72,space,0.489,0,179,179,126,1,0_targ_4_dist_red/trial2.png,,,0,4,redHorizontal,a,76,49,F,2021-02-17_21h38.56.558,exp11,2020.2.6,MacIntel,60,,,,,,,,,,,
,,,,,,,,,,,,,,a,1,0.696,space,0.408,0,180,180,140,1,0_targ_4_dist_red/trial6.png,,,0,4,redHorizontal,a,76,49,F,2021-02-17_21h38.56.558,exp11,2020.2.6,MacIntel,60,,,,,,,,,,,
,,,,,,,,,,,,,,a,1,0.706,space,0.391,0,181,181,105,1,0_targ_1_dist_red/trial6.png,,,0,1,redHorizontal,a,76,49,F,2021-02-17_21h38.56.558,exp11,2020.2.6,MacIntel,60,,,,,,,,,,,
,,,,,,,,,,,,,,a,1,0.787,space,0.396,0,182,182,144,1,0_targ_4_dist_red/trial20.png,,,0,4,redHorizontal,a,76,49,F,2021-02-17_21h38.56.558,exp11,2020.2.6,MacIntel,60,,,,,,,,,,,
,,,,,,,,,,,,,,a,1,0.684,space,0.333,0,183,183,104,1,0_targ_1_dist_red/trial5.png,,,0,1,redHorizontal,a,76,49,F,2021-02-17_21h38.56.558,exp11,2020.2.6,MacIntel,60,,,,,,,,,,,
,,,,,,,,,,,,,,a,1,0.506,space,0.378,0,184,184,108,1,0_targ_1_dist_red/trial9.png,,,0,1,redHorizontal,a,76,49,F,2021-02-17_21h38.56.558,exp11,2020.2.6,MacIntel,60,,,,,,,,,,,
,,,,,,,,,,,,,,a,1,0.736,space,0.252,0,185,185,153,1,0_targ_10_dist_red/trial4.png,,,0,10,redHorizontal,a,76,49,F,2021-02-17_21h38.56.558,exp11,2020.2.6,MacIntel,60,,,,,,,,,,,
,,,,,,,,,,,,,,a,1,1.135,space,0.331,0,186,186,121,1,0_targ_1_dist_red/trial22.png,,,0,1,redHorizontal,a,76,49,F,2021-02-17_21h38.56.558,exp11,2020.2.6,MacIntel,60,,,,,,,,,,,
,,,,,,,,,,,,,,p,1,0.98,space,0.544,0,187,187,45,1,3_dist_red/trial21.png,,,1,3,redHorizontal,p,76,49,F,2021-02-17_21h38.56.558,exp11,2020.2.6,MacIntel,60,,,,,,,,,,,
,,,,,,,,,,,,,,a,1,1.355,space,0.354,0,188,188,190,1,0_targ_16_dist_red/trial16.png,,,0,16,redHorizontal,a,76,49,F,2021-02-17_21h38.56.558,exp11,2020.2.6,MacIntel,60,,,,,,,,,,,
,,,,,,,,,,,,,,p,1,1.268,space,0.433,0,189,189,97,1,15_dist_red/trial23.png,,,1,15,redHorizontal,p,76,49,F,2021-02-17_21h38.56.558,exp11,2020.2.6,MacIntel,60,,,,,,,,,,,
,,,,,,,,,,,,,,a,1,1.154,space,0.35,0,190,190,154,1,0_targ_10_dist_red/trial5.png,,,0,10,redHorizontal,a,76,49,F,2021-02-17_21h38.56.558,exp11,2020.2.6,MacIntel,60,,,,,,,,,,,
,,,,,,,,,,,,,,a,1,0.814,space,0.294,0,191,191,150,1,0_targ_10_dist_red/trial1.png,,,0,10,redHorizontal,a,76,49,F,2021-02-17_21h38.56.558,exp11,2020.2.6,MacIntel,60,,,,,,,,,,,
,,,,,,,,,,,,,,p,1,1.791,space,0.83,0,192,192,19,1,0_dist_red/trial20.png,,,1,0,redHorizontal,p,76,49,F,2021-02-17_21h38.56.558,exp11,2020.2.6,MacIntel,60,,,,,,,,,,,
,,,,,,,,,,,,,,p,1,1,space,0.492,0,193,193,56,1,9_dist_red/trial7.png,,,1,9,redHorizontal,p,76,49,F,2021-02-17_21h38.56.558,exp11,2020.2.6,MacIntel,60,,,,,,,,,,,
,,,,,,,,,,,,,,p,1,0.628,space,0.669,0,194,194,8,1,0_dist_red/trial9.png,,,1,0,redHorizontal,p,76,49,F,2021-02-17_21h38.56.558,exp11,2020.2.6,MacIntel,60,,,,,,,,,,,
,,,,,,,,,,,,,,a,1,1.136,space,0.405,0,195,195,143,1,0_targ_4_dist_red/trial19.png,,,0,4,redHorizontal,a,76,49,F,2021-02-17_21h38.56.558,exp11,2020.2.6,MacIntel,60,,,,,,,,,,,
,,,,,,,,,,,,,,a,1,0.653,space,0.284,0,196,196,136,1,0_targ_4_dist_red/trial12.png,,,0,4,redHorizontal,a,76,49,F,2021-02-17_21h38.56.558,exp11,2020.2.6,MacIntel,60,,,,,,,,,,,
,,,,,,,,,,,,,,p,1,1.061,space,0.226,0,197,197,24,1,0_dist_red/trial25.png,,,1,0,redHorizontal,p,76,49,F,2021-02-17_21h38.56.558,exp11,2020.2.6,MacIntel,60,,,,,,,,,,,
,,,,,,,,,,,,,,p,1,1.365,space,0.236,0,198,198,50,1,9_dist_red/trial1.png,,,1,9,redHorizontal,p,76,49,F,2021-02-17_21h38.56.558,exp11,2020.2.6,MacIntel,60,,,,,,,,,,,
,,,,,,,,,,,,,,p,1,0.709,space,0.269,0,199,199,20,1,0_dist_red/trial21.png,,,1,0,redHorizontal,p,76,49,F,2021-02-17_21h38.56.558,exp11,2020.2.6,MacIntel,60,,,,,,,,,,,
,,,,,,,,,,,,,,,,,,,,,,,,,,,,,,,76,49,F,2021-02-17_21h38.56.558,exp11,2020.2.6,MacIntel,60,0,1,1,1,1,conRed.xlsx,red horizontal,Look for red horizontal bar (target) and indicate if it is present or absent in the array. If red horizontal target is present press 'p' and if absent press 'a'. Press SPACE to start.,,,
