key_resp_6.keys,key_resp_6.rt,key_resp_7.keys,key_resp_7.rt,key_resp_8.keys,key_resp_8.rt,key_resp_10.keys,key_resp_10.rt,key_resp_9.keys,key_resp_9.rt,key_resp_3.keys,key_resp_3.rt,key_resp_5.keys,key_resp_5.rt,key_resp.keys,key_resp.corr,key_resp.rt,key_resp_4.keys,key_resp_4.rt,trials.thisRepN,trials.thisTrialN,trials.thisN,trials.thisIndex,trials.ran,ImageFile,tarPos,tarSize,targPres,numDist,targetName,correctAns,participant,age,sex,date,expName,psychopyVersion,OS,frameRate,trials_2.thisRepN,trials_2.thisTrialN,trials_2.thisN,trials_2.thisIndex,trials_2.ran,condsFile,targName,instructionText,colTarget,sizeTarg,posit
space,10.216995,space,34.007235,space,34.280315,space,35.771445,space,14.83365,space,24.447385,space,15.10736,a,1,2.66077,space,5.44795,0,0,0,114,1,0_targ_1_dist_green/trial15.png,,,0,1,greenverival,a,77,48,M,2021-02-17_21h39.07.473,exp11,2020.2.6,MacIntel,60,,,,,,,,,,,
,,,,,,,,,,,,,,p,0,0.77485,space,7.662355,0,1,1,115,1,0_targ_1_dist_green/trial6.png,,,0,1,greenverival,a,77,48,M,2021-02-17_21h39.07.473,exp11,2020.2.6,MacIntel,60,,,,,,,,,,,
,,,,,,,,,,,,,,p,1,2.92491,space,4.922385,0,2,2,70,1,9_dist_green/trial21.png,,,1,9,greenverival,p,77,48,M,2021-02-17_21h39.07.473,exp11,2020.2.6,MacIntel,60,,,,,,,,,,,
,,,,,,,,,,,,,,p,1,1.480875,space,6.097295,0,3,3,35,1,3_dist_green/trial11.png,,,1,3,greenverival,p,77,48,M,2021-02-17_21h39.07.473,exp11,2020.2.6,MacIntel,60,,,,,,,,,,,
,,,,,,,,,,,,,,a,1,2.659595,space,2.783675,0,4,4,185,1,0_targ_16_dist_green/trial11.png,,,0,16,greenverival,a,77,48,M,2021-02-17_21h39.07.473,exp11,2020.2.6,MacIntel,60,,,,,,,,,,,
,,,,,,,,,,,,,,a,1,1.39714,space,0.95974,0,5,5,137,1,0_targ_4_dist_green/trial13.png,,,0,4,greenverival,a,77,48,M,2021-02-17_21h39.07.473,exp11,2020.2.6,MacIntel,60,,,,,,,,,,,
,,,,,,,,,,,,,,p,1,1.012695,space,0.93452,0,6,6,48,1,3_dist_green/trial24.png,,,1,3,greenverival,p,77,48,M,2021-02-17_21h39.07.473,exp11,2020.2.6,MacIntel,60,,,,,,,,,,,
,,,,,,,,,,,,,,a,1,1.61347,space,2.44774,0,7,7,152,1,0_targ_10_dist_green/trial3.png,,,0,10,greenverival,a,77,48,M,2021-02-17_21h39.07.473,exp11,2020.2.6,MacIntel,60,,,,,,,,,,,
,,,,,,,,,,,,,,a,1,3.813725,space,0.8833,0,8,8,157,1,0_targ_10_dist_green/trial8.png,,,0,10,greenverival,a,77,48,M,2021-02-17_21h39.07.473,exp11,2020.2.6,MacIntel,60,,,,,,,,,,,
,,,,,,,,,,,,,,p,1,1.21031,space,0.62492,0,9,9,79,1,15_dist_green/trial5.png,,,1,15,greenverival,p,77,48,M,2021-02-17_21h39.07.473,exp11,2020.2.6,MacIntel,60,,,,,,,,,,,
,,,,,,,,,,,,,,p,1,0.963555,space,0.65367,0,10,10,29,1,3_dist_green/trial5.png,,,1,3,greenverival,p,77,48,M,2021-02-17_21h39.07.473,exp11,2020.2.6,MacIntel,60,,,,,,,,,,,
,,,,,,,,,,,,,,p,1,0.726775,space,0.91753,0,11,11,44,1,3_dist_green/trial20.png,,,1,3,greenverival,p,77,48,M,2021-02-17_21h39.07.473,exp11,2020.2.6,MacIntel,60,,,,,,,,,,,
,,,,,,,,,,,,,,p,1,0.894565,space,0.727735,0,12,12,15,1,0_dist_green/trial16.png,,,1,0,greenverival,p,77,48,M,2021-02-17_21h39.07.473,exp11,2020.2.6,MacIntel,60,,,,,,,,,,,
,,,,,,,,,,,,,,a,1,1.77972,space,0.93767,0,13,13,187,1,0_targ_16_dist_green/trial13.png,,,0,16,greenverival,a,77,48,M,2021-02-17_21h39.07.473,exp11,2020.2.6,MacIntel,60,,,,,,,,,,,
,,,,,,,,,,,,,,p,1,1.06128,space,0.45705,0,14,14,73,1,9_dist_green/trial24.png,,,1,9,greenverival,p,77,48,M,2021-02-17_21h39.07.473,exp11,2020.2.6,MacIntel,60,,,,,,,,,,,
,,,,,,,,,,,,,,p,1,1.2576,space,0.61839,0,15,15,50,1,9_dist_green/trial1.png,,,1,9,greenverival,p,77,48,M,2021-02-17_21h39.07.473,exp11,2020.2.6,MacIntel,60,,,,,,,,,,,
,,,,,,,,,,,,,,p,1,0.932195,space,0.50332,0,16,16,16,1,0_dist_green/trial17.png,,,1,0,greenverival,p,77,48,M,2021-02-17_21h39.07.473,exp11,2020.2.6,MacIntel,60,,,,,,,,,,,
,,,,,,,,,,,,,,p,1,0.948765,space,0.317745,0,17,17,38,1,3_dist_green/trial14.png,,,1,3,greenverival,p,77,48,M,2021-02-17_21h39.07.473,exp11,2020.2.6,MacIntel,60,,,,,,,,,,,
,,,,,,,,,,,,,,a,1,0.8606,space,0.316855,0,18,18,124,1,0_targ_1_dist_green/trial25.png,,,0,1,greenverival,a,77,48,M,2021-02-17_21h39.07.473,exp11,2020.2.6,MacIntel,60,,,,,,,,,,,
,,,,,,,,,,,,,,p,0,1.277695,space,1.0712,0,19,19,176,1,0_targ_16_dist_green/trial2.png,,,0,16,greenverival,a,77,48,M,2021-02-17_21h39.07.473,exp11,2020.2.6,MacIntel,60,,,,,,,,,,,
,,,,,,,,,,,,,,a,1,2.95624,space,1.31811,0,20,20,127,1,0_targ_4_dist_green/trial3.png,,,0,4,greenverival,a,77,48,M,2021-02-17_21h39.07.473,exp11,2020.2.6,MacIntel,60,,,,,,,,,,,
,,,,,,,,,,,,,,p,1,1.19364,space,1.11453,0,21,21,86,1,15_dist_green/trial12.png,,,1,15,greenverival,p,77,48,M,2021-02-17_21h39.07.473,exp11,2020.2.6,MacIntel,60,,,,,,,,,,,
,,,,,,,,,,,,,,a,1,5.328735,space,0.80068,0,22,22,195,1,0_targ_16_dist_green/trial21.png,,,0,16,greenverival,a,77,48,M,2021-02-17_21h39.07.473,exp11,2020.2.6,MacIntel,60,,,,,,,,,,,
,,,,,,,,,,,,,,a,1,1.007795,space,1.6334,0,23,23,138,1,0_targ_4_dist_green/trial14.png,,,0,4,greenverival,a,77,48,M,2021-02-17_21h39.07.473,exp11,2020.2.6,MacIntel,60,,,,,,,,,,,
,,,,,,,,,,,,,,p,1,1.093455,space,1.141105,0,24,24,77,1,15_dist_green/trial3.png,,,1,15,greenverival,p,77,48,M,2021-02-17_21h39.07.473,exp11,2020.2.6,MacIntel,60,,,,,,,,,,,
,,,,,,,,,,,,,,p,1,1.18085,space,0.79159,0,25,25,51,1,9_dist_green/trial2.png,,,1,9,greenverival,p,77,48,M,2021-02-17_21h39.07.473,exp11,2020.2.6,MacIntel,60,,,,,,,,,,,
,,,,,,,,,,,,,,p,1,0.867245,space,0.57759,0,26,26,14,1,0_dist_green/trial15.png,,,1,0,greenverival,p,77,48,M,2021-02-17_21h39.07.473,exp11,2020.2.6,MacIntel,60,,,,,,,,,,,
,,,,,,,,,,,,,,p,1,0.72719,space,0.533825,0,27,27,42,1,3_dist_green/trial18.png,,,1,3,greenverival,p,77,48,M,2021-02-17_21h39.07.473,exp11,2020.2.6,MacIntel,60,,,,,,,,,,,
,,,,,,,,,,,,,,p,1,0.877605,space,0.53978,0,28,28,64,1,9_dist_green/trial15.png,,,1,9,greenverival,p,77,48,M,2021-02-17_21h39.07.473,exp11,2020.2.6,MacIntel,60,,,,,,,,,,,
,,,,,,,,,,,,,,p,1,0.621915,space,0.53698,0,29,29,3,1,0_dist_green/trial4.png,,,1,0,greenverival,p,77,48,M,2021-02-17_21h39.07.473,exp11,2020.2.6,MacIntel,60,,,,,,,,,,,
,,,,,,,,,,,,,,p,1,0.64663,space,0.617135,0,30,30,49,1,3_dist_green/trial25.png,,,1,3,greenverival,p,77,48,M,2021-02-17_21h39.07.473,exp11,2020.2.6,MacIntel,60,,,,,,,,,,,
,,,,,,,,,,,,,,p,1,0.711015,space,0.52363,0,31,31,4,1,0_dist_green/trial5.png,,,1,0,greenverival,p,77,48,M,2021-02-17_21h39.07.473,exp11,2020.2.6,MacIntel,60,,,,,,,,,,,
,,,,,,,,,,,,,,p,1,0.690505,space,0.619065,0,32,32,59,1,9_dist_green/trial10.png,,,1,9,greenverival,p,77,48,M,2021-02-17_21h39.07.473,exp11,2020.2.6,MacIntel,60,,,,,,,,,,,
,,,,,,,,,,,,,,p,1,0.77818,space,0.634165,0,33,33,30,1,3_dist_green/trial6.png,,,1,3,greenverival,p,77,48,M,2021-02-17_21h39.07.473,exp11,2020.2.6,MacIntel,60,,,,,,,,,,,
,,,,,,,,,,,,,,a,1,1.028955,space,0.614385,0,34,34,175,1,0_targ_16_dist_green/trial1.png,,,0,16,greenverival,a,77,48,M,2021-02-17_21h39.07.473,exp11,2020.2.6,MacIntel,60,,,,,,,,,,,
,,,,,,,,,,,,,,a,1,0.857245,space,0.403335,0,35,35,117,1,0_targ_1_dist_green/trial18.png,,,0,1,greenverival,a,77,48,M,2021-02-17_21h39.07.473,exp11,2020.2.6,MacIntel,60,,,,,,,,,,,
,,,,,,,,,,,,,,p,0,2.595565,space,0.134185,0,36,36,194,1,0_targ_16_dist_green/trial20.png,,,0,16,greenverival,a,77,48,M,2021-02-17_21h39.07.473,exp11,2020.2.6,MacIntel,60,,,,,,,,,,,
,,,,,,,,,,,,,,a,1,3.59394,space,0.832545,0,37,37,130,1,0_targ_4_dist_green/trial6.png,,,0,4,greenverival,a,77,48,M,2021-02-17_21h39.07.473,exp11,2020.2.6,MacIntel,60,,,,,,,,,,,
,,,,,,,,,,,,,,a,1,1.271745,space,0.615545,0,38,38,142,1,0_targ_4_dist_green/trial18.png,,,0,4,greenverival,a,77,48,M,2021-02-17_21h39.07.473,exp11,2020.2.6,MacIntel,60,,,,,,,,,,,
,,,,,,,,,,,,,,p,1,0.92826,space,0.951195,0,39,39,53,1,9_dist_green/trial4.png,,,1,9,greenverival,p,77,48,M,2021-02-17_21h39.07.473,exp11,2020.2.6,MacIntel,60,,,,,,,,,,,
,,,,,,,,,,,,,,p,1,1.03298,space,0.76266,0,40,40,72,1,9_dist_green/trial23.png,,,1,9,greenverival,p,77,48,M,2021-02-17_21h39.07.473,exp11,2020.2.6,MacIntel,60,,,,,,,,,,,
,,,,,,,,,,,,,,a,1,2.395365,space,1.157005,0,41,41,165,1,0_targ_10_dist_green/trial16.png,,,0,10,greenverival,a,77,48,M,2021-02-17_21h39.07.473,exp11,2020.2.6,MacIntel,60,,,,,,,,,,,
,,,,,,,,,,,,,,a,1,1.542935,space,0.43392,0,42,42,139,1,0_targ_4_dist_green/trial15.png,,,0,4,greenverival,a,77,48,M,2021-02-17_21h39.07.473,exp11,2020.2.6,MacIntel,60,,,,,,,,,,,
,,,,,,,,,,,,,,a,1,1.02427,space,0.338085,0,43,43,158,1,0_targ_10_dist_green/trial9.png,,,0,10,greenverival,a,77,48,M,2021-02-17_21h39.07.473,exp11,2020.2.6,MacIntel,60,,,,,,,,,,,
,,,,,,,,,,,,,,p,1,0.748085,space,0.28617,0,44,44,39,1,3_dist_green/trial15.png,,,1,3,greenverival,p,77,48,M,2021-02-17_21h39.07.473,exp11,2020.2.6,MacIntel,60,,,,,,,,,,,
,,,,,,,,,,,,,,p,1,0.86149,space,0.182315,0,45,45,26,1,3_dist_green/trial2.png,,,1,3,greenverival,p,77,48,M,2021-02-17_21h39.07.473,exp11,2020.2.6,MacIntel,60,,,,,,,,,,,
,,,,,,,,,,,,,,p,1,0.76255,space,0.233205,0,46,46,57,1,9_dist_green/trial8.png,,,1,9,greenverival,p,77,48,M,2021-02-17_21h39.07.473,exp11,2020.2.6,MacIntel,60,,,,,,,,,,,
,,,,,,,,,,,,,,p,1,0.63971,space,0.241675,0,47,47,97,1,15_dist_green/trial23.png,,,1,15,greenverival,p,77,48,M,2021-02-17_21h39.07.473,exp11,2020.2.6,MacIntel,60,,,,,,,,,,,
,,,,,,,,,,,,,,p,1,0.67638,space,0.20222,0,48,48,41,1,3_dist_green/trial17.png,,,1,3,greenverival,p,77,48,M,2021-02-17_21h39.07.473,exp11,2020.2.6,MacIntel,60,,,,,,,,,,,
,,,,,,,,,,,,,,a,1,1.010755,space,0.31302,0,49,49,120,1,0_targ_1_dist_green/trial21.png,,,0,1,greenverival,a,77,48,M,2021-02-17_21h39.07.473,exp11,2020.2.6,MacIntel,60,,,,,,,,,,,
,,,,,,,,,,,,,,p,1,1.4849,space,0.46872,0,50,50,54,1,9_dist_green/trial5.png,,,1,9,greenverival,p,77,48,M,2021-02-17_21h39.07.473,exp11,2020.2.6,MacIntel,60,,,,,,,,,,,
,,,,,,,,,,,,,,p,1,0.948655,space,0.26961,0,51,51,46,1,3_dist_green/trial22.png,,,1,3,greenverival,p,77,48,M,2021-02-17_21h39.07.473,exp11,2020.2.6,MacIntel,60,,,,,,,,,,,
,,,,,,,,,,,,,,a,1,1.40945,space,0.274935,0,52,52,126,1,0_targ_4_dist_green/trial2.png,,,0,4,greenverival,a,77,48,M,2021-02-17_21h39.07.473,exp11,2020.2.6,MacIntel,60,,,,,,,,,,,
,,,,,,,,,,,,,,p,1,1.11267,space,0.286215,0,53,53,36,1,3_dist_green/trial12.png,,,1,3,greenverival,p,77,48,M,2021-02-17_21h39.07.473,exp11,2020.2.6,MacIntel,60,,,,,,,,,,,
,,,,,,,,,,,,,,p,1,0.792995,space,0.25003,0,54,54,71,1,9_dist_green/trial22.png,,,1,9,greenverival,p,77,48,M,2021-02-17_21h39.07.473,exp11,2020.2.6,MacIntel,60,,,,,,,,,,,
,,,,,,,,,,,,,,p,1,1.021245,space,0.267815,0,55,55,7,1,0_dist_green/trial8.png,,,1,0,greenverival,p,77,48,M,2021-02-17_21h39.07.473,exp11,2020.2.6,MacIntel,60,,,,,,,,,,,
,,,,,,,,,,,,,,p,1,0.659655,space,0.252485,0,56,56,12,1,0_dist_green/trial13.png,,,1,0,greenverival,p,77,48,M,2021-02-17_21h39.07.473,exp11,2020.2.6,MacIntel,60,,,,,,,,,,,
,,,,,,,,,,,,,,p,1,1.113725,space,0.25098,0,57,57,84,1,15_dist_green/trial10.png,,,1,15,greenverival,p,77,48,M,2021-02-17_21h39.07.473,exp11,2020.2.6,MacIntel,60,,,,,,,,,,,
,,,,,,,,,,,,,,p,1,0.678695,space,0.227745,0,58,58,1,1,0_dist_green/trial2.png,,,1,0,greenverival,p,77,48,M,2021-02-17_21h39.07.473,exp11,2020.2.6,MacIntel,60,,,,,,,,,,,
,,,,,,,,,,,,,,p,1,0.67507,space,0.190475,0,59,59,89,1,15_dist_green/trial15.png,,,1,15,greenverival,p,77,48,M,2021-02-17_21h39.07.473,exp11,2020.2.6,MacIntel,60,,,,,,,,,,,
,,,,,,,,,,,,,,a,1,1.345605,space,0.309595,0,60,60,171,1,0_targ_10_dist_green/trial22.png,,,0,10,greenverival,a,77,48,M,2021-02-17_21h39.07.473,exp11,2020.2.6,MacIntel,60,,,,,,,,,,,
,,,,,,,,,,,,,,a,1,0.8975,space,0.28336,0,61,61,119,1,0_targ_1_dist_green/trial20.png,,,0,1,greenverival,a,77,48,M,2021-02-17_21h39.07.473,exp11,2020.2.6,MacIntel,60,,,,,,,,,,,
,,,,,,,,,,,,,,p,1,1.78293,space,0.350155,0,62,62,67,1,9_dist_green/trial18.png,,,1,9,greenverival,p,77,48,M,2021-02-17_21h39.07.473,exp11,2020.2.6,MacIntel,60,,,,,,,,,,,
,,,,,,,,,,,,,,p,1,0.715475,space,0.24866,0,63,63,23,1,0_dist_green/trial24.png,,,1,0,greenverival,p,77,48,M,2021-02-17_21h39.07.473,exp11,2020.2.6,MacIntel,60,,,,,,,,,,,
,,,,,,,,,,,,,,p,1,0.7669,space,0.25139,0,64,64,65,1,9_dist_green/trial16.png,,,1,9,greenverival,p,77,48,M,2021-02-17_21h39.07.473,exp11,2020.2.6,MacIntel,60,,,,,,,,,,,
,,,,,,,,,,,,,,p,1,0.99285,space,0.288145,0,65,65,56,1,9_dist_green/trial7.png,,,1,9,greenverival,p,77,48,M,2021-02-17_21h39.07.473,exp11,2020.2.6,MacIntel,60,,,,,,,,,,,
,,,,,,,,,,,,,,p,1,0.887115,space,0.250595,0,66,66,58,1,9_dist_green/trial9.png,,,1,9,greenverival,p,77,48,M,2021-02-17_21h39.07.473,exp11,2020.2.6,MacIntel,60,,,,,,,,,,,
,,,,,,,,,,,,,,a,1,0.94799,space,0.62495,0,67,67,100,1,0_targ_1_dist_green/trial1.png,,,0,1,greenverival,a,77,48,M,2021-02-17_21h39.07.473,exp11,2020.2.6,MacIntel,60,,,,,,,,,,,
,,,,,,,,,,,,,,a,1,0.91491,space,0.677685,0,68,68,125,1,0_targ_4_dist_green/trial1.png,,,0,4,greenverival,a,77,48,M,2021-02-17_21h39.07.473,exp11,2020.2.6,MacIntel,60,,,,,,,,,,,
,,,,,,,,,,,,,,a,1,1.147255,space,0.306565,0,69,69,144,1,0_targ_4_dist_green/trial20.png,,,0,4,greenverival,a,77,48,M,2021-02-17_21h39.07.473,exp11,2020.2.6,MacIntel,60,,,,,,,,,,,
,,,,,,,,,,,,,,p,0,1.16536,space,0.283855,0,70,70,196,1,0_targ_16_dist_green/trial22.png,,,0,16,greenverival,a,77,48,M,2021-02-17_21h39.07.473,exp11,2020.2.6,MacIntel,60,,,,,,,,,,,
,,,,,,,,,,,,,,a,1,3.02909,space,1.29104,0,71,71,133,1,0_targ_4_dist_green/trial9.png,,,0,4,greenverival,a,77,48,M,2021-02-17_21h39.07.473,exp11,2020.2.6,MacIntel,60,,,,,,,,,,,
,,,,,,,,,,,,,,a,1,1.307695,space,0.73255,0,72,72,150,1,0_targ_10_dist_green/trial1.png,,,0,10,greenverival,a,77,48,M,2021-02-17_21h39.07.473,exp11,2020.2.6,MacIntel,60,,,,,,,,,,,
,,,,,,,,,,,,,,a,1,1.12067,space,0.77156,0,73,73,113,1,0_targ_1_dist_green/trial14.png,,,0,1,greenverival,a,77,48,M,2021-02-17_21h39.07.473,exp11,2020.2.6,MacIntel,60,,,,,,,,,,,
,,,,,,,,,,,,,,p,1,0.978685,space,0.304035,0,74,74,11,1,0_dist_green/trial12.png,,,1,0,greenverival,p,77,48,M,2021-02-17_21h39.07.473,exp11,2020.2.6,MacIntel,60,,,,,,,,,,,
,,,,,,,,,,,,,,a,1,0.82809,space,0.314095,0,75,75,104,1,0_targ_1_dist_green/trial5.png,,,0,1,greenverival,a,77,48,M,2021-02-17_21h39.07.473,exp11,2020.2.6,MacIntel,60,,,,,,,,,,,
,,,,,,,,,,,,,,a,0,0.910825,space,3.4027,0,76,76,28,1,3_dist_green/trial4.png,,,1,3,greenverival,p,77,48,M,2021-02-17_21h39.07.473,exp11,2020.2.6,MacIntel,60,,,,,,,,,,,
,,,,,,,,,,,,,,a,1,2.61102,space,0.77052,0,77,77,131,1,0_targ_4_dist_green/trial7.png,,,0,4,greenverival,a,77,48,M,2021-02-17_21h39.07.473,exp11,2020.2.6,MacIntel,60,,,,,,,,,,,
,,,,,,,,,,,,,,a,1,0.89388,space,0.60356,0,78,78,102,1,0_targ_1_dist_green/trial3.png,,,0,1,greenverival,a,77,48,M,2021-02-17_21h39.07.473,exp11,2020.2.6,MacIntel,60,,,,,,,,,,,
,,,,,,,,,,,,,,p,1,0.894375,space,0.61994,0,79,79,31,1,3_dist_green/trial7.png,,,1,3,greenverival,p,77,48,M,2021-02-17_21h39.07.473,exp11,2020.2.6,MacIntel,60,,,,,,,,,,,
,,,,,,,,,,,,,,p,1,0.912735,space,0.58883,0,80,80,40,1,3_dist_green/trial16.png,,,1,3,greenverival,p,77,48,M,2021-02-17_21h39.07.473,exp11,2020.2.6,MacIntel,60,,,,,,,,,,,
,,,,,,,,,,,,,,p,1,0.75006,space,0.969745,0,81,81,47,1,3_dist_green/trial23.png,,,1,3,greenverival,p,77,48,M,2021-02-17_21h39.07.473,exp11,2020.2.6,MacIntel,60,,,,,,,,,,,
,,,,,,,,,,,,,,p,1,1.294925,space,0.561565,0,82,82,75,1,15_dist_green/trial1.png,,,1,15,greenverival,p,77,48,M,2021-02-17_21h39.07.473,exp11,2020.2.6,MacIntel,60,,,,,,,,,,,
,,,,,,,,,,,,,,a,1,2.345695,space,1.241715,0,83,83,188,1,0_targ_16_dist_green/trial14.png,,,0,16,greenverival,a,77,48,M,2021-02-17_21h39.07.473,exp11,2020.2.6,MacIntel,60,,,,,,,,,,,
,,,,,,,,,,,,,,p,1,0.760405,space,0.75291,0,84,84,8,1,0_dist_green/trial9.png,,,1,0,greenverival,p,77,48,M,2021-02-17_21h39.07.473,exp11,2020.2.6,MacIntel,60,,,,,,,,,,,
,,,,,,,,,,,,,,p,1,0.64702,space,0.684875,0,85,85,18,1,0_dist_green/trial19.png,,,1,0,greenverival,p,77,48,M,2021-02-17_21h39.07.473,exp11,2020.2.6,MacIntel,60,,,,,,,,,,,
,,,,,,,,,,,,,,p,1,0.725725,space,0.625915,0,86,86,10,1,0_dist_green/trial11.png,,,1,0,greenverival,p,77,48,M,2021-02-17_21h39.07.473,exp11,2020.2.6,MacIntel,60,,,,,,,,,,,
,,,,,,,,,,,,,,p,1,0.87949,space,0.667895,0,87,87,68,1,9_dist_green/trial19.png,,,1,9,greenverival,p,77,48,M,2021-02-17_21h39.07.473,exp11,2020.2.6,MacIntel,60,,,,,,,,,,,
,,,,,,,,,,,,,,p,1,0.712905,space,0.621035,0,88,88,60,1,9_dist_green/trial11.png,,,1,9,greenverival,p,77,48,M,2021-02-17_21h39.07.473,exp11,2020.2.6,MacIntel,60,,,,,,,,,,,
,,,,,,,,,,,,,,p,1,0.594125,space,0.60674,0,89,89,92,1,15_dist_green/trial18.png,,,1,15,greenverival,p,77,48,M,2021-02-17_21h39.07.473,exp11,2020.2.6,MacIntel,60,,,,,,,,,,,
,,,,,,,,,,,,,,a,1,0.828325,space,0.484855,0,90,90,162,1,0_targ_10_dist_green/trial13.png,,,0,10,greenverival,a,77,48,M,2021-02-17_21h39.07.473,exp11,2020.2.6,MacIntel,60,,,,,,,,,,,
,,,,,,,,,,,,,,a,1,1.010695,space,0.54338,0,91,91,180,1,0_targ_16_dist_green/trial6.png,,,0,16,greenverival,a,77,48,M,2021-02-17_21h39.07.473,exp11,2020.2.6,MacIntel,60,,,,,,,,,,,
,,,,,,,,,,,,,,p,1,1.191665,space,0.51625,0,92,92,76,1,15_dist_green/trial2.png,,,1,15,greenverival,p,77,48,M,2021-02-17_21h39.07.473,exp11,2020.2.6,MacIntel,60,,,,,,,,,,,
,,,,,,,,,,,,,,p,1,0.928335,space,0.54981,0,93,93,80,1,15_dist_green/trial6.png,,,1,15,greenverival,p,77,48,M,2021-02-17_21h39.07.473,exp11,2020.2.6,MacIntel,60,,,,,,,,,,,
,,,,,,,,,,,,,,a,1,1.82832,space,0.472375,0,94,94,154,1,0_targ_10_dist_green/trial5.png,,,0,10,greenverival,a,77,48,M,2021-02-17_21h39.07.473,exp11,2020.2.6,MacIntel,60,,,,,,,,,,,
,,,,,,,,,,,,,,a,1,1.32158,space,0.350875,0,95,95,111,1,0_targ_1_dist_green/trial12.png,,,0,1,greenverival,a,77,48,M,2021-02-17_21h39.07.473,exp11,2020.2.6,MacIntel,60,,,,,,,,,,,
,,,,,,,,,,,,,,a,1,1.01414,space,0.53331,0,96,96,181,1,0_targ_16_dist_green/trial7.png,,,0,16,greenverival,a,77,48,M,2021-02-17_21h39.07.473,exp11,2020.2.6,MacIntel,60,,,,,,,,,,,
,,,,,,,,,,,,,,p,1,1.26161,space,0.7006,0,97,97,37,1,3_dist_green/trial13.png,,,1,3,greenverival,p,77,48,M,2021-02-17_21h39.07.473,exp11,2020.2.6,MacIntel,60,,,,,,,,,,,
,,,,,,,,,,,,,,a,1,1.179125,space,0.48342,0,98,98,174,1,0_targ_10_dist_green/trial25.png,,,0,10,greenverival,a,77,48,M,2021-02-17_21h39.07.473,exp11,2020.2.6,MacIntel,60,,,,,,,,,,,
,,,,,,,,,,,,,,a,1,0.910765,space,0.46766,0,99,99,123,1,0_targ_1_dist_green/trial24.png,,,0,1,greenverival,a,77,48,M,2021-02-17_21h39.07.473,exp11,2020.2.6,MacIntel,60,,,,,,,,,,,
,,,,,,,,,,,,,,p,1,0.7632,space,0.421675,0,100,100,17,1,0_dist_green/trial18.png,,,1,0,greenverival,p,77,48,M,2021-02-17_21h39.07.473,exp11,2020.2.6,MacIntel,60,,,,,,,,,,,
,,,,,,,,,,,,,,a,1,0.8954,space,0.54954,0,101,101,121,1,0_targ_1_dist_green/trial22.png,,,0,1,greenverival,a,77,48,M,2021-02-17_21h39.07.473,exp11,2020.2.6,MacIntel,60,,,,,,,,,,,
,,,,,,,,,,,,,,p,1,0.995175,space,0.449405,0,102,102,88,1,15_dist_green/trial14.png,,,1,15,greenverival,p,77,48,M,2021-02-17_21h39.07.473,exp11,2020.2.6,MacIntel,60,,,,,,,,,,,
,,,,,,,,,,,,,,p,1,0.83042,space,0.454165,0,103,103,91,1,15_dist_green/trial17.png,,,1,15,greenverival,p,77,48,M,2021-02-17_21h39.07.473,exp11,2020.2.6,MacIntel,60,,,,,,,,,,,
,,,,,,,,,,,,,,a,1,0.79791,space,0.45648,0,104,104,107,1,0_targ_1_dist_green/trial8.png,,,0,1,greenverival,a,77,48,M,2021-02-17_21h39.07.473,exp11,2020.2.6,MacIntel,60,,,,,,,,,,,
,,,,,,,,,,,,,,a,1,0.946395,space,0.41788,0,105,105,148,1,0_targ_4_dist_green/trial24.png,,,0,4,greenverival,a,77,48,M,2021-02-17_21h39.07.473,exp11,2020.2.6,MacIntel,60,,,,,,,,,,,
,,,,,,,,,,,,,,p,0,1.06487,space,0.332605,0,106,106,184,1,0_targ_16_dist_green/trial10.png,,,0,16,greenverival,a,77,48,M,2021-02-17_21h39.07.473,exp11,2020.2.6,MacIntel,60,,,,,,,,,,,
,,,,,,,,,,,,,,p,1,0.69143,space,0.45009,0,107,107,43,1,3_dist_green/trial19.png,,,1,3,greenverival,p,77,48,M,2021-02-17_21h39.07.473,exp11,2020.2.6,MacIntel,60,,,,,,,,,,,
,,,,,,,,,,,,,,p,1,0.777295,space,0.42047,0,108,108,81,1,15_dist_green/trial7.png,,,1,15,greenverival,p,77,48,M,2021-02-17_21h39.07.473,exp11,2020.2.6,MacIntel,60,,,,,,,,,,,
,,,,,,,,,,,,,,a,1,0.79842,space,0.362295,0,109,109,147,1,0_targ_4_dist_green/trial23.png,,,0,4,greenverival,a,77,48,M,2021-02-17_21h39.07.473,exp11,2020.2.6,MacIntel,60,,,,,,,,,,,
,,,,,,,,,,,,,,a,1,3.245925,space,0.850705,0,110,110,193,1,0_targ_16_dist_green/trial19.png,,,0,16,greenverival,a,77,48,M,2021-02-17_21h39.07.473,exp11,2020.2.6,MacIntel,60,,,,,,,,,,,
,,,,,,,,,,,,,,a,1,1.49731,space,0.624085,0,111,111,192,1,0_targ_16_dist_green/trial18.png,,,0,16,greenverival,a,77,48,M,2021-02-17_21h39.07.473,exp11,2020.2.6,MacIntel,60,,,,,,,,,,,
,,,,,,,,,,,,,,a,1,0.860295,space,0.498705,0,112,112,106,1,0_targ_1_dist_green/trial7.png,,,0,1,greenverival,a,77,48,M,2021-02-17_21h39.07.473,exp11,2020.2.6,MacIntel,60,,,,,,,,,,,
,,,,,,,,,,,,,,a,1,0.894805,space,0.55392,0,113,113,149,1,0_targ_4_dist_green/trial25.png,,,0,4,greenverival,a,77,48,M,2021-02-17_21h39.07.473,exp11,2020.2.6,MacIntel,60,,,,,,,,,,,
,,,,,,,,,,,,,,a,1,0.68279,space,0.55178,0,114,114,170,1,0_targ_10_dist_green/trial21.png,,,0,10,greenverival,a,77,48,M,2021-02-17_21h39.07.473,exp11,2020.2.6,MacIntel,60,,,,,,,,,,,
,,,,,,,,,,,,,,a,1,4.46974,space,0.81943,0,115,115,116,1,0_targ_1_dist_green/trial17.png,,,0,1,greenverival,a,77,48,M,2021-02-17_21h39.07.473,exp11,2020.2.6,MacIntel,60,,,,,,,,,,,
,,,,,,,,,,,,,,a,1,3.540845,space,0.48461,0,116,116,198,1,0_targ_16_dist_green/trial24.png,,,0,16,greenverival,a,77,48,M,2021-02-17_21h39.07.473,exp11,2020.2.6,MacIntel,60,,,,,,,,,,,
,,,,,,,,,,,,,,p,1,0.94086,space,0.435635,0,117,117,85,1,15_dist_green/trial11.png,,,1,15,greenverival,p,77,48,M,2021-02-17_21h39.07.473,exp11,2020.2.6,MacIntel,60,,,,,,,,,,,
,,,,,,,,,,,,,,a,1,0.920035,space,0.40043,0,118,118,132,1,0_targ_4_dist_green/trial8.png,,,0,4,greenverival,a,77,48,M,2021-02-17_21h39.07.473,exp11,2020.2.6,MacIntel,60,,,,,,,,,,,
,,,,,,,,,,,,,,a,1,2.61341,space,0.467675,0,119,119,178,1,0_targ_16_dist_green/trial4.png,,,0,16,greenverival,a,77,48,M,2021-02-17_21h39.07.473,exp11,2020.2.6,MacIntel,60,,,,,,,,,,,
,,,,,,,,,,,,,,a,1,0.80456,space,0.55183,0,120,120,166,1,0_targ_10_dist_green/trial17.png,,,0,10,greenverival,a,77,48,M,2021-02-17_21h39.07.473,exp11,2020.2.6,MacIntel,60,,,,,,,,,,,
,,,,,,,,,,,,,,a,1,1.20339,space,0.41691,0,121,121,183,1,0_targ_16_dist_green/trial9.png,,,0,16,greenverival,a,77,48,M,2021-02-17_21h39.07.473,exp11,2020.2.6,MacIntel,60,,,,,,,,,,,
,,,,,,,,,,,,,,a,1,0.711635,space,0.439285,0,122,122,128,1,0_targ_4_dist_green/trial4.png,,,0,4,greenverival,a,77,48,M,2021-02-17_21h39.07.473,exp11,2020.2.6,MacIntel,60,,,,,,,,,,,
,,,,,,,,,,,,,,a,1,0.878695,space,0.486325,0,123,123,168,1,0_targ_10_dist_green/trial19.png,,,0,10,greenverival,a,77,48,M,2021-02-17_21h39.07.473,exp11,2020.2.6,MacIntel,60,,,,,,,,,,,
,,,,,,,,,,,,,,p,1,0.86521,space,0.459775,0,124,124,6,1,0_dist_green/trial7.png,,,1,0,greenverival,p,77,48,M,2021-02-17_21h39.07.473,exp11,2020.2.6,MacIntel,60,,,,,,,,,,,
,,,,,,,,,,,,,,p,1,0.643475,space,0.4343,0,125,125,5,1,0_dist_green/trial6.png,,,1,0,greenverival,p,77,48,M,2021-02-17_21h39.07.473,exp11,2020.2.6,MacIntel,60,,,,,,,,,,,
,,,,,,,,,,,,,,p,1,0.61273,space,0.421105,0,126,126,0,1,0_dist_green/trial1.png,,,1,0,greenverival,p,77,48,M,2021-02-17_21h39.07.473,exp11,2020.2.6,MacIntel,60,,,,,,,,,,,
,,,,,,,,,,,,,,p,1,0.91438,space,0.399695,0,127,127,33,1,3_dist_green/trial9.png,,,1,3,greenverival,p,77,48,M,2021-02-17_21h39.07.473,exp11,2020.2.6,MacIntel,60,,,,,,,,,,,
,,,,,,,,,,,,,,a,1,1.029025,space,0.46665,0,128,128,156,1,0_targ_10_dist_green/trial7.png,,,0,10,greenverival,a,77,48,M,2021-02-17_21h39.07.473,exp11,2020.2.6,MacIntel,60,,,,,,,,,,,
,,,,,,,,,,,,,,a,1,0.849045,space,0.46504,0,129,129,145,1,0_targ_4_dist_green/trial21.png,,,0,4,greenverival,a,77,48,M,2021-02-17_21h39.07.473,exp11,2020.2.6,MacIntel,60,,,,,,,,,,,
,,,,,,,,,,,,,,a,1,1.012395,space,0.41135,0,130,130,108,1,0_targ_1_dist_green/trial9.png,,,0,1,greenverival,a,77,48,M,2021-02-17_21h39.07.473,exp11,2020.2.6,MacIntel,60,,,,,,,,,,,
,,,,,,,,,,,,,,a,1,0.87281,space,0.370995,0,131,131,179,1,0_targ_16_dist_green/trial5.png,,,0,16,greenverival,a,77,48,M,2021-02-17_21h39.07.473,exp11,2020.2.6,MacIntel,60,,,,,,,,,,,
,,,,,,,,,,,,,,p,1,0.897775,space,0.384645,0,132,132,90,1,15_dist_green/trial16.png,,,1,15,greenverival,p,77,48,M,2021-02-17_21h39.07.473,exp11,2020.2.6,MacIntel,60,,,,,,,,,,,
,,,,,,,,,,,,,,p,1,1.09562,space,0.34454,0,133,133,45,1,3_dist_green/trial21.png,,,1,3,greenverival,p,77,48,M,2021-02-17_21h39.07.473,exp11,2020.2.6,MacIntel,60,,,,,,,,,,,
,,,,,,,,,,,,,,a,1,1.362165,space,0.383075,0,134,134,122,1,0_targ_1_dist_green/trial23.png,,,0,1,greenverival,a,77,48,M,2021-02-17_21h39.07.473,exp11,2020.2.6,MacIntel,60,,,,,,,,,,,
,,,,,,,,,,,,,,p,1,0.81643,space,0.533955,0,135,135,66,1,9_dist_green/trial17.png,,,1,9,greenverival,p,77,48,M,2021-02-17_21h39.07.473,exp11,2020.2.6,MacIntel,60,,,,,,,,,,,
,,,,,,,,,,,,,,p,1,0.767585,space,0.415045,0,136,136,27,1,3_dist_green/trial3.png,,,1,3,greenverival,p,77,48,M,2021-02-17_21h39.07.473,exp11,2020.2.6,MacIntel,60,,,,,,,,,,,
,,,,,,,,,,,,,,a,1,1.460875,space,0.38621,0,137,137,161,1,0_targ_10_dist_green/trial12.png,,,0,10,greenverival,a,77,48,M,2021-02-17_21h39.07.473,exp11,2020.2.6,MacIntel,60,,,,,,,,,,,
,,,,,,,,,,,,,,a,1,0.830005,space,0.54852,0,138,138,134,1,0_targ_4_dist_green/trial10.png,,,0,4,greenverival,a,77,48,M,2021-02-17_21h39.07.473,exp11,2020.2.6,MacIntel,60,,,,,,,,,,,
,,,,,,,,,,,,,,a,1,0.710075,space,0.398565,0,139,139,169,1,0_targ_10_dist_green/trial20.png,,,0,10,greenverival,a,77,48,M,2021-02-17_21h39.07.473,exp11,2020.2.6,MacIntel,60,,,,,,,,,,,
,,,,,,,,,,,,,,a,1,0.631915,space,0.36405,0,140,140,163,1,0_targ_10_dist_green/trial14.png,,,0,10,greenverival,a,77,48,M,2021-02-17_21h39.07.473,exp11,2020.2.6,MacIntel,60,,,,,,,,,,,
,,,,,,,,,,,,,,a,1,0.65851,space,0.314415,0,141,141,155,1,0_targ_10_dist_green/trial6.png,,,0,10,greenverival,a,77,48,M,2021-02-17_21h39.07.473,exp11,2020.2.6,MacIntel,60,,,,,,,,,,,
,,,,,,,,,,,,,,a,0,0.827835,space,0.07022,0,142,142,95,1,15_dist_green/trial21.png,,,1,15,greenverival,p,77,48,M,2021-02-17_21h39.07.473,exp11,2020.2.6,MacIntel,60,,,,,,,,,,,
,,,,,,,,,,,,,,p,1,1.077245,space,0.350875,0,143,143,99,1,15_dist_green/trial25.png,,,1,15,greenverival,p,77,48,M,2021-02-17_21h39.07.473,exp11,2020.2.6,MacIntel,60,,,,,,,,,,,
,,,,,,,,,,,,,,a,1,0.96144,space,0.302805,0,144,144,164,1,0_targ_10_dist_green/trial15.png,,,0,10,greenverival,a,77,48,M,2021-02-17_21h39.07.473,exp11,2020.2.6,MacIntel,60,,,,,,,,,,,
,,,,,,,,,,,,,,a,1,0.812825,space,0.25352,0,145,145,172,1,0_targ_10_dist_green/trial23.png,,,0,10,greenverival,a,77,48,M,2021-02-17_21h39.07.473,exp11,2020.2.6,MacIntel,60,,,,,,,,,,,
,,,,,,,,,,,,,,a,1,0.83426,space,0.253145,0,146,146,182,1,0_targ_16_dist_green/trial8.png,,,0,16,greenverival,a,77,48,M,2021-02-17_21h39.07.473,exp11,2020.2.6,MacIntel,60,,,,,,,,,,,
,,,,,,,,,,,,,,a,1,1.127175,space,0.350255,0,147,147,167,1,0_targ_10_dist_green/trial18.png,,,0,10,greenverival,a,77,48,M,2021-02-17_21h39.07.473,exp11,2020.2.6,MacIntel,60,,,,,,,,,,,
,,,,,,,,,,,,,,a,1,1.177065,space,0.3298,0,148,148,118,1,0_targ_1_dist_green/trial19.png,,,0,1,greenverival,a,77,48,M,2021-02-17_21h39.07.473,exp11,2020.2.6,MacIntel,60,,,,,,,,,,,
,,,,,,,,,,,,,,p,1,0.89457,space,0.682455,0,149,149,22,1,0_dist_green/trial23.png,,,1,0,greenverival,p,77,48,M,2021-02-17_21h39.07.473,exp11,2020.2.6,MacIntel,60,,,,,,,,,,,
,,,,,,,,,,,,,,a,1,0.86012,space,0.455595,0,150,150,143,1,0_targ_4_dist_green/trial19.png,,,0,4,greenverival,a,77,48,M,2021-02-17_21h39.07.473,exp11,2020.2.6,MacIntel,60,,,,,,,,,,,
,,,,,,,,,,,,,,p,1,0.784245,space,0.66498,0,151,151,96,1,15_dist_green/trial22.png,,,1,15,greenverival,p,77,48,M,2021-02-17_21h39.07.473,exp11,2020.2.6,MacIntel,60,,,,,,,,,,,
,,,,,,,,,,,,,,p,1,1.086565,space,0.416775,0,152,152,82,1,15_dist_green/trial8.png,,,1,15,greenverival,p,77,48,M,2021-02-17_21h39.07.473,exp11,2020.2.6,MacIntel,60,,,,,,,,,,,
,,,,,,,,,,,,,,p,1,0.68126,space,0.40781,0,153,153,74,1,9_dist_green/trial25.png,,,1,9,greenverival,p,77,48,M,2021-02-17_21h39.07.473,exp11,2020.2.6,MacIntel,60,,,,,,,,,,,
,,,,,,,,,,,,,,p,1,0.897195,space,0.37475,0,154,154,83,1,15_dist_green/trial9.png,,,1,15,greenverival,p,77,48,M,2021-02-17_21h39.07.473,exp11,2020.2.6,MacIntel,60,,,,,,,,,,,
,,,,,,,,,,,,,,p,1,0.810585,space,0.364305,0,155,155,34,1,3_dist_green/trial10.png,,,1,3,greenverival,p,77,48,M,2021-02-17_21h39.07.473,exp11,2020.2.6,MacIntel,60,,,,,,,,,,,
,,,,,,,,,,,,,,a,1,1.078395,space,0.3678,0,156,156,191,1,0_targ_16_dist_green/trial17.png,,,0,16,greenverival,a,77,48,M,2021-02-17_21h39.07.473,exp11,2020.2.6,MacIntel,60,,,,,,,,,,,
,,,,,,,,,,,,,,p,1,0.809775,space,0.36672,0,157,157,93,1,15_dist_green/trial19.png,,,1,15,greenverival,p,77,48,M,2021-02-17_21h39.07.473,exp11,2020.2.6,MacIntel,60,,,,,,,,,,,
,,,,,,,,,,,,,,a,1,2.411985,space,1.23765,0,158,158,177,1,0_targ_16_dist_green/trial3.png,,,0,16,greenverival,a,77,48,M,2021-02-17_21h39.07.473,exp11,2020.2.6,MacIntel,60,,,,,,,,,,,
,,,,,,,,,,,,,,p,1,0.59422,space,0.316535,0,159,159,9,1,0_dist_green/trial10.png,,,1,0,greenverival,p,77,48,M,2021-02-17_21h39.07.473,exp11,2020.2.6,MacIntel,60,,,,,,,,,,,
,,,,,,,,,,,,,,a,1,0.8082,space,0.282735,0,160,160,146,1,0_targ_4_dist_green/trial22.png,,,0,4,greenverival,a,77,48,M,2021-02-17_21h39.07.473,exp11,2020.2.6,MacIntel,60,,,,,,,,,,,
,,,,,,,,,,,,,,a,1,0.80154,space,0.26783,0,161,161,110,1,0_targ_1_dist_green/trial11.png,,,0,1,greenverival,a,77,48,M,2021-02-17_21h39.07.473,exp11,2020.2.6,MacIntel,60,,,,,,,,,,,
,,,,,,,,,,,,,,a,0,0.56961,space,0.01927,0,162,162,2,1,0_dist_green/trial3.png,,,1,0,greenverival,p,77,48,M,2021-02-17_21h39.07.473,exp11,2020.2.6,MacIntel,60,,,,,,,,,,,
,,,,,,,,,,,,,,p,1,0.70915,space,0.400465,0,163,163,13,1,0_dist_green/trial14.png,,,1,0,greenverival,p,77,48,M,2021-02-17_21h39.07.473,exp11,2020.2.6,MacIntel,60,,,,,,,,,,,
,,,,,,,,,,,,,,a,1,1.144335,space,0.27224,0,164,164,153,1,0_targ_10_dist_green/trial4.png,,,0,10,greenverival,a,77,48,M,2021-02-17_21h39.07.473,exp11,2020.2.6,MacIntel,60,,,,,,,,,,,
,,,,,,,,,,,,,,p,1,1.196085,space,0.32319,0,165,165,55,1,9_dist_green/trial6.png,,,1,9,greenverival,p,77,48,M,2021-02-17_21h39.07.473,exp11,2020.2.6,MacIntel,60,,,,,,,,,,,
,,,,,,,,,,,,,,a,1,1.092745,space,0.351295,0,166,166,105,1,0_targ_1_dist_green/trial6.png,,,0,1,greenverival,a,77,48,M,2021-02-17_21h39.07.473,exp11,2020.2.6,MacIntel,60,,,,,,,,,,,
,,,,,,,,,,,,,,p,1,0.696955,space,0.332615,0,167,167,63,1,9_dist_green/trial14.png,,,1,9,greenverival,p,77,48,M,2021-02-17_21h39.07.473,exp11,2020.2.6,MacIntel,60,,,,,,,,,,,
,,,,,,,,,,,,,,p,1,1.80595,space,0.26589,0,168,168,78,1,15_dist_green/trial4.png,,,1,15,greenverival,p,77,48,M,2021-02-17_21h39.07.473,exp11,2020.2.6,MacIntel,60,,,,,,,,,,,
,,,,,,,,,,,,,,a,1,0.80407,space,0.252505,0,169,169,103,1,0_targ_1_dist_green/trial4.png,,,0,1,greenverival,a,77,48,M,2021-02-17_21h39.07.473,exp11,2020.2.6,MacIntel,60,,,,,,,,,,,
,,,,,,,,,,,,,,a,1,0.71079,space,0.26714,0,170,170,101,1,0_targ_1_dist_green/trial2.png,,,0,1,greenverival,a,77,48,M,2021-02-17_21h39.07.473,exp11,2020.2.6,MacIntel,60,,,,,,,,,,,
,,,,,,,,,,,,,,a,1,1.160215,space,0.219025,0,171,171,159,1,0_targ_10_dist_green/trial10.png,,,0,10,greenverival,a,77,48,M,2021-02-17_21h39.07.473,exp11,2020.2.6,MacIntel,60,,,,,,,,,,,
,,,,,,,,,,,,,,a,1,0.625515,space,0.20522,0,172,172,140,1,0_targ_4_dist_green/trial6.png,,,0,4,greenverival,a,77,48,M,2021-02-17_21h39.07.473,exp11,2020.2.6,MacIntel,60,,,,,,,,,,,
,,,,,,,,,,,,,,p,1,0.69725,space,0.33573,0,173,173,87,1,15_dist_green/trial13.png,,,1,15,greenverival,p,77,48,M,2021-02-17_21h39.07.473,exp11,2020.2.6,MacIntel,60,,,,,,,,,,,
,,,,,,,,,,,,,,a,1,0.843415,space,0.28444,0,174,174,190,1,0_targ_16_dist_green/trial16.png,,,0,16,greenverival,a,77,48,M,2021-02-17_21h39.07.473,exp11,2020.2.6,MacIntel,60,,,,,,,,,,,
,,,,,,,,,,,,,,p,1,0.70882,space,0.304675,0,175,175,19,1,0_dist_green/trial20.png,,,1,0,greenverival,p,77,48,M,2021-02-17_21h39.07.473,exp11,2020.2.6,MacIntel,60,,,,,,,,,,,
,,,,,,,,,,,,,,p,0,1.443505,space,0.76957,0,176,176,197,1,0_targ_16_dist_green/trial23.png,,,0,16,greenverival,a,77,48,M,2021-02-17_21h39.07.473,exp11,2020.2.6,MacIntel,60,,,,,,,,,,,
,,,,,,,,,,,,,,p,1,1.02964,space,0.233,0,177,177,62,1,9_dist_green/trial13.png,,,1,9,greenverival,p,77,48,M,2021-02-17_21h39.07.473,exp11,2020.2.6,MacIntel,60,,,,,,,,,,,
,,,,,,,,,,,,,,p,1,0.87782,space,0.233915,0,178,178,21,1,0_dist_green/trial22.png,,,1,0,greenverival,p,77,48,M,2021-02-17_21h39.07.473,exp11,2020.2.6,MacIntel,60,,,,,,,,,,,
,,,,,,,,,,,,,,a,1,1.528695,space,0.366985,0,179,179,160,1,0_targ_10_dist_green/trial11.png,,,0,10,greenverival,a,77,48,M,2021-02-17_21h39.07.473,exp11,2020.2.6,MacIntel,60,,,,,,,,,,,
,,,,,,,,,,,,,,p,1,0.809245,space,0.250055,0,180,180,69,1,9_dist_green/trial20.png,,,1,9,greenverival,p,77,48,M,2021-02-17_21h39.07.473,exp11,2020.2.6,MacIntel,60,,,,,,,,,,,
,,,,,,,,,,,,,,a,1,0.81141,space,0.267745,0,181,181,129,1,0_targ_4_dist_green/trial5.png,,,0,4,greenverival,a,77,48,M,2021-02-17_21h39.07.473,exp11,2020.2.6,MacIntel,60,,,,,,,,,,,
,,,,,,,,,,,,,,a,1,0.83021,space,0.28406,0,182,182,136,1,0_targ_4_dist_green/trial12.png,,,0,4,greenverival,a,77,48,M,2021-02-17_21h39.07.473,exp11,2020.2.6,MacIntel,60,,,,,,,,,,,
,,,,,,,,,,,,,,p,1,0.81689,space,0.286845,0,183,183,52,1,9_dist_green/trial3.png,,,1,9,greenverival,p,77,48,M,2021-02-17_21h39.07.473,exp11,2020.2.6,MacIntel,60,,,,,,,,,,,
,,,,,,,,,,,,,,a,1,0.828735,space,0.244375,0,184,184,186,1,0_targ_16_dist_green/trial12.png,,,0,16,greenverival,a,77,48,M,2021-02-17_21h39.07.473,exp11,2020.2.6,MacIntel,60,,,,,,,,,,,
,,,,,,,,,,,,,,a,1,0.691865,space,0.230045,0,185,185,109,1,0_targ_1_dist_green/trial10.png,,,0,1,greenverival,a,77,48,M,2021-02-17_21h39.07.473,exp11,2020.2.6,MacIntel,60,,,,,,,,,,,
,,,,,,,,,,,,,,a,1,1.31911,space,0.31687,0,186,186,112,1,0_targ_1_dist_green/trial13.png,,,0,1,greenverival,a,77,48,M,2021-02-17_21h39.07.473,exp11,2020.2.6,MacIntel,60,,,,,,,,,,,
,,,,,,,,,,,,,,a,1,0.974545,space,0.24941,0,187,187,141,1,0_targ_4_dist_green/trial17.png,,,0,4,greenverival,a,77,48,M,2021-02-17_21h39.07.473,exp11,2020.2.6,MacIntel,60,,,,,,,,,,,
,,,,,,,,,,,,,,p,1,1.16092,space,0.282315,0,188,188,32,1,3_dist_green/trial8.png,,,1,3,greenverival,p,77,48,M,2021-02-17_21h39.07.473,exp11,2020.2.6,MacIntel,60,,,,,,,,,,,
,,,,,,,,,,,,,,a,1,0.943485,space,0.31739,0,189,189,135,1,0_targ_4_dist_green/trial11.png,,,0,4,greenverival,a,77,48,M,2021-02-17_21h39.07.473,exp11,2020.2.6,MacIntel,60,,,,,,,,,,,
,,,,,,,,,,,,,,p,1,0.73211,space,0.28601,0,190,190,94,1,15_dist_green/trial20.png,,,1,15,greenverival,p,77,48,M,2021-02-17_21h39.07.473,exp11,2020.2.6,MacIntel,60,,,,,,,,,,,
,,,,,,,,,,,,,,a,1,0.897505,space,0.332405,0,191,191,199,1,0_targ_16_dist_green/trial25.png,,,0,16,greenverival,a,77,48,M,2021-02-17_21h39.07.473,exp11,2020.2.6,MacIntel,60,,,,,,,,,,,
,,,,,,,,,,,,,,p,1,0.678595,space,0.31532,0,192,192,61,1,9_dist_green/trial12.png,,,1,9,greenverival,p,77,48,M,2021-02-17_21h39.07.473,exp11,2020.2.6,MacIntel,60,,,,,,,,,,,
,,,,,,,,,,,,,,p,1,0.944535,space,0.304845,0,193,193,98,1,15_dist_green/trial24.png,,,1,15,greenverival,p,77,48,M,2021-02-17_21h39.07.473,exp11,2020.2.6,MacIntel,60,,,,,,,,,,,
,,,,,,,,,,,,,,a,1,0.93747,space,0.27066,0,194,194,189,1,0_targ_16_dist_green/trial15.png,,,0,16,greenverival,a,77,48,M,2021-02-17_21h39.07.473,exp11,2020.2.6,MacIntel,60,,,,,,,,,,,
,,,,,,,,,,,,,,p,1,0.64299,space,0.288025,0,195,195,20,1,0_dist_green/trial21.png,,,1,0,greenverival,p,77,48,M,2021-02-17_21h39.07.473,exp11,2020.2.6,MacIntel,60,,,,,,,,,,,
,,,,,,,,,,,,,,a,1,0.87702,space,0.25923,0,196,196,151,1,0_targ_10_dist_green/trial2.png,,,0,10,greenverival,a,77,48,M,2021-02-17_21h39.07.473,exp11,2020.2.6,MacIntel,60,,,,,,,,,,,
,,,,,,,,,,,,,,p,1,1.062805,space,0.28253,0,197,197,25,1,3_dist_green/trial1.png,,,1,3,greenverival,p,77,48,M,2021-02-17_21h39.07.473,exp11,2020.2.6,MacIntel,60,,,,,,,,,,,
,,,,,,,,,,,,,,a,1,0.89416,space,0.26647,0,198,198,173,1,0_targ_10_dist_green/trial24.png,,,0,10,greenverival,a,77,48,M,2021-02-17_21h39.07.473,exp11,2020.2.6,MacIntel,60,,,,,,,,,,,
,,,,,,,,,,,,,,p,1,0.612315,space,0.851605,0,199,199,24,1,0_dist_green/trial25.png,,,1,0,greenverival,p,77,48,M,2021-02-17_21h39.07.473,exp11,2020.2.6,MacIntel,60,,,,,,,,,,,
,,,,,,,,,,,,,,,,,,,,,,,,,,,,,,,77,48,M,2021-02-17_21h39.07.473,exp11,2020.2.6,MacIntel,60,0,0,0,0,1,conGreen.xlsx,green vertical,Look for green vertical bar (target) and indicate if it is present or absent in the array. If green vertical target is present press 'p' and if absent press 'a'. Press SPACE to start.,,,
,,,,,,,,,,space,17.66713,space,22.551885,a,1,1.53747,space,1.852025,0,0,0,140,1,0_targ_4_dist_red/trial6.png,,,0,4,redHorizontal,a,77,48,M,2021-02-17_21h39.07.473,exp11,2020.2.6,MacIntel,60,,,,,,,,,,,
,,,,,,,,,,,,,,a,1,2.631965,space,0.66256,0,1,1,164,1,0_targ_10_dist_red/trial15.png,,,0,10,redHorizontal,a,77,48,M,2021-02-17_21h39.07.473,exp11,2020.2.6,MacIntel,60,,,,,,,,,,,
,,,,,,,,,,,,,,a,1,1.180085,space,0.50342,0,2,2,153,1,0_targ_10_dist_red/trial4.png,,,0,10,redHorizontal,a,77,48,M,2021-02-17_21h39.07.473,exp11,2020.2.6,MacIntel,60,,,,,,,,,,,
,,,,,,,,,,,,,,a,1,0.979625,space,0.438385,0,3,3,160,1,0_targ_10_dist_red/trial11.png,,,0,10,redHorizontal,a,77,48,M,2021-02-17_21h39.07.473,exp11,2020.2.6,MacIntel,60,,,,,,,,,,,
,,,,,,,,,,,,,,p,1,1.642205,space,0.834205,0,4,4,79,1,15_dist_red/trial5.png,,,1,15,redHorizontal,p,77,48,M,2021-02-17_21h39.07.473,exp11,2020.2.6,MacIntel,60,,,,,,,,,,,
,,,,,,,,,,,,,,a,1,1.21484,space,0.617035,0,5,5,173,1,0_targ_10_dist_red/trial24.png,,,0,10,redHorizontal,a,77,48,M,2021-02-17_21h39.07.473,exp11,2020.2.6,MacIntel,60,,,,,,,,,,,
,,,,,,,,,,,,,,a,1,0.93168,space,0.55445,0,6,6,176,1,0_targ_16_dist_red/trial2.png,,,0,16,redHorizontal,a,77,48,M,2021-02-17_21h39.07.473,exp11,2020.2.6,MacIntel,60,,,,,,,,,,,
,,,,,,,,,,,,,,a,1,0.67687,space,0.53564,0,7,7,104,1,0_targ_1_dist_red/trial5.png,,,0,1,redHorizontal,a,77,48,M,2021-02-17_21h39.07.473,exp11,2020.2.6,MacIntel,60,,,,,,,,,,,
,,,,,,,,,,,,,,p,1,1.07829,space,0.36738,0,8,8,71,1,9_dist_red/trial22.png,,,1,9,redHorizontal,p,77,48,M,2021-02-17_21h39.07.473,exp11,2020.2.6,MacIntel,60,,,,,,,,,,,
,,,,,,,,,,,,,,p,1,0.99015,space,0.3137,0,9,9,74,1,9_dist_red/trial25.png,,,1,9,redHorizontal,p,77,48,M,2021-02-17_21h39.07.473,exp11,2020.2.6,MacIntel,60,,,,,,,,,,,
,,,,,,,,,,,,,,a,1,0.82388,space,0.31772,0,10,10,111,1,0_targ_1_dist_red/trial12.png,,,0,1,redHorizontal,a,77,48,M,2021-02-17_21h39.07.473,exp11,2020.2.6,MacIntel,60,,,,,,,,,,,
,,,,,,,,,,,,,,p,1,1.046855,space,0.33166,0,11,11,13,1,0_dist_red/trial14.png,,,1,0,redHorizontal,p,77,48,M,2021-02-17_21h39.07.473,exp11,2020.2.6,MacIntel,60,,,,,,,,,,,
,,,,,,,,,,,,,,p,1,1.495685,space,0.384205,0,12,12,84,1,15_dist_red/trial10.png,,,1,15,redHorizontal,p,77,48,M,2021-02-17_21h39.07.473,exp11,2020.2.6,MacIntel,60,,,,,,,,,,,
,,,,,,,,,,,,,,a,1,2.362065,space,0.943585,0,13,13,142,1,0_targ_4_dist_red/trial18.png,,,0,4,redHorizontal,a,77,48,M,2021-02-17_21h39.07.473,exp11,2020.2.6,MacIntel,60,,,,,,,,,,,
,,,,,,,,,,,,,,a,1,2.328145,space,0.537825,0,14,14,120,1,0_targ_1_dist_red/trial21.png,,,0,1,redHorizontal,a,77,48,M,2021-02-17_21h39.07.473,exp11,2020.2.6,MacIntel,60,,,,,,,,,,,
,,,,,,,,,,,,,,a,0,12.747965,space,0.800665,0,15,15,21,1,0_dist_red/trial22.png,,,1,0,redHorizontal,p,77,48,M,2021-02-17_21h39.07.473,exp11,2020.2.6,MacIntel,60,,,,,,,,,,,
,,,,,,,,,,,,,,p,0,4.384455,space,0.012845,0,16,16,102,1,0_targ_1_dist_red/trial3.png,,,0,1,redHorizontal,a,77,48,M,2021-02-17_21h39.07.473,exp11,2020.2.6,MacIntel,60,,,,,,,,,,,
,,,,,,,,,,,,,,p,0,2.477855,space,0.437475,0,17,17,119,1,0_targ_1_dist_red/trial20.png,,,0,1,redHorizontal,a,77,48,M,2021-02-17_21h39.07.473,exp11,2020.2.6,MacIntel,60,,,,,,,,,,,
,,,,,,,,,,,,,,a,0,4.84133,space,0.000465,0,18,18,85,1,15_dist_red/trial11.png,,,1,15,redHorizontal,p,77,48,M,2021-02-17_21h39.07.473,exp11,2020.2.6,MacIntel,60,,,,,,,,,,,
,,,,,,,,,,,,,,p,1,0.764405,space,1.7243,0,19,19,55,1,9_dist_red/trial6.png,,,1,9,redHorizontal,p,77,48,M,2021-02-17_21h39.07.473,exp11,2020.2.6,MacIntel,60,,,,,,,,,,,
,,,,,,,,,,,,,,p,0,0.77686,space,1.3503,0,20,20,141,1,0_targ_4_dist_red/trial17.png,,,0,4,redHorizontal,a,77,48,M,2021-02-17_21h39.07.473,exp11,2020.2.6,MacIntel,60,,,,,,,,,,,
,,,,,,,,,,,,,,p,1,4.67832,space,0.935895,0,21,21,26,1,3_dist_red/trial2.png,,,1,3,redHorizontal,p,77,48,M,2021-02-17_21h39.07.473,exp11,2020.2.6,MacIntel,60,,,,,,,,,,,
,,,,,,,,,,,,,,p,1,1.392315,space,0.69835,0,22,22,34,1,3_dist_red/trial10.png,,,1,3,redHorizontal,p,77,48,M,2021-02-17_21h39.07.473,exp11,2020.2.6,MacIntel,60,,,,,,,,,,,
,,,,,,,,,,,,,,p,1,1.312415,space,0.889925,0,23,23,20,1,0_dist_red/trial21.png,,,1,0,redHorizontal,p,77,48,M,2021-02-17_21h39.07.473,exp11,2020.2.6,MacIntel,60,,,,,,,,,,,
,,,,,,,,,,,,,,a,1,1.547525,space,0.733515,0,24,24,181,1,0_targ_16_dist_red/trial7.png,,,0,16,redHorizontal,a,77,48,M,2021-02-17_21h39.07.473,exp11,2020.2.6,MacIntel,60,,,,,,,,,,,
,,,,,,,,,,,,,,a,1,2.02814,space,0.58835,0,25,25,143,1,0_targ_4_dist_red/trial19.png,,,0,4,redHorizontal,a,77,48,M,2021-02-17_21h39.07.473,exp11,2020.2.6,MacIntel,60,,,,,,,,,,,
,,,,,,,,,,,,,,a,1,0.911615,space,0.603175,0,26,26,110,1,0_targ_1_dist_red/trial11.png,,,0,1,redHorizontal,a,77,48,M,2021-02-17_21h39.07.473,exp11,2020.2.6,MacIntel,60,,,,,,,,,,,
,,,,,,,,,,,,,,a,1,1.36467,space,0.31534,0,27,27,133,1,0_targ_4_dist_red/trial9.png,,,0,4,redHorizontal,a,77,48,M,2021-02-17_21h39.07.473,exp11,2020.2.6,MacIntel,60,,,,,,,,,,,
,,,,,,,,,,,,,,a,1,1.44436,space,2.11308,0,28,28,159,1,0_targ_10_dist_red/trial10.png,,,0,10,redHorizontal,a,77,48,M,2021-02-17_21h39.07.473,exp11,2020.2.6,MacIntel,60,,,,,,,,,,,
,,,,,,,,,,,,,,a,1,1.72922,space,0.549435,0,29,29,121,1,0_targ_1_dist_red/trial22.png,,,0,1,redHorizontal,a,77,48,M,2021-02-17_21h39.07.473,exp11,2020.2.6,MacIntel,60,,,,,,,,,,,
,,,,,,,,,,,,,,p,1,1.11221,space,0.510755,0,30,30,58,1,9_dist_red/trial9.png,,,1,9,redHorizontal,p,77,48,M,2021-02-17_21h39.07.473,exp11,2020.2.6,MacIntel,60,,,,,,,,,,,
,,,,,,,,,,,,,,p,1,0.81544,space,0.299815,0,31,31,14,1,0_dist_red/trial15.png,,,1,0,redHorizontal,p,77,48,M,2021-02-17_21h39.07.473,exp11,2020.2.6,MacIntel,60,,,,,,,,,,,
,,,,,,,,,,,,,,a,1,2.215525,space,0.699935,0,32,32,125,1,0_targ_4_dist_red/trial1.png,,,0,4,redHorizontal,a,77,48,M,2021-02-17_21h39.07.473,exp11,2020.2.6,MacIntel,60,,,,,,,,,,,
,,,,,,,,,,,,,,p,1,1.494035,space,0.436055,0,33,33,90,1,15_dist_red/trial16.png,,,1,15,redHorizontal,p,77,48,M,2021-02-17_21h39.07.473,exp11,2020.2.6,MacIntel,60,,,,,,,,,,,
,,,,,,,,,,,,,,p,1,1.37927,space,0.35785,0,34,34,64,1,9_dist_red/trial15.png,,,1,9,redHorizontal,p,77,48,M,2021-02-17_21h39.07.473,exp11,2020.2.6,MacIntel,60,,,,,,,,,,,
,,,,,,,,,,,,,,a,1,4.979135,space,0.59898,0,35,35,198,1,0_targ_16_dist_red/trial24.png,,,0,16,redHorizontal,a,77,48,M,2021-02-17_21h39.07.473,exp11,2020.2.6,MacIntel,60,,,,,,,,,,,
,,,,,,,,,,,,,,p,1,0.77459,space,0.63321,0,36,36,10,1,0_dist_red/trial11.png,,,1,0,redHorizontal,p,77,48,M,2021-02-17_21h39.07.473,exp11,2020.2.6,MacIntel,60,,,,,,,,,,,
,,,,,,,,,,,,,,a,1,1.760925,space,0.587175,0,37,37,161,1,0_targ_10_dist_red/trial12.png,,,0,10,redHorizontal,a,77,48,M,2021-02-17_21h39.07.473,exp11,2020.2.6,MacIntel,60,,,,,,,,,,,
,,,,,,,,,,,,,,p,1,0.761345,space,0.471075,0,38,38,43,1,3_dist_red/trial19.png,,,1,3,redHorizontal,p,77,48,M,2021-02-17_21h39.07.473,exp11,2020.2.6,MacIntel,60,,,,,,,,,,,
,,,,,,,,,,,,,,p,1,0.741725,space,0.34632,0,39,39,19,1,0_dist_red/trial20.png,,,1,0,redHorizontal,p,77,48,M,2021-02-17_21h39.07.473,exp11,2020.2.6,MacIntel,60,,,,,,,,,,,
,,,,,,,,,,,,,,p,1,0.90834,space,0.301995,0,40,40,50,1,9_dist_red/trial1.png,,,1,9,redHorizontal,p,77,48,M,2021-02-17_21h39.07.473,exp11,2020.2.6,MacIntel,60,,,,,,,,,,,
,,,,,,,,,,,,,,a,1,1.228285,space,0.305685,0,41,41,180,1,0_targ_16_dist_red/trial6.png,,,0,16,redHorizontal,a,77,48,M,2021-02-17_21h39.07.473,exp11,2020.2.6,MacIntel,60,,,,,,,,,,,
,,,,,,,,,,,,,,p,1,1.28886,space,0.31927,0,42,42,54,1,9_dist_red/trial5.png,,,1,9,redHorizontal,p,77,48,M,2021-02-17_21h39.07.473,exp11,2020.2.6,MacIntel,60,,,,,,,,,,,
,,,,,,,,,,,,,,a,1,1.010875,space,0.312315,0,43,43,139,1,0_targ_4_dist_red/trial15.png,,,0,4,redHorizontal,a,77,48,M,2021-02-17_21h39.07.473,exp11,2020.2.6,MacIntel,60,,,,,,,,,,,
,,,,,,,,,,,,,,a,1,1.638045,space,0.317105,0,44,44,192,1,0_targ_16_dist_red/trial18.png,,,0,16,redHorizontal,a,77,48,M,2021-02-17_21h39.07.473,exp11,2020.2.6,MacIntel,60,,,,,,,,,,,
,,,,,,,,,,,,,,p,1,0.77774,space,0.300775,0,45,45,31,1,3_dist_red/trial7.png,,,1,3,redHorizontal,p,77,48,M,2021-02-17_21h39.07.473,exp11,2020.2.6,MacIntel,60,,,,,,,,,,,
,,,,,,,,,,,,,,a,1,1.07089,space,0.3161,0,46,46,170,1,0_targ_10_dist_red/trial21.png,,,0,10,redHorizontal,a,77,48,M,2021-02-17_21h39.07.473,exp11,2020.2.6,MacIntel,60,,,,,,,,,,,
,,,,,,,,,,,,,,a,1,0.957125,space,0.36988,0,47,47,155,1,0_targ_10_dist_red/trial6.png,,,0,10,redHorizontal,a,77,48,M,2021-02-17_21h39.07.473,exp11,2020.2.6,MacIntel,60,,,,,,,,,,,
,,,,,,,,,,,,,,a,1,1.011815,space,0.3675,0,48,48,171,1,0_targ_10_dist_red/trial22.png,,,0,10,redHorizontal,a,77,48,M,2021-02-17_21h39.07.473,exp11,2020.2.6,MacIntel,60,,,,,,,,,,,
,,,,,,,,,,,,,,p,1,1.28667,space,0.38917,0,49,49,27,1,3_dist_red/trial3.png,,,1,3,redHorizontal,p,77,48,M,2021-02-17_21h39.07.473,exp11,2020.2.6,MacIntel,60,,,,,,,,,,,
,,,,,,,,,,,,,,p,1,1.24387,space,0.337735,0,50,50,56,1,9_dist_red/trial7.png,,,1,9,redHorizontal,p,77,48,M,2021-02-17_21h39.07.473,exp11,2020.2.6,MacIntel,60,,,,,,,,,,,
,,,,,,,,,,,,,,p,1,0.84475,space,0.300215,0,51,51,37,1,3_dist_red/trial13.png,,,1,3,redHorizontal,p,77,48,M,2021-02-17_21h39.07.473,exp11,2020.2.6,MacIntel,60,,,,,,,,,,,
,,,,,,,,,,,,,,p,1,0.68094,space,0.30342,0,52,52,17,1,0_dist_red/trial18.png,,,1,0,redHorizontal,p,77,48,M,2021-02-17_21h39.07.473,exp11,2020.2.6,MacIntel,60,,,,,,,,,,,
,,,,,,,,,,,,,,p,1,0.563335,space,0.31679,0,53,53,11,1,0_dist_red/trial12.png,,,1,0,redHorizontal,p,77,48,M,2021-02-17_21h39.07.473,exp11,2020.2.6,MacIntel,60,,,,,,,,,,,
,,,,,,,,,,,,,,a,1,0.74534,space,0.340775,0,54,54,131,1,0_targ_4_dist_red/trial7.png,,,0,4,redHorizontal,a,77,48,M,2021-02-17_21h39.07.473,exp11,2020.2.6,MacIntel,60,,,,,,,,,,,
,,,,,,,,,,,,,,a,1,0.96022,space,0.20637,0,55,55,128,1,0_targ_4_dist_red/trial4.png,,,0,4,redHorizontal,a,77,48,M,2021-02-17_21h39.07.473,exp11,2020.2.6,MacIntel,60,,,,,,,,,,,
,,,,,,,,,,,,,,a,1,1.362125,space,0.237475,0,56,56,118,1,0_targ_1_dist_red/trial19.png,,,0,1,redHorizontal,a,77,48,M,2021-02-17_21h39.07.473,exp11,2020.2.6,MacIntel,60,,,,,,,,,,,
,,,,,,,,,,,,,,p,1,1.49483,space,0.238575,0,57,57,76,1,15_dist_red/trial2.png,,,1,15,redHorizontal,p,77,48,M,2021-02-17_21h39.07.473,exp11,2020.2.6,MacIntel,60,,,,,,,,,,,
,,,,,,,,,,,,,,p,1,1.23274,space,0.239645,0,58,58,91,1,15_dist_red/trial17.png,,,1,15,redHorizontal,p,77,48,M,2021-02-17_21h39.07.473,exp11,2020.2.6,MacIntel,60,,,,,,,,,,,
,,,,,,,,,,,,,,p,1,1.00635,space,0.23531,0,59,59,59,1,9_dist_red/trial10.png,,,1,9,redHorizontal,p,77,48,M,2021-02-17_21h39.07.473,exp11,2020.2.6,MacIntel,60,,,,,,,,,,,
,,,,,,,,,,,,,,a,1,1.411715,space,0.20057,0,60,60,199,1,0_targ_16_dist_red/trial25.png,,,0,16,redHorizontal,a,77,48,M,2021-02-17_21h39.07.473,exp11,2020.2.6,MacIntel,60,,,,,,,,,,,
,,,,,,,,,,,,,,p,1,2.470445,space,0.250455,0,61,61,81,1,15_dist_red/trial7.png,,,1,15,redHorizontal,p,77,48,M,2021-02-17_21h39.07.473,exp11,2020.2.6,MacIntel,60,,,,,,,,,,,
,,,,,,,,,,,,,,a,1,1.14594,space,0.24262,0,62,62,190,1,0_targ_16_dist_red/trial16.png,,,0,16,redHorizontal,a,77,48,M,2021-02-17_21h39.07.473,exp11,2020.2.6,MacIntel,60,,,,,,,,,,,
,,,,,,,,,,,,,,a,1,2.15053,space,0.187875,0,63,63,114,1,0_targ_1_dist_red/trial15.png,,,0,1,redHorizontal,a,77,48,M,2021-02-17_21h39.07.473,exp11,2020.2.6,MacIntel,60,,,,,,,,,,,
,,,,,,,,,,,,,,p,1,1.07766,space,0.19956,0,64,64,65,1,9_dist_red/trial16.png,,,1,9,redHorizontal,p,77,48,M,2021-02-17_21h39.07.473,exp11,2020.2.6,MacIntel,60,,,,,,,,,,,
,,,,,,,,,,,,,,p,1,0.96162,space,0.18307,0,65,65,96,1,15_dist_red/trial22.png,,,1,15,redHorizontal,p,77,48,M,2021-02-17_21h39.07.473,exp11,2020.2.6,MacIntel,60,,,,,,,,,,,
,,,,,,,,,,,,,,a,1,0.77753,space,0.19953,0,66,66,116,1,0_targ_1_dist_red/trial17.png,,,0,1,redHorizontal,a,77,48,M,2021-02-17_21h39.07.473,exp11,2020.2.6,MacIntel,60,,,,,,,,,,,
,,,,,,,,,,,,,,p,0,0.77825,space,0.25035,0,67,67,146,1,0_targ_4_dist_red/trial22.png,,,0,4,redHorizontal,a,77,48,M,2021-02-17_21h39.07.473,exp11,2020.2.6,MacIntel,60,,,,,,,,,,,
,,,,,,,,,,,,,,a,1,2.227245,space,1.451545,0,68,68,189,1,0_targ_16_dist_red/trial15.png,,,0,16,redHorizontal,a,77,48,M,2021-02-17_21h39.07.473,exp11,2020.2.6,MacIntel,60,,,,,,,,,,,
,,,,,,,,,,,,,,a,0,1.62914,space,0.385515,0,69,69,89,1,15_dist_red/trial15.png,,,1,15,redHorizontal,p,77,48,M,2021-02-17_21h39.07.473,exp11,2020.2.6,MacIntel,60,,,,,,,,,,,
,,,,,,,,,,,,,,p,1,0.895905,space,0.26508,0,70,70,28,1,3_dist_red/trial4.png,,,1,3,redHorizontal,p,77,48,M,2021-02-17_21h39.07.473,exp11,2020.2.6,MacIntel,60,,,,,,,,,,,
,,,,,,,,,,,,,,a,1,2.079485,space,0.26895,0,71,71,195,1,0_targ_16_dist_red/trial21.png,,,0,16,redHorizontal,a,77,48,M,2021-02-17_21h39.07.473,exp11,2020.2.6,MacIntel,60,,,,,,,,,,,
,,,,,,,,,,,,,,p,1,0.94011,space,0.23733,0,72,72,99,1,15_dist_red/trial25.png,,,1,15,redHorizontal,p,77,48,M,2021-02-17_21h39.07.473,exp11,2020.2.6,MacIntel,60,,,,,,,,,,,
,,,,,,,,,,,,,,p,1,0.88188,space,0.275365,0,73,73,60,1,9_dist_red/trial11.png,,,1,9,redHorizontal,p,77,48,M,2021-02-17_21h39.07.473,exp11,2020.2.6,MacIntel,60,,,,,,,,,,,
,,,,,,,,,,,,,,a,1,1.027055,space,0.253725,0,74,74,172,1,0_targ_10_dist_red/trial23.png,,,0,10,redHorizontal,a,77,48,M,2021-02-17_21h39.07.473,exp11,2020.2.6,MacIntel,60,,,,,,,,,,,
,,,,,,,,,,,,,,a,1,1.416965,space,0.332035,0,75,75,124,1,0_targ_1_dist_red/trial25.png,,,0,1,redHorizontal,a,77,48,M,2021-02-17_21h39.07.473,exp11,2020.2.6,MacIntel,60,,,,,,,,,,,
,,,,,,,,,,,,,,a,1,0.89128,space,0.23466,0,76,76,112,1,0_targ_1_dist_red/trial13.png,,,0,1,redHorizontal,a,77,48,M,2021-02-17_21h39.07.473,exp11,2020.2.6,MacIntel,60,,,,,,,,,,,
,,,,,,,,,,,,,,p,1,0.893645,space,0.239015,0,77,77,49,1,3_dist_red/trial25.png,,,1,3,redHorizontal,p,77,48,M,2021-02-17_21h39.07.473,exp11,2020.2.6,MacIntel,60,,,,,,,,,,,
,,,,,,,,,,,,,,a,1,3.04346,space,0.26778,0,78,78,149,1,0_targ_4_dist_red/trial25.png,,,0,4,redHorizontal,a,77,48,M,2021-02-17_21h39.07.473,exp11,2020.2.6,MacIntel,60,,,,,,,,,,,
,,,,,,,,,,,,,,a,1,1.40958,space,0.283295,0,79,79,197,1,0_targ_16_dist_red/trial23.png,,,0,16,redHorizontal,a,77,48,M,2021-02-17_21h39.07.473,exp11,2020.2.6,MacIntel,60,,,,,,,,,,,
,,,,,,,,,,,,,,a,1,0.929965,space,0.23181,0,80,80,113,1,0_targ_1_dist_red/trial14.png,,,0,1,redHorizontal,a,77,48,M,2021-02-17_21h39.07.473,exp11,2020.2.6,MacIntel,60,,,,,,,,,,,
,,,,,,,,,,,,,,p,1,1.053495,space,0.221765,0,81,81,45,1,3_dist_red/trial21.png,,,1,3,redHorizontal,p,77,48,M,2021-02-17_21h39.07.473,exp11,2020.2.6,MacIntel,60,,,,,,,,,,,
,,,,,,,,,,,,,,a,1,0.92841,space,0.25291,0,82,82,166,1,0_targ_10_dist_red/trial17.png,,,0,10,redHorizontal,a,77,48,M,2021-02-17_21h39.07.473,exp11,2020.2.6,MacIntel,60,,,,,,,,,,,
,,,,,,,,,,,,,,p,1,1.41244,space,0.21663,0,83,83,88,1,15_dist_red/trial14.png,,,1,15,redHorizontal,p,77,48,M,2021-02-17_21h39.07.473,exp11,2020.2.6,MacIntel,60,,,,,,,,,,,
,,,,,,,,,,,,,,a,1,0.77552,space,0.2011,0,84,84,148,1,0_targ_4_dist_red/trial24.png,,,0,4,redHorizontal,a,77,48,M,2021-02-17_21h39.07.473,exp11,2020.2.6,MacIntel,60,,,,,,,,,,,
,,,,,,,,,,,,,,p,1,0.64589,space,0.218275,0,85,85,67,1,9_dist_red/trial18.png,,,1,9,redHorizontal,p,77,48,M,2021-02-17_21h39.07.473,exp11,2020.2.6,MacIntel,60,,,,,,,,,,,
,,,,,,,,,,,,,,a,1,0.944455,space,0.19262,0,86,86,117,1,0_targ_1_dist_red/trial18.png,,,0,1,redHorizontal,a,77,48,M,2021-02-17_21h39.07.473,exp11,2020.2.6,MacIntel,60,,,,,,,,,,,
,,,,,,,,,,,,,,a,0,1.476545,space,0.537365,0,87,87,97,1,15_dist_red/trial23.png,,,1,15,redHorizontal,p,77,48,M,2021-02-17_21h39.07.473,exp11,2020.2.6,MacIntel,60,,,,,,,,,,,
,,,,,,,,,,,,,,a,1,2.13733,space,0.269995,0,88,88,109,1,0_targ_1_dist_red/trial10.png,,,0,1,redHorizontal,a,77,48,M,2021-02-17_21h39.07.473,exp11,2020.2.6,MacIntel,60,,,,,,,,,,,
,,,,,,,,,,,,,,p,1,0.89511,space,0.21561,0,89,89,87,1,15_dist_red/trial13.png,,,1,15,redHorizontal,p,77,48,M,2021-02-17_21h39.07.473,exp11,2020.2.6,MacIntel,60,,,,,,,,,,,
,,,,,,,,,,,,,,p,1,0.993695,space,0.177285,0,90,90,46,1,3_dist_red/trial22.png,,,1,3,redHorizontal,p,77,48,M,2021-02-17_21h39.07.473,exp11,2020.2.6,MacIntel,60,,,,,,,,,,,
,,,,,,,,,,,,,,p,1,0.9312,space,0.15085,0,91,91,94,1,15_dist_red/trial20.png,,,1,15,redHorizontal,p,77,48,M,2021-02-17_21h39.07.473,exp11,2020.2.6,MacIntel,60,,,,,,,,,,,
,,,,,,,,,,,,,,p,1,0.613785,space,0.139265,0,92,92,22,1,0_dist_red/trial23.png,,,1,0,redHorizontal,p,77,48,M,2021-02-17_21h39.07.473,exp11,2020.2.6,MacIntel,60,,,,,,,,,,,
,,,,,,,,,,,,,,p,1,0.679735,space,0.096205,0,93,93,57,1,9_dist_red/trial8.png,,,1,9,redHorizontal,p,77,48,M,2021-02-17_21h39.07.473,exp11,2020.2.6,MacIntel,60,,,,,,,,,,,
,,,,,,,,,,,,,,a,1,0.814815,space,0.18995,0,94,94,156,1,0_targ_10_dist_red/trial7.png,,,0,10,redHorizontal,a,77,48,M,2021-02-17_21h39.07.473,exp11,2020.2.6,MacIntel,60,,,,,,,,,,,
,,,,,,,,,,,,,,a,1,0.842825,space,0.118795,0,95,95,123,1,0_targ_1_dist_red/trial24.png,,,0,1,redHorizontal,a,77,48,M,2021-02-17_21h39.07.473,exp11,2020.2.6,MacIntel,60,,,,,,,,,,,
,,,,,,,,,,,,,,a,1,1.72935,space,0.30443,0,96,96,163,1,0_targ_10_dist_red/trial14.png,,,0,10,redHorizontal,a,77,48,M,2021-02-17_21h39.07.473,exp11,2020.2.6,MacIntel,60,,,,,,,,,,,
,,,,,,,,,,,,,,a,1,0.87778,space,0.154195,0,97,97,108,1,0_targ_1_dist_red/trial9.png,,,0,1,redHorizontal,a,77,48,M,2021-02-17_21h39.07.473,exp11,2020.2.6,MacIntel,60,,,,,,,,,,,
,,,,,,,,,,,,,,a,1,0.731065,space,0.142475,0,98,98,132,1,0_targ_4_dist_red/trial8.png,,,0,4,redHorizontal,a,77,48,M,2021-02-17_21h39.07.473,exp11,2020.2.6,MacIntel,60,,,,,,,,,,,
,,,,,,,,,,,,,,p,1,0.75937,space,0.189865,0,99,99,68,1,9_dist_red/trial19.png,,,1,9,redHorizontal,p,77,48,M,2021-02-17_21h39.07.473,exp11,2020.2.6,MacIntel,60,,,,,,,,,,,
,,,,,,,,,,,,,,p,1,0.74184,space,0.214615,0,100,100,8,1,0_dist_red/trial9.png,,,1,0,redHorizontal,p,77,48,M,2021-02-17_21h39.07.473,exp11,2020.2.6,MacIntel,60,,,,,,,,,,,
,,,,,,,,,,,,,,a,1,0.715335,space,0.273775,0,101,101,175,1,0_targ_16_dist_red/trial1.png,,,0,16,redHorizontal,a,77,48,M,2021-02-17_21h39.07.473,exp11,2020.2.6,MacIntel,60,,,,,,,,,,,
,,,,,,,,,,,,,,p,1,0.57636,space,0.269475,0,102,102,93,1,15_dist_red/trial19.png,,,1,15,redHorizontal,p,77,48,M,2021-02-17_21h39.07.473,exp11,2020.2.6,MacIntel,60,,,,,,,,,,,
,,,,,,,,,,,,,,p,1,0.74322,space,0.18344,0,103,103,98,1,15_dist_red/trial24.png,,,1,15,redHorizontal,p,77,48,M,2021-02-17_21h39.07.473,exp11,2020.2.6,MacIntel,60,,,,,,,,,,,
,,,,,,,,,,,,,,a,1,0.701365,space,0.16838,0,104,104,145,1,0_targ_4_dist_red/trial21.png,,,0,4,redHorizontal,a,77,48,M,2021-02-17_21h39.07.473,exp11,2020.2.6,MacIntel,60,,,,,,,,,,,
,,,,,,,,,,,,,,a,1,0.59502,space,0.40494,0,105,105,106,1,0_targ_1_dist_red/trial7.png,,,0,1,redHorizontal,a,77,48,M,2021-02-17_21h39.07.473,exp11,2020.2.6,MacIntel,60,,,,,,,,,,,
,,,,,,,,,,,,,,a,1,0.843305,space,0.16257,0,106,106,186,1,0_targ_16_dist_red/trial12.png,,,0,16,redHorizontal,a,77,48,M,2021-02-17_21h39.07.473,exp11,2020.2.6,MacIntel,60,,,,,,,,,,,
,,,,,,,,,,,,,,a,0,0.70785,space,1.05201,0,107,107,95,1,15_dist_red/trial21.png,,,1,15,redHorizontal,p,77,48,M,2021-02-17_21h39.07.473,exp11,2020.2.6,MacIntel,60,,,,,,,,,,,
,,,,,,,,,,,,,,p,1,1.12894,space,0.298285,0,108,108,73,1,9_dist_red/trial24.png,,,1,9,redHorizontal,p,77,48,M,2021-02-17_21h39.07.473,exp11,2020.2.6,MacIntel,60,,,,,,,,,,,
,,,,,,,,,,,,,,p,1,0.674565,space,0.21725,0,109,109,51,1,9_dist_red/trial2.png,,,1,9,redHorizontal,p,77,48,M,2021-02-17_21h39.07.473,exp11,2020.2.6,MacIntel,60,,,,,,,,,,,
,,,,,,,,,,,,,,a,1,0.74528,space,0.201405,0,110,110,177,1,0_targ_16_dist_red/trial3.png,,,0,16,redHorizontal,a,77,48,M,2021-02-17_21h39.07.473,exp11,2020.2.6,MacIntel,60,,,,,,,,,,,
,,,,,,,,,,,,,,a,1,0.71456,space,0.218925,0,111,111,115,1,0_targ_1_dist_red/trial6.png,,,0,1,redHorizontal,a,77,48,M,2021-02-17_21h39.07.473,exp11,2020.2.6,MacIntel,60,,,,,,,,,,,
,,,,,,,,,,,,,,a,1,0.927965,space,0.16743,0,112,112,174,1,0_targ_10_dist_red/trial25.png,,,0,10,redHorizontal,a,77,48,M,2021-02-17_21h39.07.473,exp11,2020.2.6,MacIntel,60,,,,,,,,,,,
,,,,,,,,,,,,,,a,1,0.7304,space,0.117545,0,113,113,134,1,0_targ_4_dist_red/trial10.png,,,0,4,redHorizontal,a,77,48,M,2021-02-17_21h39.07.473,exp11,2020.2.6,MacIntel,60,,,,,,,,,,,
,,,,,,,,,,,,,,a,1,0.87688,space,0.118085,0,114,114,126,1,0_targ_4_dist_red/trial2.png,,,0,4,redHorizontal,a,77,48,M,2021-02-17_21h39.07.473,exp11,2020.2.6,MacIntel,60,,,,,,,,,,,
,,,,,,,,,,,,,,p,1,0.960425,space,0.185065,0,115,115,52,1,9_dist_red/trial3.png,,,1,9,redHorizontal,p,77,48,M,2021-02-17_21h39.07.473,exp11,2020.2.6,MacIntel,60,,,,,,,,,,,
,,,,,,,,,,,,,,a,1,0.58497,space,0.211155,0,116,116,194,1,0_targ_16_dist_red/trial20.png,,,0,16,redHorizontal,a,77,48,M,2021-02-17_21h39.07.473,exp11,2020.2.6,MacIntel,60,,,,,,,,,,,
,,,,,,,,,,,,,,a,1,0.580895,space,0.11641,0,117,117,167,1,0_targ_10_dist_red/trial18.png,,,0,10,redHorizontal,a,77,48,M,2021-02-17_21h39.07.473,exp11,2020.2.6,MacIntel,60,,,,,,,,,,,
,,,,,,,,,,,,,,a,1,0.488685,space,0.11552,0,118,118,184,1,0_targ_16_dist_red/trial10.png,,,0,16,redHorizontal,a,77,48,M,2021-02-17_21h39.07.473,exp11,2020.2.6,MacIntel,60,,,,,,,,,,,
,,,,,,,,,,,,,,p,1,0.64515,space,0.236905,0,119,119,3,1,0_dist_red/trial4.png,,,1,0,redHorizontal,p,77,48,M,2021-02-17_21h39.07.473,exp11,2020.2.6,MacIntel,60,,,,,,,,,,,
,,,,,,,,,,,,,,p,1,0.56127,space,0.16835,0,120,120,9,1,0_dist_red/trial10.png,,,1,0,redHorizontal,p,77,48,M,2021-02-17_21h39.07.473,exp11,2020.2.6,MacIntel,60,,,,,,,,,,,
,,,,,,,,,,,,,,a,1,0.57671,space,0.269945,0,121,121,179,1,0_targ_16_dist_red/trial5.png,,,0,16,redHorizontal,a,77,48,M,2021-02-17_21h39.07.473,exp11,2020.2.6,MacIntel,60,,,,,,,,,,,
,,,,,,,,,,,,,,p,1,0.64067,space,0.21559,0,122,122,15,1,0_dist_red/trial16.png,,,1,0,redHorizontal,p,77,48,M,2021-02-17_21h39.07.473,exp11,2020.2.6,MacIntel,60,,,,,,,,,,,
,,,,,,,,,,,,,,a,1,0.50205,space,0.200485,0,123,123,191,1,0_targ_16_dist_red/trial17.png,,,0,16,redHorizontal,a,77,48,M,2021-02-17_21h39.07.473,exp11,2020.2.6,MacIntel,60,,,,,,,,,,,
,,,,,,,,,,,,,,a,0,0.49452,space,2.51738,0,124,124,25,1,3_dist_red/trial1.png,,,1,3,redHorizontal,p,77,48,M,2021-02-17_21h39.07.473,exp11,2020.2.6,MacIntel,60,,,,,,,,,,,
,,,,,,,,,,,,,,p,1,0.69078,space,0.231645,0,125,125,5,1,0_dist_red/trial6.png,,,1,0,redHorizontal,p,77,48,M,2021-02-17_21h39.07.473,exp11,2020.2.6,MacIntel,60,,,,,,,,,,,
,,,,,,,,,,,,,,p,1,0.721435,space,0.21694,0,126,126,66,1,9_dist_red/trial17.png,,,1,9,redHorizontal,p,77,48,M,2021-02-17_21h39.07.473,exp11,2020.2.6,MacIntel,60,,,,,,,,,,,
,,,,,,,,,,,,,,a,1,0.814285,space,0.200145,0,127,127,162,1,0_targ_10_dist_red/trial13.png,,,0,10,redHorizontal,a,77,48,M,2021-02-17_21h39.07.473,exp11,2020.2.6,MacIntel,60,,,,,,,,,,,
,,,,,,,,,,,,,,a,0,0.58202,space,2.972275,0,128,128,75,1,15_dist_red/trial1.png,,,1,15,redHorizontal,p,77,48,M,2021-02-17_21h39.07.473,exp11,2020.2.6,MacIntel,60,,,,,,,,,,,
,,,,,,,,,,,,,,a,0,1.842385,space,2.28239,0,129,129,39,1,3_dist_red/trial15.png,,,1,3,redHorizontal,p,77,48,M,2021-02-17_21h39.07.473,exp11,2020.2.6,MacIntel,60,,,,,,,,,,,
,,,,,,,,,,,,,,p,1,0.983715,space,0.33117,0,130,130,63,1,9_dist_red/trial14.png,,,1,9,redHorizontal,p,77,48,M,2021-02-17_21h39.07.473,exp11,2020.2.6,MacIntel,60,,,,,,,,,,,
,,,,,,,,,,,,,,a,1,0.915805,space,0.165505,0,131,131,178,1,0_targ_16_dist_red/trial4.png,,,0,16,redHorizontal,a,77,48,M,2021-02-17_21h39.07.473,exp11,2020.2.6,MacIntel,60,,,,,,,,,,,
,,,,,,,,,,,,,,p,1,0.66193,space,0.185025,0,132,132,4,1,0_dist_red/trial5.png,,,1,0,redHorizontal,p,77,48,M,2021-02-17_21h39.07.473,exp11,2020.2.6,MacIntel,60,,,,,,,,,,,
,,,,,,,,,,,,,,p,1,0.774885,space,0.168325,0,133,133,77,1,15_dist_red/trial3.png,,,1,15,redHorizontal,p,77,48,M,2021-02-17_21h39.07.473,exp11,2020.2.6,MacIntel,60,,,,,,,,,,,
,,,,,,,,,,,,,,p,1,0.54295,space,0.13351,0,134,134,2,1,0_dist_red/trial3.png,,,1,0,redHorizontal,p,77,48,M,2021-02-17_21h39.07.473,exp11,2020.2.6,MacIntel,60,,,,,,,,,,,
,,,,,,,,,,,,,,a,1,0.684365,space,0.183445,0,135,135,105,1,0_targ_1_dist_red/trial6.png,,,0,1,redHorizontal,a,77,48,M,2021-02-17_21h39.07.473,exp11,2020.2.6,MacIntel,60,,,,,,,,,,,
,,,,,,,,,,,,,,a,1,0.553915,space,0.135265,0,136,136,101,1,0_targ_1_dist_red/trial2.png,,,0,1,redHorizontal,a,77,48,M,2021-02-17_21h39.07.473,exp11,2020.2.6,MacIntel,60,,,,,,,,,,,
,,,,,,,,,,,,,,a,0,0.983255,space,3.79369,0,137,137,53,1,9_dist_red/trial4.png,,,1,9,redHorizontal,p,77,48,M,2021-02-17_21h39.07.473,exp11,2020.2.6,MacIntel,60,,,,,,,,,,,
,,,,,,,,,,,,,,p,1,1.114425,space,0.26985,0,138,138,83,1,15_dist_red/trial9.png,,,1,15,redHorizontal,p,77,48,M,2021-02-17_21h39.07.473,exp11,2020.2.6,MacIntel,60,,,,,,,,,,,
,,,,,,,,,,,,,,p,1,0.947185,space,0.185585,0,139,139,41,1,3_dist_red/trial17.png,,,1,3,redHorizontal,p,77,48,M,2021-02-17_21h39.07.473,exp11,2020.2.6,MacIntel,60,,,,,,,,,,,
,,,,,,,,,,,,,,a,1,1.21041,space,0.138275,0,140,140,122,1,0_targ_1_dist_red/trial23.png,,,0,1,redHorizontal,a,77,48,M,2021-02-17_21h39.07.473,exp11,2020.2.6,MacIntel,60,,,,,,,,,,,
,,,,,,,,,,,,,,p,1,0.84405,space,0.187235,0,141,141,23,1,0_dist_red/trial24.png,,,1,0,redHorizontal,p,77,48,M,2021-02-17_21h39.07.473,exp11,2020.2.6,MacIntel,60,,,,,,,,,,,
,,,,,,,,,,,,,,p,1,1.129415,space,0.170525,0,142,142,29,1,3_dist_red/trial5.png,,,1,3,redHorizontal,p,77,48,M,2021-02-17_21h39.07.473,exp11,2020.2.6,MacIntel,60,,,,,,,,,,,
,,,,,,,,,,,,,,p,1,0.64394,space,0.09701,0,143,143,0,1,0_dist_red/trial1.png,,,1,0,redHorizontal,p,77,48,M,2021-02-17_21h39.07.473,exp11,2020.2.6,MacIntel,60,,,,,,,,,,,
,,,,,,,,,,,,,,p,1,0.963905,space,0.116665,0,144,144,30,1,3_dist_red/trial6.png,,,1,3,redHorizontal,p,77,48,M,2021-02-17_21h39.07.473,exp11,2020.2.6,MacIntel,60,,,,,,,,,,,
,,,,,,,,,,,,,,a,1,1.07859,space,0.13746,0,145,145,188,1,0_targ_16_dist_red/trial14.png,,,0,16,redHorizontal,a,77,48,M,2021-02-17_21h39.07.473,exp11,2020.2.6,MacIntel,60,,,,,,,,,,,
,,,,,,,,,,,,,,a,1,0.904025,space,0.13787,0,146,146,147,1,0_targ_4_dist_red/trial23.png,,,0,4,redHorizontal,a,77,48,M,2021-02-17_21h39.07.473,exp11,2020.2.6,MacIntel,60,,,,,,,,,,,
,,,,,,,,,,,,,,p,1,0.711235,space,0.20137,0,147,147,62,1,9_dist_red/trial13.png,,,1,9,redHorizontal,p,77,48,M,2021-02-17_21h39.07.473,exp11,2020.2.6,MacIntel,60,,,,,,,,,,,
,,,,,,,,,,,,,,p,1,0.674955,space,0.166705,0,148,148,92,1,15_dist_red/trial18.png,,,1,15,redHorizontal,p,77,48,M,2021-02-17_21h39.07.473,exp11,2020.2.6,MacIntel,60,,,,,,,,,,,
,,,,,,,,,,,,,,a,1,0.978035,space,0.155,0,149,149,165,1,0_targ_10_dist_red/trial16.png,,,0,10,redHorizontal,a,77,48,M,2021-02-17_21h39.07.473,exp11,2020.2.6,MacIntel,60,,,,,,,,,,,
,,,,,,,,,,,,,,p,1,0.64574,space,0.221145,0,150,150,42,1,3_dist_red/trial18.png,,,1,3,redHorizontal,p,77,48,M,2021-02-17_21h39.07.473,exp11,2020.2.6,MacIntel,60,,,,,,,,,,,
,,,,,,,,,,,,,,p,1,0.742375,space,0.168085,0,151,151,70,1,9_dist_red/trial21.png,,,1,9,redHorizontal,p,77,48,M,2021-02-17_21h39.07.473,exp11,2020.2.6,MacIntel,60,,,,,,,,,,,
,,,,,,,,,,,,,,p,1,1.62688,space,0.13336,0,152,152,47,1,3_dist_red/trial23.png,,,1,3,redHorizontal,p,77,48,M,2021-02-17_21h39.07.473,exp11,2020.2.6,MacIntel,60,,,,,,,,,,,
,,,,,,,,,,,,,,a,1,1.613805,space,0.21527,0,153,153,183,1,0_targ_16_dist_red/trial9.png,,,0,16,redHorizontal,a,77,48,M,2021-02-17_21h39.07.473,exp11,2020.2.6,MacIntel,60,,,,,,,,,,,
,,,,,,,,,,,,,,a,1,0.79224,space,0.13905,0,154,154,136,1,0_targ_4_dist_red/trial12.png,,,0,4,redHorizontal,a,77,48,M,2021-02-17_21h39.07.473,exp11,2020.2.6,MacIntel,60,,,,,,,,,,,
,,,,,,,,,,,,,,a,1,0.910535,space,0.166535,0,155,155,127,1,0_targ_4_dist_red/trial3.png,,,0,4,redHorizontal,a,77,48,M,2021-02-17_21h39.07.473,exp11,2020.2.6,MacIntel,60,,,,,,,,,,,
,,,,,,,,,,,,,,a,1,0.79378,space,0.085875,0,156,156,185,1,0_targ_16_dist_red/trial11.png,,,0,16,redHorizontal,a,77,48,M,2021-02-17_21h39.07.473,exp11,2020.2.6,MacIntel,60,,,,,,,,,,,
,,,,,,,,,,,,,,p,1,0.7458,space,0.153045,0,157,157,7,1,0_dist_red/trial8.png,,,1,0,redHorizontal,p,77,48,M,2021-02-17_21h39.07.473,exp11,2020.2.6,MacIntel,60,,,,,,,,,,,
,,,,,,,,,,,,,,a,1,0.714955,space,0.120815,0,158,158,182,1,0_targ_16_dist_red/trial8.png,,,0,16,redHorizontal,a,77,48,M,2021-02-17_21h39.07.473,exp11,2020.2.6,MacIntel,60,,,,,,,,,,,
,,,,,,,,,,,,,,p,1,0.67845,space,0.137775,0,159,159,38,1,3_dist_red/trial14.png,,,1,3,redHorizontal,p,77,48,M,2021-02-17_21h39.07.473,exp11,2020.2.6,MacIntel,60,,,,,,,,,,,
,,,,,,,,,,,,,,p,1,0.814315,space,0.20371,0,160,160,33,1,3_dist_red/trial9.png,,,1,3,redHorizontal,p,77,48,M,2021-02-17_21h39.07.473,exp11,2020.2.6,MacIntel,60,,,,,,,,,,,
,,,,,,,,,,,,,,p,1,0.73142,space,0.128675,0,161,161,1,1,0_dist_red/trial2.png,,,1,0,redHorizontal,p,77,48,M,2021-02-17_21h39.07.473,exp11,2020.2.6,MacIntel,60,,,,,,,,,,,
,,,,,,,,,,,,,,a,1,0.842905,space,0.21559,0,162,162,138,1,0_targ_4_dist_red/trial14.png,,,0,4,redHorizontal,a,77,48,M,2021-02-17_21h39.07.473,exp11,2020.2.6,MacIntel,60,,,,,,,,,,,
,,,,,,,,,,,,,,p,0,0.78089,space,6.91802,0,163,163,151,1,0_targ_10_dist_red/trial2.png,,,0,10,redHorizontal,a,77,48,M,2021-02-17_21h39.07.473,exp11,2020.2.6,MacIntel,60,,,,,,,,,,,
,,,,,,,,,,,,,,a,1,1.62909,space,1.98796,0,164,164,168,1,0_targ_10_dist_red/trial19.png,,,0,10,redHorizontal,a,77,48,M,2021-02-17_21h39.07.473,exp11,2020.2.6,MacIntel,60,,,,,,,,,,,
,,,,,,,,,,,,,,a,1,0.89341,space,0.177085,0,165,165,193,1,0_targ_16_dist_red/trial19.png,,,0,16,redHorizontal,a,77,48,M,2021-02-17_21h39.07.473,exp11,2020.2.6,MacIntel,60,,,,,,,,,,,
,,,,,,,,,,,,,,a,1,0.76278,space,0.10543,0,166,166,152,1,0_targ_10_dist_red/trial3.png,,,0,10,redHorizontal,a,77,48,M,2021-02-17_21h39.07.473,exp11,2020.2.6,MacIntel,60,,,,,,,,,,,
,,,,,,,,,,,,,,p,1,0.64714,space,0.166485,0,167,167,24,1,0_dist_red/trial25.png,,,1,0,redHorizontal,p,77,48,M,2021-02-17_21h39.07.473,exp11,2020.2.6,MacIntel,60,,,,,,,,,,,
,,,,,,,,,,,,,,a,1,0.688635,space,0.132715,0,168,168,129,1,0_targ_4_dist_red/trial5.png,,,0,4,redHorizontal,a,77,48,M,2021-02-17_21h39.07.473,exp11,2020.2.6,MacIntel,60,,,,,,,,,,,
,,,,,,,,,,,,,,a,1,0.66091,space,0.13854,0,169,169,103,1,0_targ_1_dist_red/trial4.png,,,0,1,redHorizontal,a,77,48,M,2021-02-17_21h39.07.473,exp11,2020.2.6,MacIntel,60,,,,,,,,,,,
,,,,,,,,,,,,,,a,1,1.465075,space,0.11587,0,170,170,135,1,0_targ_4_dist_red/trial11.png,,,0,4,redHorizontal,a,77,48,M,2021-02-17_21h39.07.473,exp11,2020.2.6,MacIntel,60,,,,,,,,,,,
,,,,,,,,,,,,,,a,1,0.860115,space,0.116925,0,171,171,100,1,0_targ_1_dist_red/trial1.png,,,0,1,redHorizontal,a,77,48,M,2021-02-17_21h39.07.473,exp11,2020.2.6,MacIntel,60,,,,,,,,,,,
,,,,,,,,,,,,,,p,1,0.79688,space,0.17176,0,172,172,48,1,3_dist_red/trial24.png,,,1,3,redHorizontal,p,77,48,M,2021-02-17_21h39.07.473,exp11,2020.2.6,MacIntel,60,,,,,,,,,,,
,,,,,,,,,,,,,,p,1,0.909115,space,0.15198,0,173,173,78,1,15_dist_red/trial4.png,,,1,15,redHorizontal,p,77,48,M,2021-02-17_21h39.07.473,exp11,2020.2.6,MacIntel,60,,,,,,,,,,,
,,,,,,,,,,,,,,p,1,0.66216,space,0.13046,0,174,174,16,1,0_dist_red/trial17.png,,,1,0,redHorizontal,p,77,48,M,2021-02-17_21h39.07.473,exp11,2020.2.6,MacIntel,60,,,,,,,,,,,
,,,,,,,,,,,,,,a,1,0.727035,space,0.21234,0,175,175,107,1,0_targ_1_dist_red/trial8.png,,,0,1,redHorizontal,a,77,48,M,2021-02-17_21h39.07.473,exp11,2020.2.6,MacIntel,60,,,,,,,,,,,
,,,,,,,,,,,,,,a,1,0.893405,space,0.200475,0,176,176,158,1,0_targ_10_dist_red/trial9.png,,,0,10,redHorizontal,a,77,48,M,2021-02-17_21h39.07.473,exp11,2020.2.6,MacIntel,60,,,,,,,,,,,
,,,,,,,,,,,,,,p,1,1.727285,space,0.18646,0,177,177,35,1,3_dist_red/trial11.png,,,1,3,redHorizontal,p,77,48,M,2021-02-17_21h39.07.473,exp11,2020.2.6,MacIntel,60,,,,,,,,,,,
,,,,,,,,,,,,,,p,1,0.979625,space,0.120375,0,178,178,12,1,0_dist_red/trial13.png,,,1,0,redHorizontal,p,77,48,M,2021-02-17_21h39.07.473,exp11,2020.2.6,MacIntel,60,,,,,,,,,,,
,,,,,,,,,,,,,,a,1,0.85354,space,0.117415,0,179,179,157,1,0_targ_10_dist_red/trial8.png,,,0,10,redHorizontal,a,77,48,M,2021-02-17_21h39.07.473,exp11,2020.2.6,MacIntel,60,,,,,,,,,,,
,,,,,,,,,,,,,,p,1,0.663355,space,0.115845,0,180,180,72,1,9_dist_red/trial23.png,,,1,9,redHorizontal,p,77,48,M,2021-02-17_21h39.07.473,exp11,2020.2.6,MacIntel,60,,,,,,,,,,,
,,,,,,,,,,,,,,a,1,0.745505,space,0.174815,0,181,181,154,1,0_targ_10_dist_red/trial5.png,,,0,10,redHorizontal,a,77,48,M,2021-02-17_21h39.07.473,exp11,2020.2.6,MacIntel,60,,,,,,,,,,,
,,,,,,,,,,,,,,p,1,0.965905,space,0.24036,0,182,182,86,1,15_dist_red/trial12.png,,,1,15,redHorizontal,p,77,48,M,2021-02-17_21h39.07.473,exp11,2020.2.6,MacIntel,60,,,,,,,,,,,
,,,,,,,,,,,,,,a,1,0.77896,space,0.189285,0,183,183,144,1,0_targ_4_dist_red/trial20.png,,,0,4,redHorizontal,a,77,48,M,2021-02-17_21h39.07.473,exp11,2020.2.6,MacIntel,60,,,,,,,,,,,
,,,,,,,,,,,,,,a,1,0.86022,space,0.150455,0,184,184,130,1,0_targ_4_dist_red/trial6.png,,,0,4,redHorizontal,a,77,48,M,2021-02-17_21h39.07.473,exp11,2020.2.6,MacIntel,60,,,,,,,,,,,
,,,,,,,,,,,,,,p,1,0.820445,space,0.153405,0,185,185,36,1,3_dist_red/trial12.png,,,1,3,redHorizontal,p,77,48,M,2021-02-17_21h39.07.473,exp11,2020.2.6,MacIntel,60,,,,,,,,,,,
,,,,,,,,,,,,,,a,1,0.66468,space,0.304705,0,186,186,137,1,0_targ_4_dist_red/trial13.png,,,0,4,redHorizontal,a,77,48,M,2021-02-17_21h39.07.473,exp11,2020.2.6,MacIntel,60,,,,,,,,,,,
,,,,,,,,,,,,,,a,1,1.176385,space,1.84698,0,187,187,187,1,0_targ_16_dist_red/trial13.png,,,0,16,redHorizontal,a,77,48,M,2021-02-17_21h39.07.473,exp11,2020.2.6,MacIntel,60,,,,,,,,,,,
,,,,,,,,,,,,,,p,1,0.72715,space,0.22191,0,188,188,6,1,0_dist_red/trial7.png,,,1,0,redHorizontal,p,77,48,M,2021-02-17_21h39.07.473,exp11,2020.2.6,MacIntel,60,,,,,,,,,,,
,,,,,,,,,,,,,,p,1,0.75934,space,0.155255,0,189,189,40,1,3_dist_red/trial16.png,,,1,3,redHorizontal,p,77,48,M,2021-02-17_21h39.07.473,exp11,2020.2.6,MacIntel,60,,,,,,,,,,,
,,,,,,,,,,,,,,p,1,0.576175,space,0.13604,0,190,190,61,1,9_dist_red/trial12.png,,,1,9,redHorizontal,p,77,48,M,2021-02-17_21h39.07.473,exp11,2020.2.6,MacIntel,60,,,,,,,,,,,
,,,,,,,,,,,,,,p,1,0.47836,space,0.120625,0,191,191,18,1,0_dist_red/trial19.png,,,1,0,redHorizontal,p,77,48,M,2021-02-17_21h39.07.473,exp11,2020.2.6,MacIntel,60,,,,,,,,,,,
,,,,,,,,,,,,,,p,1,0.47623,space,0.079645,0,192,192,44,1,3_dist_red/trial20.png,,,1,3,redHorizontal,p,77,48,M,2021-02-17_21h39.07.473,exp11,2020.2.6,MacIntel,60,,,,,,,,,,,
,,,,,,,,,,,,,,p,1,0.771695,space,0.115945,0,193,193,32,1,3_dist_red/trial8.png,,,1,3,redHorizontal,p,77,48,M,2021-02-17_21h39.07.473,exp11,2020.2.6,MacIntel,60,,,,,,,,,,,
,,,,,,,,,,,,,,a,1,0.81891,space,0.134535,0,194,194,169,1,0_targ_10_dist_red/trial20.png,,,0,10,redHorizontal,a,77,48,M,2021-02-17_21h39.07.473,exp11,2020.2.6,MacIntel,60,,,,,,,,,,,
,,,,,,,,,,,,,,a,1,0.82904,space,0.10313,0,195,195,196,1,0_targ_16_dist_red/trial22.png,,,0,16,redHorizontal,a,77,48,M,2021-02-17_21h39.07.473,exp11,2020.2.6,MacIntel,60,,,,,,,,,,,
,,,,,,,,,,,,,,p,1,0.80938,space,0.168085,0,196,196,82,1,15_dist_red/trial8.png,,,1,15,redHorizontal,p,77,48,M,2021-02-17_21h39.07.473,exp11,2020.2.6,MacIntel,60,,,,,,,,,,,
,,,,,,,,,,,,,,a,0,0.944755,space,0.383365,0,197,197,69,1,9_dist_red/trial20.png,,,1,9,redHorizontal,p,77,48,M,2021-02-17_21h39.07.473,exp11,2020.2.6,MacIntel,60,,,,,,,,,,,
,,,,,,,,,,,,,,a,1,0.9213,space,0.152535,0,198,198,150,1,0_targ_10_dist_red/trial1.png,,,0,10,redHorizontal,a,77,48,M,2021-02-17_21h39.07.473,exp11,2020.2.6,MacIntel,60,,,,,,,,,,,
,,,,,,,,,,,,,,a,0,1.04303,space,0.243425,0,199,199,80,1,15_dist_red/trial6.png,,,1,15,redHorizontal,p,77,48,M,2021-02-17_21h39.07.473,exp11,2020.2.6,MacIntel,60,,,,,,,,,,,
,,,,,,,,,,,,,,,,,,,,,,,,,,,,,,,77,48,M,2021-02-17_21h39.07.473,exp11,2020.2.6,MacIntel,60,0,1,1,1,1,conRed.xlsx,red horizontal,Look for red horizontal bar (target) and indicate if it is present or absent in the array. If red horizontal target is present press 'p' and if absent press 'a'. Press SPACE to start.,,,
