key_resp_6.keys,key_resp_6.rt,key_resp_7.keys,key_resp_7.rt,key_resp_8.keys,key_resp_8.rt,key_resp_10.keys,key_resp_10.rt,key_resp_9.keys,key_resp_9.rt,key_resp_3.keys,key_resp_3.rt,key_resp_5.keys,key_resp_5.rt,key_resp.keys,key_resp.corr,key_resp.rt,key_resp_4.keys,key_resp_4.rt,trials.thisRepN,trials.thisTrialN,trials.thisN,trials.thisIndex,trials.ran,ImageFile,tarPos,tarSize,targPres,numDist,targetName,correctAns,participant,age,sex,date,expName,psychopyVersion,OS,frameRate,trials_2.thisRepN,trials_2.thisTrialN,trials_2.thisN,trials_2.thisIndex,trials_2.ran,condsFile,targName,instructionText,colTarget,sizeTarg,posit
space,9.325765,space,7.66898,space,9.266625,space,13.97039,space,5.66748,space,12.86974,space,10.08043,a,1,1.187355,space,3.46454,0,0,0,122,1,0_targ_1_dist_red/trial23.png,,,0,1,redHorizontal,a,78,22,Male,2021-02-17_14h52.34.937,exp11,2020.2.6,Win32,60,,,,,,,,,,,
,,,,,,,,,,,,,,p,0,1.07877,space,1.28092,0,1,1,196,1,0_targ_16_dist_red/trial22.png,,,0,16,redHorizontal,a,78,22,Male,2021-02-17_14h52.34.937,exp11,2020.2.6,Win32,60,,,,,,,,,,,
,,,,,,,,,,,,,,p,1,1.350475,space,0.938655,0,2,2,36,1,3_dist_red/trial12.png,,,1,3,redHorizontal,p,78,22,Male,2021-02-17_14h52.34.937,exp11,2020.2.6,Win32,60,,,,,,,,,,,
,,,,,,,,,,,,,,p,1,0.930355,space,0.43639,0,3,3,11,1,0_dist_red/trial12.png,,,1,0,redHorizontal,p,78,22,Male,2021-02-17_14h52.34.937,exp11,2020.2.6,Win32,60,,,,,,,,,,,
,,,,,,,,,,,,,,a,1,1.047905,space,0.5158,0,4,4,134,1,0_targ_4_dist_red/trial10.png,,,0,4,redHorizontal,a,78,22,Male,2021-02-17_14h52.34.937,exp11,2020.2.6,Win32,60,,,,,,,,,,,
,,,,,,,,,,,,,,a,1,0.821015,space,0.576305,0,5,5,191,1,0_targ_16_dist_red/trial17.png,,,0,16,redHorizontal,a,78,22,Male,2021-02-17_14h52.34.937,exp11,2020.2.6,Win32,60,,,,,,,,,,,
,,,,,,,,,,,,,,p,1,1.3166,space,0.283825,0,6,6,80,1,15_dist_red/trial6.png,,,1,15,redHorizontal,p,78,22,Male,2021-02-17_14h52.34.937,exp11,2020.2.6,Win32,60,,,,,,,,,,,
,,,,,,,,,,,,,,p,1,1.250285,space,0.286195,0,7,7,78,1,15_dist_red/trial4.png,,,1,15,redHorizontal,p,78,22,Male,2021-02-17_14h52.34.937,exp11,2020.2.6,Win32,60,,,,,,,,,,,
,,,,,,,,,,,,,,p,1,1.024135,space,0.371895,0,8,8,47,1,3_dist_red/trial23.png,,,1,3,redHorizontal,p,78,22,Male,2021-02-17_14h52.34.937,exp11,2020.2.6,Win32,60,,,,,,,,,,,
,,,,,,,,,,,,,,a,1,0.91712,space,0.250455,0,9,9,114,1,0_targ_1_dist_red/trial15.png,,,0,1,redHorizontal,a,78,22,Male,2021-02-17_14h52.34.937,exp11,2020.2.6,Win32,60,,,,,,,,,,,
,,,,,,,,,,,,,,p,1,0.788015,space,0.282205,0,10,10,14,1,0_dist_red/trial15.png,,,1,0,redHorizontal,p,78,22,Male,2021-02-17_14h52.34.937,exp11,2020.2.6,Win32,60,,,,,,,,,,,
,,,,,,,,,,,,,,a,1,0.720985,space,0.233435,0,11,11,102,1,0_targ_1_dist_red/trial3.png,,,0,1,redHorizontal,a,78,22,Male,2021-02-17_14h52.34.937,exp11,2020.2.6,Win32,60,,,,,,,,,,,
,,,,,,,,,,,,,,a,1,0.832175,space,0.1557,0,12,12,142,1,0_targ_4_dist_red/trial18.png,,,0,4,redHorizontal,a,78,22,Male,2021-02-17_14h52.34.937,exp11,2020.2.6,Win32,60,,,,,,,,,,,
,,,,,,,,,,,,,,p,1,0.806505,space,0.29056,0,13,13,17,1,0_dist_red/trial18.png,,,1,0,redHorizontal,p,78,22,Male,2021-02-17_14h52.34.937,exp11,2020.2.6,Win32,60,,,,,,,,,,,
,,,,,,,,,,,,,,a,1,0.85829,space,0.288815,0,14,14,166,1,0_targ_10_dist_red/trial17.png,,,0,10,redHorizontal,a,78,22,Male,2021-02-17_14h52.34.937,exp11,2020.2.6,Win32,60,,,,,,,,,,,
,,,,,,,,,,,,,,p,1,0.790555,space,0.24683,0,15,15,8,1,0_dist_red/trial9.png,,,1,0,redHorizontal,p,78,22,Male,2021-02-17_14h52.34.937,exp11,2020.2.6,Win32,60,,,,,,,,,,,
,,,,,,,,,,,,,,p,1,0.780675,space,0.269245,0,16,16,21,1,0_dist_red/trial22.png,,,1,0,redHorizontal,p,78,22,Male,2021-02-17_14h52.34.937,exp11,2020.2.6,Win32,60,,,,,,,,,,,
,,,,,,,,,,,,,,p,1,1.3365,space,0.37728,0,17,17,79,1,15_dist_red/trial5.png,,,1,15,redHorizontal,p,78,22,Male,2021-02-17_14h52.34.937,exp11,2020.2.6,Win32,60,,,,,,,,,,,
,,,,,,,,,,,,,,a,1,1.29215,space,0.400675,0,18,18,188,1,0_targ_16_dist_red/trial14.png,,,0,16,redHorizontal,a,78,22,Male,2021-02-17_14h52.34.937,exp11,2020.2.6,Win32,60,,,,,,,,,,,
,,,,,,,,,,,,,,p,1,1.597475,space,0.507255,0,19,19,92,1,15_dist_red/trial18.png,,,1,15,redHorizontal,p,78,22,Male,2021-02-17_14h52.34.937,exp11,2020.2.6,Win32,60,,,,,,,,,,,
,,,,,,,,,,,,,,p,1,1.026145,space,0.451015,0,20,20,2,1,0_dist_red/trial3.png,,,1,0,redHorizontal,p,78,22,Male,2021-02-17_14h52.34.937,exp11,2020.2.6,Win32,60,,,,,,,,,,,
,,,,,,,,,,,,,,a,1,0.86308,space,0.344495,0,21,21,163,1,0_targ_10_dist_red/trial14.png,,,0,10,redHorizontal,a,78,22,Male,2021-02-17_14h52.34.937,exp11,2020.2.6,Win32,60,,,,,,,,,,,
,,,,,,,,,,,,,,p,0,0.87803,space,0.334465,0,22,22,107,1,0_targ_1_dist_red/trial8.png,,,0,1,redHorizontal,a,78,22,Male,2021-02-17_14h52.34.937,exp11,2020.2.6,Win32,60,,,,,,,,,,,
,,,,,,,,,,,,,,a,1,1.38195,space,0.17284,0,23,23,133,1,0_targ_4_dist_red/trial9.png,,,0,4,redHorizontal,a,78,22,Male,2021-02-17_14h52.34.937,exp11,2020.2.6,Win32,60,,,,,,,,,,,
,,,,,,,,,,,,,,a,1,1.133985,space,0.2986,0,24,24,187,1,0_targ_16_dist_red/trial13.png,,,0,16,redHorizontal,a,78,22,Male,2021-02-17_14h52.34.937,exp11,2020.2.6,Win32,60,,,,,,,,,,,
,,,,,,,,,,,,,,p,1,1.207185,space,0.68699,0,25,25,87,1,15_dist_red/trial13.png,,,1,15,redHorizontal,p,78,22,Male,2021-02-17_14h52.34.937,exp11,2020.2.6,Win32,60,,,,,,,,,,,
,,,,,,,,,,,,,,a,1,0.873815,space,0.504495,0,26,26,143,1,0_targ_4_dist_red/trial19.png,,,0,4,redHorizontal,a,78,22,Male,2021-02-17_14h52.34.937,exp11,2020.2.6,Win32,60,,,,,,,,,,,
,,,,,,,,,,,,,,p,1,1.293035,space,0.77252,0,27,27,71,1,9_dist_red/trial22.png,,,1,9,redHorizontal,p,78,22,Male,2021-02-17_14h52.34.937,exp11,2020.2.6,Win32,60,,,,,,,,,,,
,,,,,,,,,,,,,,a,1,2.16887,space,0.50296,0,28,28,189,1,0_targ_16_dist_red/trial15.png,,,0,16,redHorizontal,a,78,22,Male,2021-02-17_14h52.34.937,exp11,2020.2.6,Win32,60,,,,,,,,,,,
,,,,,,,,,,,,,,p,1,1.138145,space,0.40583,0,29,29,91,1,15_dist_red/trial17.png,,,1,15,redHorizontal,p,78,22,Male,2021-02-17_14h52.34.937,exp11,2020.2.6,Win32,60,,,,,,,,,,,
,,,,,,,,,,,,,,a,1,0.98322,space,0.51083,0,30,30,124,1,0_targ_1_dist_red/trial25.png,,,0,1,redHorizontal,a,78,22,Male,2021-02-17_14h52.34.937,exp11,2020.2.6,Win32,60,,,,,,,,,,,
,,,,,,,,,,,,,,a,1,1.35334,space,0.46888,0,31,31,170,1,0_targ_10_dist_red/trial21.png,,,0,10,redHorizontal,a,78,22,Male,2021-02-17_14h52.34.937,exp11,2020.2.6,Win32,60,,,,,,,,,,,
,,,,,,,,,,,,,,a,1,1.514635,space,0.34917,0,32,32,158,1,0_targ_10_dist_red/trial9.png,,,0,10,redHorizontal,a,78,22,Male,2021-02-17_14h52.34.937,exp11,2020.2.6,Win32,60,,,,,,,,,,,
,,,,,,,,,,,,,,p,1,0.9249,space,0.388905,0,33,33,19,1,0_dist_red/trial20.png,,,1,0,redHorizontal,p,78,22,Male,2021-02-17_14h52.34.937,exp11,2020.2.6,Win32,60,,,,,,,,,,,
,,,,,,,,,,,,,,p,1,1.16149,space,0.890555,0,34,34,99,1,15_dist_red/trial25.png,,,1,15,redHorizontal,p,78,22,Male,2021-02-17_14h52.34.937,exp11,2020.2.6,Win32,60,,,,,,,,,,,
,,,,,,,,,,,,,,a,1,1.419355,space,0.4203,0,35,35,190,1,0_targ_16_dist_red/trial16.png,,,0,16,redHorizontal,a,78,22,Male,2021-02-17_14h52.34.937,exp11,2020.2.6,Win32,60,,,,,,,,,,,
,,,,,,,,,,,,,,p,1,0.803485,space,0.42009,0,36,36,24,1,0_dist_red/trial25.png,,,1,0,redHorizontal,p,78,22,Male,2021-02-17_14h52.34.937,exp11,2020.2.6,Win32,60,,,,,,,,,,,
,,,,,,,,,,,,,,p,1,1.200875,space,0.48444,0,37,37,35,1,3_dist_red/trial11.png,,,1,3,redHorizontal,p,78,22,Male,2021-02-17_14h52.34.937,exp11,2020.2.6,Win32,60,,,,,,,,,,,
,,,,,,,,,,,,,,a,1,0.97616,space,0.372585,0,38,38,125,1,0_targ_4_dist_red/trial1.png,,,0,4,redHorizontal,a,78,22,Male,2021-02-17_14h52.34.937,exp11,2020.2.6,Win32,60,,,,,,,,,,,
,,,,,,,,,,,,,,p,1,0.9573,space,0.335765,0,39,39,4,1,0_dist_red/trial5.png,,,1,0,redHorizontal,p,78,22,Male,2021-02-17_14h52.34.937,exp11,2020.2.6,Win32,60,,,,,,,,,,,
,,,,,,,,,,,,,,a,1,1.882435,space,0.286735,0,40,40,197,1,0_targ_16_dist_red/trial23.png,,,0,16,redHorizontal,a,78,22,Male,2021-02-17_14h52.34.937,exp11,2020.2.6,Win32,60,,,,,,,,,,,
,,,,,,,,,,,,,,a,1,1.15502,space,0.318205,0,41,41,145,1,0_targ_4_dist_red/trial21.png,,,0,4,redHorizontal,a,78,22,Male,2021-02-17_14h52.34.937,exp11,2020.2.6,Win32,60,,,,,,,,,,,
,,,,,,,,,,,,,,p,1,0.782025,space,0.256635,0,42,42,33,1,3_dist_red/trial9.png,,,1,3,redHorizontal,p,78,22,Male,2021-02-17_14h52.34.937,exp11,2020.2.6,Win32,60,,,,,,,,,,,
,,,,,,,,,,,,,,p,1,0.81561,space,0.241475,0,43,43,0,1,0_dist_red/trial1.png,,,1,0,redHorizontal,p,78,22,Male,2021-02-17_14h52.34.937,exp11,2020.2.6,Win32,60,,,,,,,,,,,
,,,,,,,,,,,,,,a,1,0.96958,space,0.245875,0,44,44,138,1,0_targ_4_dist_red/trial14.png,,,0,4,redHorizontal,a,78,22,Male,2021-02-17_14h52.34.937,exp11,2020.2.6,Win32,60,,,,,,,,,,,
,,,,,,,,,,,,,,a,1,1.044385,space,0.217295,0,45,45,119,1,0_targ_1_dist_red/trial20.png,,,0,1,redHorizontal,a,78,22,Male,2021-02-17_14h52.34.937,exp11,2020.2.6,Win32,60,,,,,,,,,,,
,,,,,,,,,,,,,,a,1,1.427685,space,0.21172,0,46,46,179,1,0_targ_16_dist_red/trial5.png,,,0,16,redHorizontal,a,78,22,Male,2021-02-17_14h52.34.937,exp11,2020.2.6,Win32,60,,,,,,,,,,,
,,,,,,,,,,,,,,p,1,0.899745,space,0.19684,0,47,47,20,1,0_dist_red/trial21.png,,,1,0,redHorizontal,p,78,22,Male,2021-02-17_14h52.34.937,exp11,2020.2.6,Win32,60,,,,,,,,,,,
,,,,,,,,,,,,,,p,1,0.960415,space,0.17611,0,48,48,72,1,9_dist_red/trial23.png,,,1,9,redHorizontal,p,78,22,Male,2021-02-17_14h52.34.937,exp11,2020.2.6,Win32,60,,,,,,,,,,,
,,,,,,,,,,,,,,a,1,1.17865,space,0.143755,0,49,49,192,1,0_targ_16_dist_red/trial18.png,,,0,16,redHorizontal,a,78,22,Male,2021-02-17_14h52.34.937,exp11,2020.2.6,Win32,60,,,,,,,,,,,
,,,,,,,,,,,,,,p,1,1.22017,space,0.17924,0,50,50,94,1,15_dist_red/trial20.png,,,1,15,redHorizontal,p,78,22,Male,2021-02-17_14h52.34.937,exp11,2020.2.6,Win32,60,,,,,,,,,,,
,,,,,,,,,,,,,,a,1,0.81986,space,0.13375,0,51,51,123,1,0_targ_1_dist_red/trial24.png,,,0,1,redHorizontal,a,78,22,Male,2021-02-17_14h52.34.937,exp11,2020.2.6,Win32,60,,,,,,,,,,,
,,,,,,,,,,,,,,a,1,1.811355,space,0.149085,0,52,52,195,1,0_targ_16_dist_red/trial21.png,,,0,16,redHorizontal,a,78,22,Male,2021-02-17_14h52.34.937,exp11,2020.2.6,Win32,60,,,,,,,,,,,
,,,,,,,,,,,,,,p,1,0.82758,space,0.135285,0,53,53,13,1,0_dist_red/trial14.png,,,1,0,redHorizontal,p,78,22,Male,2021-02-17_14h52.34.937,exp11,2020.2.6,Win32,60,,,,,,,,,,,
,,,,,,,,,,,,,,p,1,0.82452,space,0.14701,0,54,54,3,1,0_dist_red/trial4.png,,,1,0,redHorizontal,p,78,22,Male,2021-02-17_14h52.34.937,exp11,2020.2.6,Win32,60,,,,,,,,,,,
,,,,,,,,,,,,,,a,1,0.94336,space,0.164635,0,55,55,169,1,0_targ_10_dist_red/trial20.png,,,0,10,redHorizontal,a,78,22,Male,2021-02-17_14h52.34.937,exp11,2020.2.6,Win32,60,,,,,,,,,,,
,,,,,,,,,,,,,,a,1,0.83906,space,0.50791,0,56,56,176,1,0_targ_16_dist_red/trial2.png,,,0,16,redHorizontal,a,78,22,Male,2021-02-17_14h52.34.937,exp11,2020.2.6,Win32,60,,,,,,,,,,,
,,,,,,,,,,,,,,p,1,0.926195,space,0.19232,0,57,57,76,1,15_dist_red/trial2.png,,,1,15,redHorizontal,p,78,22,Male,2021-02-17_14h52.34.937,exp11,2020.2.6,Win32,60,,,,,,,,,,,
,,,,,,,,,,,,,,a,1,0.89206,space,0.1287,0,58,58,109,1,0_targ_1_dist_red/trial10.png,,,0,1,redHorizontal,a,78,22,Male,2021-02-17_14h52.34.937,exp11,2020.2.6,Win32,60,,,,,,,,,,,
,,,,,,,,,,,,,,a,1,0.788185,space,0.205875,0,59,59,152,1,0_targ_10_dist_red/trial3.png,,,0,10,redHorizontal,a,78,22,Male,2021-02-17_14h52.34.937,exp11,2020.2.6,Win32,60,,,,,,,,,,,
,,,,,,,,,,,,,,p,1,0.933765,space,0.17063,0,60,60,56,1,9_dist_red/trial7.png,,,1,9,redHorizontal,p,78,22,Male,2021-02-17_14h52.34.937,exp11,2020.2.6,Win32,60,,,,,,,,,,,
,,,,,,,,,,,,,,p,1,1.26407,space,0.12697,0,61,61,95,1,15_dist_red/trial21.png,,,1,15,redHorizontal,p,78,22,Male,2021-02-17_14h52.34.937,exp11,2020.2.6,Win32,60,,,,,,,,,,,
,,,,,,,,,,,,,,a,1,0.965485,space,0.10367,0,62,62,162,1,0_targ_10_dist_red/trial13.png,,,0,10,redHorizontal,a,78,22,Male,2021-02-17_14h52.34.937,exp11,2020.2.6,Win32,60,,,,,,,,,,,
,,,,,,,,,,,,,,a,1,1.12047,space,0.135615,0,63,63,184,1,0_targ_16_dist_red/trial10.png,,,0,16,redHorizontal,a,78,22,Male,2021-02-17_14h52.34.937,exp11,2020.2.6,Win32,60,,,,,,,,,,,
,,,,,,,,,,,,,,a,1,1.03623,space,0.089445,0,64,64,150,1,0_targ_10_dist_red/trial1.png,,,0,10,redHorizontal,a,78,22,Male,2021-02-17_14h52.34.937,exp11,2020.2.6,Win32,60,,,,,,,,,,,
,,,,,,,,,,,,,,p,1,1.32469,space,0.110575,0,65,65,90,1,15_dist_red/trial16.png,,,1,15,redHorizontal,p,78,22,Male,2021-02-17_14h52.34.937,exp11,2020.2.6,Win32,60,,,,,,,,,,,
,,,,,,,,,,,,,,a,1,1.23974,space,0.101095,0,66,66,157,1,0_targ_10_dist_red/trial8.png,,,0,10,redHorizontal,a,78,22,Male,2021-02-17_14h52.34.937,exp11,2020.2.6,Win32,60,,,,,,,,,,,
,,,,,,,,,,,,,,a,1,0.9377,space,0.096635,0,67,67,139,1,0_targ_4_dist_red/trial15.png,,,0,4,redHorizontal,a,78,22,Male,2021-02-17_14h52.34.937,exp11,2020.2.6,Win32,60,,,,,,,,,,,
,,,,,,,,,,,,,,a,1,0.83404,space,0.078235,0,68,68,140,1,0_targ_4_dist_red/trial6.png,,,0,4,redHorizontal,a,78,22,Male,2021-02-17_14h52.34.937,exp11,2020.2.6,Win32,60,,,,,,,,,,,
,,,,,,,,,,,,,,p,1,1.15443,space,0.107795,0,69,69,54,1,9_dist_red/trial5.png,,,1,9,redHorizontal,p,78,22,Male,2021-02-17_14h52.34.937,exp11,2020.2.6,Win32,60,,,,,,,,,,,
,,,,,,,,,,,,,,a,1,1.18949,space,0.06957,0,70,70,172,1,0_targ_10_dist_red/trial23.png,,,0,10,redHorizontal,a,78,22,Male,2021-02-17_14h52.34.937,exp11,2020.2.6,Win32,60,,,,,,,,,,,
,,,,,,,,,,,,,,a,1,0.740605,space,0.109915,0,71,71,129,1,0_targ_4_dist_red/trial5.png,,,0,4,redHorizontal,a,78,22,Male,2021-02-17_14h52.34.937,exp11,2020.2.6,Win32,60,,,,,,,,,,,
,,,,,,,,,,,,,,a,1,1.137605,space,0.067615,0,72,72,144,1,0_targ_4_dist_red/trial20.png,,,0,4,redHorizontal,a,78,22,Male,2021-02-17_14h52.34.937,exp11,2020.2.6,Win32,60,,,,,,,,,,,
,,,,,,,,,,,,,,a,1,0.96972,space,0.06979,0,73,73,116,1,0_targ_1_dist_red/trial17.png,,,0,1,redHorizontal,a,78,22,Male,2021-02-17_14h52.34.937,exp11,2020.2.6,Win32,60,,,,,,,,,,,
,,,,,,,,,,,,,,a,1,1.632965,space,0.08396,0,74,74,155,1,0_targ_10_dist_red/trial6.png,,,0,10,redHorizontal,a,78,22,Male,2021-02-17_14h52.34.937,exp11,2020.2.6,Win32,60,,,,,,,,,,,
,,,,,,,,,,,,,,p,1,0.944575,space,0.7087,0,75,75,22,1,0_dist_red/trial23.png,,,1,0,redHorizontal,p,78,22,Male,2021-02-17_14h52.34.937,exp11,2020.2.6,Win32,60,,,,,,,,,,,
,,,,,,,,,,,,,,p,1,0.829945,space,0.176855,0,76,76,5,1,0_dist_red/trial6.png,,,1,0,redHorizontal,p,78,22,Male,2021-02-17_14h52.34.937,exp11,2020.2.6,Win32,60,,,,,,,,,,,
,,,,,,,,,,,,,,a,1,0.96809,space,0.12404,0,77,77,136,1,0_targ_4_dist_red/trial12.png,,,0,4,redHorizontal,a,78,22,Male,2021-02-17_14h52.34.937,exp11,2020.2.6,Win32,60,,,,,,,,,,,
,,,,,,,,,,,,,,a,1,0.86085,space,0.11742,0,78,78,110,1,0_targ_1_dist_red/trial11.png,,,0,1,redHorizontal,a,78,22,Male,2021-02-17_14h52.34.937,exp11,2020.2.6,Win32,60,,,,,,,,,,,
,,,,,,,,,,,,,,a,1,0.79263,space,0.086495,0,79,79,153,1,0_targ_10_dist_red/trial4.png,,,0,10,redHorizontal,a,78,22,Male,2021-02-17_14h52.34.937,exp11,2020.2.6,Win32,60,,,,,,,,,,,
,,,,,,,,,,,,,,p,1,1.35182,space,0.486165,0,80,80,53,1,9_dist_red/trial4.png,,,1,9,redHorizontal,p,78,22,Male,2021-02-17_14h52.34.937,exp11,2020.2.6,Win32,60,,,,,,,,,,,
,,,,,,,,,,,,,,p,1,0.76444,space,0.152955,0,81,81,1,1,0_dist_red/trial2.png,,,1,0,redHorizontal,p,78,22,Male,2021-02-17_14h52.34.937,exp11,2020.2.6,Win32,60,,,,,,,,,,,
,,,,,,,,,,,,,,p,1,0.737065,space,0.19626,0,82,82,10,1,0_dist_red/trial11.png,,,1,0,redHorizontal,p,78,22,Male,2021-02-17_14h52.34.937,exp11,2020.2.6,Win32,60,,,,,,,,,,,
,,,,,,,,,,,,,,p,1,1.299455,space,0.16524,0,83,83,89,1,15_dist_red/trial15.png,,,1,15,redHorizontal,p,78,22,Male,2021-02-17_14h52.34.937,exp11,2020.2.6,Win32,60,,,,,,,,,,,
,,,,,,,,,,,,,,a,1,1.19912,space,0.1059,0,84,84,161,1,0_targ_10_dist_red/trial12.png,,,0,10,redHorizontal,a,78,22,Male,2021-02-17_14h52.34.937,exp11,2020.2.6,Win32,60,,,,,,,,,,,
,,,,,,,,,,,,,,p,1,1.05563,space,0.150975,0,85,85,29,1,3_dist_red/trial5.png,,,1,3,redHorizontal,p,78,22,Male,2021-02-17_14h52.34.937,exp11,2020.2.6,Win32,60,,,,,,,,,,,
,,,,,,,,,,,,,,a,1,1.039055,space,0.136725,0,86,86,168,1,0_targ_10_dist_red/trial19.png,,,0,10,redHorizontal,a,78,22,Male,2021-02-17_14h52.34.937,exp11,2020.2.6,Win32,60,,,,,,,,,,,
,,,,,,,,,,,,,,p,1,0.904905,space,0.16206,0,87,87,30,1,3_dist_red/trial6.png,,,1,3,redHorizontal,p,78,22,Male,2021-02-17_14h52.34.937,exp11,2020.2.6,Win32,60,,,,,,,,,,,
,,,,,,,,,,,,,,a,1,1.260205,space,0.12514,0,88,88,182,1,0_targ_16_dist_red/trial8.png,,,0,16,redHorizontal,a,78,22,Male,2021-02-17_14h52.34.937,exp11,2020.2.6,Win32,60,,,,,,,,,,,
,,,,,,,,,,,,,,p,1,0.96682,space,0.151095,0,89,89,45,1,3_dist_red/trial21.png,,,1,3,redHorizontal,p,78,22,Male,2021-02-17_14h52.34.937,exp11,2020.2.6,Win32,60,,,,,,,,,,,
,,,,,,,,,,,,,,a,1,0.90919,space,0.101015,0,90,90,175,1,0_targ_16_dist_red/trial1.png,,,0,16,redHorizontal,a,78,22,Male,2021-02-17_14h52.34.937,exp11,2020.2.6,Win32,60,,,,,,,,,,,
,,,,,,,,,,,,,,a,1,1.07805,space,0.794325,0,91,91,130,1,0_targ_4_dist_red/trial6.png,,,0,4,redHorizontal,a,78,22,Male,2021-02-17_14h52.34.937,exp11,2020.2.6,Win32,60,,,,,,,,,,,
,,,,,,,,,,,,,,p,1,1.10938,space,0.26757,0,92,92,88,1,15_dist_red/trial14.png,,,1,15,redHorizontal,p,78,22,Male,2021-02-17_14h52.34.937,exp11,2020.2.6,Win32,60,,,,,,,,,,,
,,,,,,,,,,,,,,a,1,1.17518,space,0.604155,0,93,93,198,1,0_targ_16_dist_red/trial24.png,,,0,16,redHorizontal,a,78,22,Male,2021-02-17_14h52.34.937,exp11,2020.2.6,Win32,60,,,,,,,,,,,
,,,,,,,,,,,,,,p,1,0.920025,space,0.490495,0,94,94,86,1,15_dist_red/trial12.png,,,1,15,redHorizontal,p,78,22,Male,2021-02-17_14h52.34.937,exp11,2020.2.6,Win32,60,,,,,,,,,,,
,,,,,,,,,,,,,,a,1,1.08436,space,0.42384,0,95,95,177,1,0_targ_16_dist_red/trial3.png,,,0,16,redHorizontal,a,78,22,Male,2021-02-17_14h52.34.937,exp11,2020.2.6,Win32,60,,,,,,,,,,,
,,,,,,,,,,,,,,a,1,1.25914,space,0.467585,0,96,96,173,1,0_targ_10_dist_red/trial24.png,,,0,10,redHorizontal,a,78,22,Male,2021-02-17_14h52.34.937,exp11,2020.2.6,Win32,60,,,,,,,,,,,
,,,,,,,,,,,,,,a,1,0.883805,space,0.317615,0,97,97,121,1,0_targ_1_dist_red/trial22.png,,,0,1,redHorizontal,a,78,22,Male,2021-02-17_14h52.34.937,exp11,2020.2.6,Win32,60,,,,,,,,,,,
,,,,,,,,,,,,,,a,1,0.99258,space,0.401285,0,98,98,126,1,0_targ_4_dist_red/trial2.png,,,0,4,redHorizontal,a,78,22,Male,2021-02-17_14h52.34.937,exp11,2020.2.6,Win32,60,,,,,,,,,,,
,,,,,,,,,,,,,,p,1,1.026045,space,0.339355,0,99,99,51,1,9_dist_red/trial2.png,,,1,9,redHorizontal,p,78,22,Male,2021-02-17_14h52.34.937,exp11,2020.2.6,Win32,60,,,,,,,,,,,
,,,,,,,,,,,,,,p,1,0.75875,space,0.300585,0,100,100,18,1,0_dist_red/trial19.png,,,1,0,redHorizontal,p,78,22,Male,2021-02-17_14h52.34.937,exp11,2020.2.6,Win32,60,,,,,,,,,,,
,,,,,,,,,,,,,,p,1,1.48312,space,0.228155,0,101,101,70,1,9_dist_red/trial21.png,,,1,9,redHorizontal,p,78,22,Male,2021-02-17_14h52.34.937,exp11,2020.2.6,Win32,60,,,,,,,,,,,
,,,,,,,,,,,,,,a,1,1.131385,space,0.30062,0,102,102,183,1,0_targ_16_dist_red/trial9.png,,,0,16,redHorizontal,a,78,22,Male,2021-02-17_14h52.34.937,exp11,2020.2.6,Win32,60,,,,,,,,,,,
,,,,,,,,,,,,,,a,0,1.208835,space,0.034175,0,103,103,98,1,15_dist_red/trial24.png,,,1,15,redHorizontal,p,78,22,Male,2021-02-17_14h52.34.937,exp11,2020.2.6,Win32,60,,,,,,,,,,,
,,,,,,,,,,,,,,p,1,1.375215,space,0.15102,0,104,104,43,1,3_dist_red/trial19.png,,,1,3,redHorizontal,p,78,22,Male,2021-02-17_14h52.34.937,exp11,2020.2.6,Win32,60,,,,,,,,,,,
,,,,,,,,,,,,,,p,1,0.983,space,0.219625,0,105,105,63,1,9_dist_red/trial14.png,,,1,9,redHorizontal,p,78,22,Male,2021-02-17_14h52.34.937,exp11,2020.2.6,Win32,60,,,,,,,,,,,
,,,,,,,,,,,,,,p,1,1.142895,space,0.16733,0,106,106,84,1,15_dist_red/trial10.png,,,1,15,redHorizontal,p,78,22,Male,2021-02-17_14h52.34.937,exp11,2020.2.6,Win32,60,,,,,,,,,,,
,,,,,,,,,,,,,,p,1,1.10928,space,0.139935,0,107,107,66,1,9_dist_red/trial17.png,,,1,9,redHorizontal,p,78,22,Male,2021-02-17_14h52.34.937,exp11,2020.2.6,Win32,60,,,,,,,,,,,
,,,,,,,,,,,,,,a,1,1.061215,space,0.12123,0,108,108,127,1,0_targ_4_dist_red/trial3.png,,,0,4,redHorizontal,a,78,22,Male,2021-02-17_14h52.34.937,exp11,2020.2.6,Win32,60,,,,,,,,,,,
,,,,,,,,,,,,,,p,1,1.185305,space,0.70579,0,109,109,44,1,3_dist_red/trial20.png,,,1,3,redHorizontal,p,78,22,Male,2021-02-17_14h52.34.937,exp11,2020.2.6,Win32,60,,,,,,,,,,,
,,,,,,,,,,,,,,a,1,1.247615,space,0.173275,0,110,110,115,1,0_targ_1_dist_red/trial6.png,,,0,1,redHorizontal,a,78,22,Male,2021-02-17_14h52.34.937,exp11,2020.2.6,Win32,60,,,,,,,,,,,
,,,,,,,,,,,,,,p,1,0.962255,space,0.350905,0,111,111,39,1,3_dist_red/trial15.png,,,1,3,redHorizontal,p,78,22,Male,2021-02-17_14h52.34.937,exp11,2020.2.6,Win32,60,,,,,,,,,,,
,,,,,,,,,,,,,,p,1,1.136785,space,0.234335,0,112,112,74,1,9_dist_red/trial25.png,,,1,9,redHorizontal,p,78,22,Male,2021-02-17_14h52.34.937,exp11,2020.2.6,Win32,60,,,,,,,,,,,
,,,,,,,,,,,,,,a,1,1.14931,space,0.2022,0,113,113,108,1,0_targ_1_dist_red/trial9.png,,,0,1,redHorizontal,a,78,22,Male,2021-02-17_14h52.34.937,exp11,2020.2.6,Win32,60,,,,,,,,,,,
,,,,,,,,,,,,,,p,1,0.885535,space,0.304085,0,114,114,37,1,3_dist_red/trial13.png,,,1,3,redHorizontal,p,78,22,Male,2021-02-17_14h52.34.937,exp11,2020.2.6,Win32,60,,,,,,,,,,,
,,,,,,,,,,,,,,a,1,0.809805,space,0.311175,0,115,115,106,1,0_targ_1_dist_red/trial7.png,,,0,1,redHorizontal,a,78,22,Male,2021-02-17_14h52.34.937,exp11,2020.2.6,Win32,60,,,,,,,,,,,
,,,,,,,,,,,,,,p,1,0.99431,space,0.353845,0,116,116,25,1,3_dist_red/trial1.png,,,1,3,redHorizontal,p,78,22,Male,2021-02-17_14h52.34.937,exp11,2020.2.6,Win32,60,,,,,,,,,,,
,,,,,,,,,,,,,,p,1,0.895095,space,0.184685,0,117,117,46,1,3_dist_red/trial22.png,,,1,3,redHorizontal,p,78,22,Male,2021-02-17_14h52.34.937,exp11,2020.2.6,Win32,60,,,,,,,,,,,
,,,,,,,,,,,,,,p,1,0.75963,space,0.2787,0,118,118,28,1,3_dist_red/trial4.png,,,1,3,redHorizontal,p,78,22,Male,2021-02-17_14h52.34.937,exp11,2020.2.6,Win32,60,,,,,,,,,,,
,,,,,,,,,,,,,,p,1,0.77541,space,0.217365,0,119,119,50,1,9_dist_red/trial1.png,,,1,9,redHorizontal,p,78,22,Male,2021-02-17_14h52.34.937,exp11,2020.2.6,Win32,60,,,,,,,,,,,
,,,,,,,,,,,,,,a,1,0.762205,space,0.16965,0,120,120,120,1,0_targ_1_dist_red/trial21.png,,,0,1,redHorizontal,a,78,22,Male,2021-02-17_14h52.34.937,exp11,2020.2.6,Win32,60,,,,,,,,,,,
,,,,,,,,,,,,,,p,1,0.90936,space,0.200945,0,121,121,34,1,3_dist_red/trial10.png,,,1,3,redHorizontal,p,78,22,Male,2021-02-17_14h52.34.937,exp11,2020.2.6,Win32,60,,,,,,,,,,,
,,,,,,,,,,,,,,p,1,0.77847,space,0.58933,0,122,122,9,1,0_dist_red/trial10.png,,,1,0,redHorizontal,p,78,22,Male,2021-02-17_14h52.34.937,exp11,2020.2.6,Win32,60,,,,,,,,,,,
,,,,,,,,,,,,,,p,1,0.91551,space,0.244385,0,123,123,96,1,15_dist_red/trial22.png,,,1,15,redHorizontal,p,78,22,Male,2021-02-17_14h52.34.937,exp11,2020.2.6,Win32,60,,,,,,,,,,,
,,,,,,,,,,,,,,a,1,1.14853,space,0.259555,0,124,124,181,1,0_targ_16_dist_red/trial7.png,,,0,16,redHorizontal,a,78,22,Male,2021-02-17_14h52.34.937,exp11,2020.2.6,Win32,60,,,,,,,,,,,
,,,,,,,,,,,,,,p,1,0.97766,space,0.261035,0,125,125,26,1,3_dist_red/trial2.png,,,1,3,redHorizontal,p,78,22,Male,2021-02-17_14h52.34.937,exp11,2020.2.6,Win32,60,,,,,,,,,,,
,,,,,,,,,,,,,,a,1,1.23809,space,0.261755,0,126,126,148,1,0_targ_4_dist_red/trial24.png,,,0,4,redHorizontal,a,78,22,Male,2021-02-17_14h52.34.937,exp11,2020.2.6,Win32,60,,,,,,,,,,,
,,,,,,,,,,,,,,a,1,0.85075,space,0.160345,0,127,127,118,1,0_targ_1_dist_red/trial19.png,,,0,1,redHorizontal,a,78,22,Male,2021-02-17_14h52.34.937,exp11,2020.2.6,Win32,60,,,,,,,,,,,
,,,,,,,,,,,,,,a,1,0.835525,space,0.17879,0,128,128,160,1,0_targ_10_dist_red/trial11.png,,,0,10,redHorizontal,a,78,22,Male,2021-02-17_14h52.34.937,exp11,2020.2.6,Win32,60,,,,,,,,,,,
,,,,,,,,,,,,,,a,1,0.626525,space,0.174605,0,129,129,112,1,0_targ_1_dist_red/trial13.png,,,0,1,redHorizontal,a,78,22,Male,2021-02-17_14h52.34.937,exp11,2020.2.6,Win32,60,,,,,,,,,,,
,,,,,,,,,,,,,,p,1,1.135195,space,0.16806,0,130,130,38,1,3_dist_red/trial14.png,,,1,3,redHorizontal,p,78,22,Male,2021-02-17_14h52.34.937,exp11,2020.2.6,Win32,60,,,,,,,,,,,
,,,,,,,,,,,,,,p,1,1.000005,space,0.137805,0,131,131,16,1,0_dist_red/trial17.png,,,1,0,redHorizontal,p,78,22,Male,2021-02-17_14h52.34.937,exp11,2020.2.6,Win32,60,,,,,,,,,,,
,,,,,,,,,,,,,,p,1,0.614955,space,0.495225,0,132,132,42,1,3_dist_red/trial18.png,,,1,3,redHorizontal,p,78,22,Male,2021-02-17_14h52.34.937,exp11,2020.2.6,Win32,60,,,,,,,,,,,
,,,,,,,,,,,,,,a,1,1.378895,space,0.1421,0,133,133,131,1,0_targ_4_dist_red/trial7.png,,,0,4,redHorizontal,a,78,22,Male,2021-02-17_14h52.34.937,exp11,2020.2.6,Win32,60,,,,,,,,,,,
,,,,,,,,,,,,,,a,1,1.18559,space,0.12898,0,134,134,199,1,0_targ_16_dist_red/trial25.png,,,0,16,redHorizontal,a,78,22,Male,2021-02-17_14h52.34.937,exp11,2020.2.6,Win32,60,,,,,,,,,,,
,,,,,,,,,,,,,,p,1,1.21866,space,0.15101,0,135,135,58,1,9_dist_red/trial9.png,,,1,9,redHorizontal,p,78,22,Male,2021-02-17_14h52.34.937,exp11,2020.2.6,Win32,60,,,,,,,,,,,
,,,,,,,,,,,,,,p,1,0.76589,space,0.16314,0,136,136,55,1,9_dist_red/trial6.png,,,1,9,redHorizontal,p,78,22,Male,2021-02-17_14h52.34.937,exp11,2020.2.6,Win32,60,,,,,,,,,,,
,,,,,,,,,,,,,,a,1,0.914705,space,0.11763,0,137,137,141,1,0_targ_4_dist_red/trial17.png,,,0,4,redHorizontal,a,78,22,Male,2021-02-17_14h52.34.937,exp11,2020.2.6,Win32,60,,,,,,,,,,,
,,,,,,,,,,,,,,a,1,0.72663,space,0.15189,0,138,138,128,1,0_targ_4_dist_red/trial4.png,,,0,4,redHorizontal,a,78,22,Male,2021-02-17_14h52.34.937,exp11,2020.2.6,Win32,60,,,,,,,,,,,
,,,,,,,,,,,,,,p,1,0.88438,space,0.1672,0,139,139,40,1,3_dist_red/trial16.png,,,1,3,redHorizontal,p,78,22,Male,2021-02-17_14h52.34.937,exp11,2020.2.6,Win32,60,,,,,,,,,,,
,,,,,,,,,,,,,,a,1,0.8752,space,0.13417,0,140,140,113,1,0_targ_1_dist_red/trial14.png,,,0,1,redHorizontal,a,78,22,Male,2021-02-17_14h52.34.937,exp11,2020.2.6,Win32,60,,,,,,,,,,,
,,,,,,,,,,,,,,p,1,1.30011,space,0.172455,0,141,141,67,1,9_dist_red/trial18.png,,,1,9,redHorizontal,p,78,22,Male,2021-02-17_14h52.34.937,exp11,2020.2.6,Win32,60,,,,,,,,,,,
,,,,,,,,,,,,,,p,1,0.95484,space,0.170235,0,142,142,93,1,15_dist_red/trial19.png,,,1,15,redHorizontal,p,78,22,Male,2021-02-17_14h52.34.937,exp11,2020.2.6,Win32,60,,,,,,,,,,,
,,,,,,,,,,,,,,p,1,0.90972,space,0.18429,0,143,143,59,1,9_dist_red/trial10.png,,,1,9,redHorizontal,p,78,22,Male,2021-02-17_14h52.34.937,exp11,2020.2.6,Win32,60,,,,,,,,,,,
,,,,,,,,,,,,,,p,1,0.74214,space,0.151965,0,144,144,83,1,15_dist_red/trial9.png,,,1,15,redHorizontal,p,78,22,Male,2021-02-17_14h52.34.937,exp11,2020.2.6,Win32,60,,,,,,,,,,,
,,,,,,,,,,,,,,p,1,0.62952,space,0.204785,0,145,145,31,1,3_dist_red/trial7.png,,,1,3,redHorizontal,p,78,22,Male,2021-02-17_14h52.34.937,exp11,2020.2.6,Win32,60,,,,,,,,,,,
,,,,,,,,,,,,,,p,1,0.690515,space,0.15706,0,146,146,60,1,9_dist_red/trial11.png,,,1,9,redHorizontal,p,78,22,Male,2021-02-17_14h52.34.937,exp11,2020.2.6,Win32,60,,,,,,,,,,,
,,,,,,,,,,,,,,a,1,1.243515,space,0.11311,0,147,147,159,1,0_targ_10_dist_red/trial10.png,,,0,10,redHorizontal,a,78,22,Male,2021-02-17_14h52.34.937,exp11,2020.2.6,Win32,60,,,,,,,,,,,
,,,,,,,,,,,,,,a,1,0.678055,space,0.14352,0,148,148,137,1,0_targ_4_dist_red/trial13.png,,,0,4,redHorizontal,a,78,22,Male,2021-02-17_14h52.34.937,exp11,2020.2.6,Win32,60,,,,,,,,,,,
,,,,,,,,,,,,,,a,1,0.86559,space,0.228305,0,149,149,156,1,0_targ_10_dist_red/trial7.png,,,0,10,redHorizontal,a,78,22,Male,2021-02-17_14h52.34.937,exp11,2020.2.6,Win32,60,,,,,,,,,,,
,,,,,,,,,,,,,,a,1,0.647185,space,0.15528,0,150,150,167,1,0_targ_10_dist_red/trial18.png,,,0,10,redHorizontal,a,78,22,Male,2021-02-17_14h52.34.937,exp11,2020.2.6,Win32,60,,,,,,,,,,,
,,,,,,,,,,,,,,a,1,0.70993,space,0.39428,0,151,151,154,1,0_targ_10_dist_red/trial5.png,,,0,10,redHorizontal,a,78,22,Male,2021-02-17_14h52.34.937,exp11,2020.2.6,Win32,60,,,,,,,,,,,
,,,,,,,,,,,,,,p,1,1.042855,space,0.137135,0,152,152,7,1,0_dist_red/trial8.png,,,1,0,redHorizontal,p,78,22,Male,2021-02-17_14h52.34.937,exp11,2020.2.6,Win32,60,,,,,,,,,,,
,,,,,,,,,,,,,,p,1,0.793245,space,0.153165,0,153,153,6,1,0_dist_red/trial7.png,,,1,0,redHorizontal,p,78,22,Male,2021-02-17_14h52.34.937,exp11,2020.2.6,Win32,60,,,,,,,,,,,
,,,,,,,,,,,,,,p,1,0.49324,space,0.1787,0,154,154,23,1,0_dist_red/trial24.png,,,1,0,redHorizontal,p,78,22,Male,2021-02-17_14h52.34.937,exp11,2020.2.6,Win32,60,,,,,,,,,,,
,,,,,,,,,,,,,,p,1,1.033595,space,0.160085,0,155,155,97,1,15_dist_red/trial23.png,,,1,15,redHorizontal,p,78,22,Male,2021-02-17_14h52.34.937,exp11,2020.2.6,Win32,60,,,,,,,,,,,
,,,,,,,,,,,,,,p,1,0.713765,space,0.752585,0,156,156,73,1,9_dist_red/trial24.png,,,1,9,redHorizontal,p,78,22,Male,2021-02-17_14h52.34.937,exp11,2020.2.6,Win32,60,,,,,,,,,,,
,,,,,,,,,,,,,,a,1,0.89305,space,0.27094,0,157,157,117,1,0_targ_1_dist_red/trial18.png,,,0,1,redHorizontal,a,78,22,Male,2021-02-17_14h52.34.937,exp11,2020.2.6,Win32,60,,,,,,,,,,,
,,,,,,,,,,,,,,p,1,1.143365,space,0.20672,0,158,158,69,1,9_dist_red/trial20.png,,,1,9,redHorizontal,p,78,22,Male,2021-02-17_14h52.34.937,exp11,2020.2.6,Win32,60,,,,,,,,,,,
,,,,,,,,,,,,,,a,1,1.04326,space,0.2005,0,159,159,174,1,0_targ_10_dist_red/trial25.png,,,0,10,redHorizontal,a,78,22,Male,2021-02-17_14h52.34.937,exp11,2020.2.6,Win32,60,,,,,,,,,,,
,,,,,,,,,,,,,,p,1,0.962975,space,0.18892,0,160,160,12,1,0_dist_red/trial13.png,,,1,0,redHorizontal,p,78,22,Male,2021-02-17_14h52.34.937,exp11,2020.2.6,Win32,60,,,,,,,,,,,
,,,,,,,,,,,,,,p,1,0.70917,space,0.884015,0,161,161,64,1,9_dist_red/trial15.png,,,1,9,redHorizontal,p,78,22,Male,2021-02-17_14h52.34.937,exp11,2020.2.6,Win32,60,,,,,,,,,,,
,,,,,,,,,,,,,,a,1,1.26657,space,0.16841,0,162,162,186,1,0_targ_16_dist_red/trial12.png,,,0,16,redHorizontal,a,78,22,Male,2021-02-17_14h52.34.937,exp11,2020.2.6,Win32,60,,,,,,,,,,,
,,,,,,,,,,,,,,a,1,1.115045,space,0.16789,0,163,163,146,1,0_targ_4_dist_red/trial22.png,,,0,4,redHorizontal,a,78,22,Male,2021-02-17_14h52.34.937,exp11,2020.2.6,Win32,60,,,,,,,,,,,
,,,,,,,,,,,,,,p,1,0.98449,space,0.173905,0,164,164,61,1,9_dist_red/trial12.png,,,1,9,redHorizontal,p,78,22,Male,2021-02-17_14h52.34.937,exp11,2020.2.6,Win32,60,,,,,,,,,,,
,,,,,,,,,,,,,,a,1,0.984655,space,0.167385,0,165,165,164,1,0_targ_10_dist_red/trial15.png,,,0,10,redHorizontal,a,78,22,Male,2021-02-17_14h52.34.937,exp11,2020.2.6,Win32,60,,,,,,,,,,,
,,,,,,,,,,,,,,a,1,0.983905,space,0.12761,0,166,166,151,1,0_targ_10_dist_red/trial2.png,,,0,10,redHorizontal,a,78,22,Male,2021-02-17_14h52.34.937,exp11,2020.2.6,Win32,60,,,,,,,,,,,
,,,,,,,,,,,,,,p,1,0.982865,space,0.11735,0,167,167,85,1,15_dist_red/trial11.png,,,1,15,redHorizontal,p,78,22,Male,2021-02-17_14h52.34.937,exp11,2020.2.6,Win32,60,,,,,,,,,,,
,,,,,,,,,,,,,,p,1,0.777055,space,0.183915,0,168,168,32,1,3_dist_red/trial8.png,,,1,3,redHorizontal,p,78,22,Male,2021-02-17_14h52.34.937,exp11,2020.2.6,Win32,60,,,,,,,,,,,
,,,,,,,,,,,,,,a,1,1.10331,space,0.11874,0,169,169,194,1,0_targ_16_dist_red/trial20.png,,,0,16,redHorizontal,a,78,22,Male,2021-02-17_14h52.34.937,exp11,2020.2.6,Win32,60,,,,,,,,,,,
,,,,,,,,,,,,,,p,1,0.829595,space,0.38709,0,170,170,57,1,9_dist_red/trial8.png,,,1,9,redHorizontal,p,78,22,Male,2021-02-17_14h52.34.937,exp11,2020.2.6,Win32,60,,,,,,,,,,,
,,,,,,,,,,,,,,p,1,0.82929,space,0.258175,0,171,171,82,1,15_dist_red/trial8.png,,,1,15,redHorizontal,p,78,22,Male,2021-02-17_14h52.34.937,exp11,2020.2.6,Win32,60,,,,,,,,,,,
,,,,,,,,,,,,,,a,1,0.960265,space,0.173575,0,172,172,135,1,0_targ_4_dist_red/trial11.png,,,0,4,redHorizontal,a,78,22,Male,2021-02-17_14h52.34.937,exp11,2020.2.6,Win32,60,,,,,,,,,,,
,,,,,,,,,,,,,,a,1,0.92724,space,0.184065,0,173,173,178,1,0_targ_16_dist_red/trial4.png,,,0,16,redHorizontal,a,78,22,Male,2021-02-17_14h52.34.937,exp11,2020.2.6,Win32,60,,,,,,,,,,,
,,,,,,,,,,,,,,p,1,0.82875,space,0.186825,0,174,174,81,1,15_dist_red/trial7.png,,,1,15,redHorizontal,p,78,22,Male,2021-02-17_14h52.34.937,exp11,2020.2.6,Win32,60,,,,,,,,,,,
,,,,,,,,,,,,,,p,1,0.926565,space,0.18424,0,175,175,75,1,15_dist_red/trial1.png,,,1,15,redHorizontal,p,78,22,Male,2021-02-17_14h52.34.937,exp11,2020.2.6,Win32,60,,,,,,,,,,,
,,,,,,,,,,,,,,p,1,0.67694,space,0.40789,0,176,176,65,1,9_dist_red/trial16.png,,,1,9,redHorizontal,p,78,22,Male,2021-02-17_14h52.34.937,exp11,2020.2.6,Win32,60,,,,,,,,,,,
,,,,,,,,,,,,,,a,1,1.168795,space,0.190605,0,177,177,185,1,0_targ_16_dist_red/trial11.png,,,0,16,redHorizontal,a,78,22,Male,2021-02-17_14h52.34.937,exp11,2020.2.6,Win32,60,,,,,,,,,,,
,,,,,,,,,,,,,,a,1,0.66915,space,0.18464,0,178,178,149,1,0_targ_4_dist_red/trial25.png,,,0,4,redHorizontal,a,78,22,Male,2021-02-17_14h52.34.937,exp11,2020.2.6,Win32,60,,,,,,,,,,,
,,,,,,,,,,,,,,a,1,0.76702,space,0.22862,0,179,179,100,1,0_targ_1_dist_red/trial1.png,,,0,1,redHorizontal,a,78,22,Male,2021-02-17_14h52.34.937,exp11,2020.2.6,Win32,60,,,,,,,,,,,
,,,,,,,,,,,,,,p,1,0.98373,space,0.16755,0,180,180,41,1,3_dist_red/trial17.png,,,1,3,redHorizontal,p,78,22,Male,2021-02-17_14h52.34.937,exp11,2020.2.6,Win32,60,,,,,,,,,,,
,,,,,,,,,,,,,,a,1,0.86304,space,0.17409,0,181,181,105,1,0_targ_1_dist_red/trial6.png,,,0,1,redHorizontal,a,78,22,Male,2021-02-17_14h52.34.937,exp11,2020.2.6,Win32,60,,,,,,,,,,,
,,,,,,,,,,,,,,a,1,0.74584,space,0.13453,0,182,182,104,1,0_targ_1_dist_red/trial5.png,,,0,1,redHorizontal,a,78,22,Male,2021-02-17_14h52.34.937,exp11,2020.2.6,Win32,60,,,,,,,,,,,
,,,,,,,,,,,,,,a,1,0.72674,space,0.137505,0,183,183,147,1,0_targ_4_dist_red/trial23.png,,,0,4,redHorizontal,a,78,22,Male,2021-02-17_14h52.34.937,exp11,2020.2.6,Win32,60,,,,,,,,,,,
,,,,,,,,,,,,,,a,1,0.626145,space,0.15057,0,184,184,171,1,0_targ_10_dist_red/trial22.png,,,0,10,redHorizontal,a,78,22,Male,2021-02-17_14h52.34.937,exp11,2020.2.6,Win32,60,,,,,,,,,,,
,,,,,,,,,,,,,,p,1,1.011815,space,0.143215,0,185,185,68,1,9_dist_red/trial19.png,,,1,9,redHorizontal,p,78,22,Male,2021-02-17_14h52.34.937,exp11,2020.2.6,Win32,60,,,,,,,,,,,
,,,,,,,,,,,,,,p,1,0.759095,space,0.321625,0,186,186,52,1,9_dist_red/trial3.png,,,1,9,redHorizontal,p,78,22,Male,2021-02-17_14h52.34.937,exp11,2020.2.6,Win32,60,,,,,,,,,,,
,,,,,,,,,,,,,,a,1,1.132175,space,0.1934,0,187,187,193,1,0_targ_16_dist_red/trial19.png,,,0,16,redHorizontal,a,78,22,Male,2021-02-17_14h52.34.937,exp11,2020.2.6,Win32,60,,,,,,,,,,,
,,,,,,,,,,,,,,p,1,0.80357,space,0.160575,0,188,188,62,1,9_dist_red/trial13.png,,,1,9,redHorizontal,p,78,22,Male,2021-02-17_14h52.34.937,exp11,2020.2.6,Win32,60,,,,,,,,,,,
,,,,,,,,,,,,,,a,1,0.7652,space,0.84277,0,189,189,111,1,0_targ_1_dist_red/trial12.png,,,0,1,redHorizontal,a,78,22,Male,2021-02-17_14h52.34.937,exp11,2020.2.6,Win32,60,,,,,,,,,,,
,,,,,,,,,,,,,,p,1,0.946555,space,0.205645,0,190,190,48,1,3_dist_red/trial24.png,,,1,3,redHorizontal,p,78,22,Male,2021-02-17_14h52.34.937,exp11,2020.2.6,Win32,60,,,,,,,,,,,
,,,,,,,,,,,,,,a,1,0.84742,space,0.18684,0,191,191,180,1,0_targ_16_dist_red/trial6.png,,,0,16,redHorizontal,a,78,22,Male,2021-02-17_14h52.34.937,exp11,2020.2.6,Win32,60,,,,,,,,,,,
,,,,,,,,,,,,,,a,1,0.69508,space,0.171825,0,192,192,101,1,0_targ_1_dist_red/trial2.png,,,0,1,redHorizontal,a,78,22,Male,2021-02-17_14h52.34.937,exp11,2020.2.6,Win32,60,,,,,,,,,,,
,,,,,,,,,,,,,,a,1,0.6636,space,0.161185,0,193,193,165,1,0_targ_10_dist_red/trial16.png,,,0,10,redHorizontal,a,78,22,Male,2021-02-17_14h52.34.937,exp11,2020.2.6,Win32,60,,,,,,,,,,,
,,,,,,,,,,,,,,p,1,1.26196,space,0.10633,0,194,194,77,1,15_dist_red/trial3.png,,,1,15,redHorizontal,p,78,22,Male,2021-02-17_14h52.34.937,exp11,2020.2.6,Win32,60,,,,,,,,,,,
,,,,,,,,,,,,,,a,1,0.86824,space,0.15525,0,195,195,103,1,0_targ_1_dist_red/trial4.png,,,0,1,redHorizontal,a,78,22,Male,2021-02-17_14h52.34.937,exp11,2020.2.6,Win32,60,,,,,,,,,,,
,,,,,,,,,,,,,,p,1,1.143625,space,0.136785,0,196,196,15,1,0_dist_red/trial16.png,,,1,0,redHorizontal,p,78,22,Male,2021-02-17_14h52.34.937,exp11,2020.2.6,Win32,60,,,,,,,,,,,
,,,,,,,,,,,,,,p,1,1.027215,space,0.117515,0,197,197,27,1,3_dist_red/trial3.png,,,1,3,redHorizontal,p,78,22,Male,2021-02-17_14h52.34.937,exp11,2020.2.6,Win32,60,,,,,,,,,,,
,,,,,,,,,,,,,,a,1,0.816335,space,0.157905,0,198,198,132,1,0_targ_4_dist_red/trial8.png,,,0,4,redHorizontal,a,78,22,Male,2021-02-17_14h52.34.937,exp11,2020.2.6,Win32,60,,,,,,,,,,,
,,,,,,,,,,,,,,p,1,1.382955,space,0.155215,0,199,199,49,1,3_dist_red/trial25.png,,,1,3,redHorizontal,p,78,22,Male,2021-02-17_14h52.34.937,exp11,2020.2.6,Win32,60,,,,,,,,,,,
,,,,,,,,,,,,,,,,,,,,,,,,,,,,,,,78,22,Male,2021-02-17_14h52.34.937,exp11,2020.2.6,Win32,60,0,0,0,1,1,conRed.xlsx,red horizontal,Look for red horizontal bar (target) and indicate if it is present or absent in the array. If red horizontal target is present press 'p' and if absent press 'a'. Press SPACE to start.,,,
,,,,,,,,,,space,6.22899,space,0.897715,a,1,0.98859,space,0.133035,0,0,0,119,1,0_targ_1_dist_green/trial20.png,,,0,1,greenverival,a,78,22,Male,2021-02-17_14h52.34.937,exp11,2020.2.6,Win32,60,,,,,,,,,,,
,,,,,,,,,,,,,,a,1,1.192805,space,0.117995,0,1,1,199,1,0_targ_16_dist_green/trial25.png,,,0,16,greenverival,a,78,22,Male,2021-02-17_14h52.34.937,exp11,2020.2.6,Win32,60,,,,,,,,,,,
,,,,,,,,,,,,,,p,1,1.159325,space,0.177385,0,2,2,80,1,15_dist_green/trial6.png,,,1,15,greenverival,p,78,22,Male,2021-02-17_14h52.34.937,exp11,2020.2.6,Win32,60,,,,,,,,,,,
,,,,,,,,,,,,,,a,1,1.35391,space,0.276195,0,3,3,153,1,0_targ_10_dist_green/trial4.png,,,0,10,greenverival,a,78,22,Male,2021-02-17_14h52.34.937,exp11,2020.2.6,Win32,60,,,,,,,,,,,
,,,,,,,,,,,,,,a,1,1.38279,space,0.141165,0,4,4,178,1,0_targ_16_dist_green/trial4.png,,,0,16,greenverival,a,78,22,Male,2021-02-17_14h52.34.937,exp11,2020.2.6,Win32,60,,,,,,,,,,,
,,,,,,,,,,,,,,p,1,1.101345,space,0.22392,0,5,5,70,1,9_dist_green/trial21.png,,,1,9,greenverival,p,78,22,Male,2021-02-17_14h52.34.937,exp11,2020.2.6,Win32,60,,,,,,,,,,,
,,,,,,,,,,,,,,a,1,0.900835,space,0.287875,0,6,6,110,1,0_targ_1_dist_green/trial11.png,,,0,1,greenverival,a,78,22,Male,2021-02-17_14h52.34.937,exp11,2020.2.6,Win32,60,,,,,,,,,,,
,,,,,,,,,,,,,,a,1,1.121885,space,0.150865,0,7,7,192,1,0_targ_16_dist_green/trial18.png,,,0,16,greenverival,a,78,22,Male,2021-02-17_14h52.34.937,exp11,2020.2.6,Win32,60,,,,,,,,,,,
,,,,,,,,,,,,,,p,1,1.145855,space,0.217695,0,8,8,54,1,9_dist_green/trial5.png,,,1,9,greenverival,p,78,22,Male,2021-02-17_14h52.34.937,exp11,2020.2.6,Win32,60,,,,,,,,,,,
,,,,,,,,,,,,,,p,1,0.902905,space,0.156015,0,9,9,17,1,0_dist_green/trial18.png,,,1,0,greenverival,p,78,22,Male,2021-02-17_14h52.34.937,exp11,2020.2.6,Win32,60,,,,,,,,,,,
,,,,,,,,,,,,,,a,1,1.412355,space,0.396305,0,10,10,157,1,0_targ_10_dist_green/trial8.png,,,0,10,greenverival,a,78,22,Male,2021-02-17_14h52.34.937,exp11,2020.2.6,Win32,60,,,,,,,,,,,
,,,,,,,,,,,,,,a,1,0.930565,space,0.120025,0,11,11,123,1,0_targ_1_dist_green/trial24.png,,,0,1,greenverival,a,78,22,Male,2021-02-17_14h52.34.937,exp11,2020.2.6,Win32,60,,,,,,,,,,,
,,,,,,,,,,,,,,p,1,0.999775,space,0.16977,0,12,12,43,1,3_dist_green/trial19.png,,,1,3,greenverival,p,78,22,Male,2021-02-17_14h52.34.937,exp11,2020.2.6,Win32,60,,,,,,,,,,,
,,,,,,,,,,,,,,p,1,1.444795,space,0.11882,0,13,13,68,1,9_dist_green/trial19.png,,,1,9,greenverival,p,78,22,Male,2021-02-17_14h52.34.937,exp11,2020.2.6,Win32,60,,,,,,,,,,,
,,,,,,,,,,,,,,p,1,0.909665,space,0.1115,0,14,14,5,1,0_dist_green/trial6.png,,,1,0,greenverival,p,78,22,Male,2021-02-17_14h52.34.937,exp11,2020.2.6,Win32,60,,,,,,,,,,,
,,,,,,,,,,,,,,a,1,1.277885,space,0.142555,0,15,15,150,1,0_targ_10_dist_green/trial1.png,,,0,10,greenverival,a,78,22,Male,2021-02-17_14h52.34.937,exp11,2020.2.6,Win32,60,,,,,,,,,,,
,,,,,,,,,,,,,,p,1,0.86906,space,0.20085,0,16,16,41,1,3_dist_green/trial17.png,,,1,3,greenverival,p,78,22,Male,2021-02-17_14h52.34.937,exp11,2020.2.6,Win32,60,,,,,,,,,,,
,,,,,,,,,,,,,,a,1,1.46155,space,0.09113,0,17,17,159,1,0_targ_10_dist_green/trial10.png,,,0,10,greenverival,a,78,22,Male,2021-02-17_14h52.34.937,exp11,2020.2.6,Win32,60,,,,,,,,,,,
,,,,,,,,,,,,,,a,1,0.55879,space,0.11029,0,18,18,109,1,0_targ_1_dist_green/trial10.png,,,0,1,greenverival,a,78,22,Male,2021-02-17_14h52.34.937,exp11,2020.2.6,Win32,60,,,,,,,,,,,
,,,,,,,,,,,,,,a,1,1.01978,space,0.045305,0,19,19,191,1,0_targ_16_dist_green/trial17.png,,,0,16,greenverival,a,78,22,Male,2021-02-17_14h52.34.937,exp11,2020.2.6,Win32,60,,,,,,,,,,,
,,,,,,,,,,,,,,p,1,1.151055,space,0.117985,0,20,20,49,1,3_dist_green/trial25.png,,,1,3,greenverival,p,78,22,Male,2021-02-17_14h52.34.937,exp11,2020.2.6,Win32,60,,,,,,,,,,,
,,,,,,,,,,,,,,a,1,0.89963,space,0.126955,0,21,21,145,1,0_targ_4_dist_green/trial21.png,,,0,4,greenverival,a,78,22,Male,2021-02-17_14h52.34.937,exp11,2020.2.6,Win32,60,,,,,,,,,,,
,,,,,,,,,,,,,,a,1,0.881635,space,0.124345,0,22,22,179,1,0_targ_16_dist_green/trial5.png,,,0,16,greenverival,a,78,22,Male,2021-02-17_14h52.34.937,exp11,2020.2.6,Win32,60,,,,,,,,,,,
,,,,,,,,,,,,,,p,1,0.917665,space,0.12327,0,23,23,35,1,3_dist_green/trial11.png,,,1,3,greenverival,p,78,22,Male,2021-02-17_14h52.34.937,exp11,2020.2.6,Win32,60,,,,,,,,,,,
,,,,,,,,,,,,,,p,1,1.024955,space,0.11215,0,24,24,89,1,15_dist_green/trial15.png,,,1,15,greenverival,p,78,22,Male,2021-02-17_14h52.34.937,exp11,2020.2.6,Win32,60,,,,,,,,,,,
,,,,,,,,,,,,,,p,1,0.793225,space,0.0876,0,25,25,42,1,3_dist_green/trial18.png,,,1,3,greenverival,p,78,22,Male,2021-02-17_14h52.34.937,exp11,2020.2.6,Win32,60,,,,,,,,,,,
,,,,,,,,,,,,,,p,1,0.7429,space,0.10504,0,26,26,13,1,0_dist_green/trial14.png,,,1,0,greenverival,p,78,22,Male,2021-02-17_14h52.34.937,exp11,2020.2.6,Win32,60,,,,,,,,,,,
,,,,,,,,,,,,,,p,1,0.49822,space,0.123835,0,27,27,19,1,0_dist_green/trial20.png,,,1,0,greenverival,p,78,22,Male,2021-02-17_14h52.34.937,exp11,2020.2.6,Win32,60,,,,,,,,,,,
,,,,,,,,,,,,,,p,1,0.576755,space,0.103545,0,28,28,48,1,3_dist_green/trial24.png,,,1,3,greenverival,p,78,22,Male,2021-02-17_14h52.34.937,exp11,2020.2.6,Win32,60,,,,,,,,,,,
,,,,,,,,,,,,,,a,1,1.11215,space,0.102545,0,29,29,139,1,0_targ_4_dist_green/trial15.png,,,0,4,greenverival,a,78,22,Male,2021-02-17_14h52.34.937,exp11,2020.2.6,Win32,60,,,,,,,,,,,
,,,,,,,,,,,,,,p,1,1.01487,space,0.10969,0,30,30,93,1,15_dist_green/trial19.png,,,1,15,greenverival,p,78,22,Male,2021-02-17_14h52.34.937,exp11,2020.2.6,Win32,60,,,,,,,,,,,
,,,,,,,,,,,,,,p,1,0.71932,space,0.105885,0,31,31,62,1,9_dist_green/trial13.png,,,1,9,greenverival,p,78,22,Male,2021-02-17_14h52.34.937,exp11,2020.2.6,Win32,60,,,,,,,,,,,
,,,,,,,,,,,,,,a,1,1.146485,space,0.08868,0,32,32,187,1,0_targ_16_dist_green/trial13.png,,,0,16,greenverival,a,78,22,Male,2021-02-17_14h52.34.937,exp11,2020.2.6,Win32,60,,,,,,,,,,,
,,,,,,,,,,,,,,p,1,0.96598,space,0.090025,0,33,33,10,1,0_dist_green/trial11.png,,,1,0,greenverival,p,78,22,Male,2021-02-17_14h52.34.937,exp11,2020.2.6,Win32,60,,,,,,,,,,,
,,,,,,,,,,,,,,a,1,0.809635,space,0.11021,0,34,34,134,1,0_targ_4_dist_green/trial10.png,,,0,4,greenverival,a,78,22,Male,2021-02-17_14h52.34.937,exp11,2020.2.6,Win32,60,,,,,,,,,,,
,,,,,,,,,,,,,,a,1,0.778865,space,0.111355,0,35,35,197,1,0_targ_16_dist_green/trial23.png,,,0,16,greenverival,a,78,22,Male,2021-02-17_14h52.34.937,exp11,2020.2.6,Win32,60,,,,,,,,,,,
,,,,,,,,,,,,,,a,1,0.971335,space,0.04883,0,36,36,160,1,0_targ_10_dist_green/trial11.png,,,0,10,greenverival,a,78,22,Male,2021-02-17_14h52.34.937,exp11,2020.2.6,Win32,60,,,,,,,,,,,
,,,,,,,,,,,,,,a,1,0.68316,space,0.075785,0,37,37,126,1,0_targ_4_dist_green/trial2.png,,,0,4,greenverival,a,78,22,Male,2021-02-17_14h52.34.937,exp11,2020.2.6,Win32,60,,,,,,,,,,,
,,,,,,,,,,,,,,p,1,0.99156,space,0.143575,0,38,38,56,1,9_dist_green/trial7.png,,,1,9,greenverival,p,78,22,Male,2021-02-17_14h52.34.937,exp11,2020.2.6,Win32,60,,,,,,,,,,,
,,,,,,,,,,,,,,p,1,1.079595,space,0.42643,0,39,39,24,1,0_dist_green/trial25.png,,,1,0,greenverival,p,78,22,Male,2021-02-17_14h52.34.937,exp11,2020.2.6,Win32,60,,,,,,,,,,,
,,,,,,,,,,,,,,a,1,0.880355,space,0.07728,0,40,40,135,1,0_targ_4_dist_green/trial11.png,,,0,4,greenverival,a,78,22,Male,2021-02-17_14h52.34.937,exp11,2020.2.6,Win32,60,,,,,,,,,,,
,,,,,,,,,,,,,,a,1,1.09594,space,0.141115,0,41,41,167,1,0_targ_10_dist_green/trial18.png,,,0,10,greenverival,a,78,22,Male,2021-02-17_14h52.34.937,exp11,2020.2.6,Win32,60,,,,,,,,,,,
,,,,,,,,,,,,,,a,1,0.912515,space,0.05604,0,42,42,182,1,0_targ_16_dist_green/trial8.png,,,0,16,greenverival,a,78,22,Male,2021-02-17_14h52.34.937,exp11,2020.2.6,Win32,60,,,,,,,,,,,
,,,,,,,,,,,,,,p,1,0.78313,space,0.15075,0,43,43,46,1,3_dist_green/trial22.png,,,1,3,greenverival,p,78,22,Male,2021-02-17_14h52.34.937,exp11,2020.2.6,Win32,60,,,,,,,,,,,
,,,,,,,,,,,,,,a,1,0.886265,space,0.134105,0,44,44,122,1,0_targ_1_dist_green/trial23.png,,,0,1,greenverival,a,78,22,Male,2021-02-17_14h52.34.937,exp11,2020.2.6,Win32,60,,,,,,,,,,,
,,,,,,,,,,,,,,p,1,0.89313,space,0.13787,0,45,45,66,1,9_dist_green/trial17.png,,,1,9,greenverival,p,78,22,Male,2021-02-17_14h52.34.937,exp11,2020.2.6,Win32,60,,,,,,,,,,,
,,,,,,,,,,,,,,a,1,0.899,space,0.10847,0,46,46,180,1,0_targ_16_dist_green/trial6.png,,,0,16,greenverival,a,78,22,Male,2021-02-17_14h52.34.937,exp11,2020.2.6,Win32,60,,,,,,,,,,,
,,,,,,,,,,,,,,p,1,0.93125,space,0.12273,0,47,47,76,1,15_dist_green/trial2.png,,,1,15,greenverival,p,78,22,Male,2021-02-17_14h52.34.937,exp11,2020.2.6,Win32,60,,,,,,,,,,,
,,,,,,,,,,,,,,p,1,0.86298,space,0.15237,0,48,48,86,1,15_dist_green/trial12.png,,,1,15,greenverival,p,78,22,Male,2021-02-17_14h52.34.937,exp11,2020.2.6,Win32,60,,,,,,,,,,,
,,,,,,,,,,,,,,p,1,0.99316,space,0.117335,0,49,49,95,1,15_dist_green/trial21.png,,,1,15,greenverival,p,78,22,Male,2021-02-17_14h52.34.937,exp11,2020.2.6,Win32,60,,,,,,,,,,,
,,,,,,,,,,,,,,a,1,0.83506,space,0.10854,0,50,50,113,1,0_targ_1_dist_green/trial14.png,,,0,1,greenverival,a,78,22,Male,2021-02-17_14h52.34.937,exp11,2020.2.6,Win32,60,,,,,,,,,,,
,,,,,,,,,,,,,,p,1,0.956155,space,0.095655,0,51,51,60,1,9_dist_green/trial11.png,,,1,9,greenverival,p,78,22,Male,2021-02-17_14h52.34.937,exp11,2020.2.6,Win32,60,,,,,,,,,,,
,,,,,,,,,,,,,,p,1,0.67698,space,0.100495,0,52,52,7,1,0_dist_green/trial8.png,,,1,0,greenverival,p,78,22,Male,2021-02-17_14h52.34.937,exp11,2020.2.6,Win32,60,,,,,,,,,,,
,,,,,,,,,,,,,,p,1,0.513135,space,0.112575,0,53,53,20,1,0_dist_green/trial21.png,,,1,0,greenverival,p,78,22,Male,2021-02-17_14h52.34.937,exp11,2020.2.6,Win32,60,,,,,,,,,,,
,,,,,,,,,,,,,,p,1,0.55289,space,0.12896,0,54,54,30,1,3_dist_green/trial6.png,,,1,3,greenverival,p,78,22,Male,2021-02-17_14h52.34.937,exp11,2020.2.6,Win32,60,,,,,,,,,,,
,,,,,,,,,,,,,,p,1,0.509215,space,0.09093,0,55,55,61,1,9_dist_green/trial12.png,,,1,9,greenverival,p,78,22,Male,2021-02-17_14h52.34.937,exp11,2020.2.6,Win32,60,,,,,,,,,,,
,,,,,,,,,,,,,,p,1,0.615445,space,0.10309,0,56,56,92,1,15_dist_green/trial18.png,,,1,15,greenverival,p,78,22,Male,2021-02-17_14h52.34.937,exp11,2020.2.6,Win32,60,,,,,,,,,,,
,,,,,,,,,,,,,,p,1,0.501155,space,0.12204,0,57,57,87,1,15_dist_green/trial13.png,,,1,15,greenverival,p,78,22,Male,2021-02-17_14h52.34.937,exp11,2020.2.6,Win32,60,,,,,,,,,,,
,,,,,,,,,,,,,,p,1,0.509095,space,0.15235,0,58,58,14,1,0_dist_green/trial15.png,,,1,0,greenverival,p,78,22,Male,2021-02-17_14h52.34.937,exp11,2020.2.6,Win32,60,,,,,,,,,,,
,,,,,,,,,,,,,,a,1,1.025405,space,0.090215,0,59,59,189,1,0_targ_16_dist_green/trial15.png,,,0,16,greenverival,a,78,22,Male,2021-02-17_14h52.34.937,exp11,2020.2.6,Win32,60,,,,,,,,,,,
,,,,,,,,,,,,,,a,1,0.842165,space,0.107115,0,60,60,190,1,0_targ_16_dist_green/trial16.png,,,0,16,greenverival,a,78,22,Male,2021-02-17_14h52.34.937,exp11,2020.2.6,Win32,60,,,,,,,,,,,
,,,,,,,,,,,,,,a,1,0.929385,space,0.107185,0,61,61,196,1,0_targ_16_dist_green/trial22.png,,,0,16,greenverival,a,78,22,Male,2021-02-17_14h52.34.937,exp11,2020.2.6,Win32,60,,,,,,,,,,,
,,,,,,,,,,,,,,p,1,0.98435,space,0.11084,0,62,62,94,1,15_dist_green/trial20.png,,,1,15,greenverival,p,78,22,Male,2021-02-17_14h52.34.937,exp11,2020.2.6,Win32,60,,,,,,,,,,,
,,,,,,,,,,,,,,a,1,0.90954,space,0.088725,0,63,63,162,1,0_targ_10_dist_green/trial13.png,,,0,10,greenverival,a,78,22,Male,2021-02-17_14h52.34.937,exp11,2020.2.6,Win32,60,,,,,,,,,,,
,,,,,,,,,,,,,,p,1,1.024315,space,0.2323,0,64,64,31,1,3_dist_green/trial7.png,,,1,3,greenverival,p,78,22,Male,2021-02-17_14h52.34.937,exp11,2020.2.6,Win32,60,,,,,,,,,,,
,,,,,,,,,,,,,,p,1,1.143025,space,0.085415,0,65,65,99,1,15_dist_green/trial25.png,,,1,15,greenverival,p,78,22,Male,2021-02-17_14h52.34.937,exp11,2020.2.6,Win32,60,,,,,,,,,,,
,,,,,,,,,,,,,,p,1,0.84258,space,0.133935,0,66,66,72,1,9_dist_green/trial23.png,,,1,9,greenverival,p,78,22,Male,2021-02-17_14h52.34.937,exp11,2020.2.6,Win32,60,,,,,,,,,,,
,,,,,,,,,,,,,,a,1,0.985275,space,0.13402,0,67,67,185,1,0_targ_16_dist_green/trial11.png,,,0,16,greenverival,a,78,22,Male,2021-02-17_14h52.34.937,exp11,2020.2.6,Win32,60,,,,,,,,,,,
,,,,,,,,,,,,,,a,1,0.671425,space,0.136195,0,68,68,181,1,0_targ_16_dist_green/trial7.png,,,0,16,greenverival,a,78,22,Male,2021-02-17_14h52.34.937,exp11,2020.2.6,Win32,60,,,,,,,,,,,
,,,,,,,,,,,,,,a,1,0.82724,space,0.12178,0,69,69,120,1,0_targ_1_dist_green/trial21.png,,,0,1,greenverival,a,78,22,Male,2021-02-17_14h52.34.937,exp11,2020.2.6,Win32,60,,,,,,,,,,,
,,,,,,,,,,,,,,a,1,0.60986,space,0.100995,0,70,70,132,1,0_targ_4_dist_green/trial8.png,,,0,4,greenverival,a,78,22,Male,2021-02-17_14h52.34.937,exp11,2020.2.6,Win32,60,,,,,,,,,,,
,,,,,,,,,,,,,,p,1,1.001615,space,0.11767,0,71,71,69,1,9_dist_green/trial20.png,,,1,9,greenverival,p,78,22,Male,2021-02-17_14h52.34.937,exp11,2020.2.6,Win32,60,,,,,,,,,,,
,,,,,,,,,,,,,,a,1,0.74993,space,0.121025,0,72,72,103,1,0_targ_1_dist_green/trial4.png,,,0,1,greenverival,a,78,22,Male,2021-02-17_14h52.34.937,exp11,2020.2.6,Win32,60,,,,,,,,,,,
,,,,,,,,,,,,,,a,1,0.4963,space,0.10104,0,73,73,111,1,0_targ_1_dist_green/trial12.png,,,0,1,greenverival,a,78,22,Male,2021-02-17_14h52.34.937,exp11,2020.2.6,Win32,60,,,,,,,,,,,
,,,,,,,,,,,,,,p,1,0.94289,space,0.07962,0,74,74,26,1,3_dist_green/trial2.png,,,1,3,greenverival,p,78,22,Male,2021-02-17_14h52.34.937,exp11,2020.2.6,Win32,60,,,,,,,,,,,
,,,,,,,,,,,,,,p,1,0.56348,space,0.100705,0,75,75,67,1,9_dist_green/trial18.png,,,1,9,greenverival,p,78,22,Male,2021-02-17_14h52.34.937,exp11,2020.2.6,Win32,60,,,,,,,,,,,
,,,,,,,,,,,,,,p,1,0.485255,space,0.117655,0,76,76,12,1,0_dist_green/trial13.png,,,1,0,greenverival,p,78,22,Male,2021-02-17_14h52.34.937,exp11,2020.2.6,Win32,60,,,,,,,,,,,
,,,,,,,,,,,,,,p,1,0.42585,space,0.13424,0,77,77,32,1,3_dist_green/trial8.png,,,1,3,greenverival,p,78,22,Male,2021-02-17_14h52.34.937,exp11,2020.2.6,Win32,60,,,,,,,,,,,
,,,,,,,,,,,,,,p,1,0.488005,space,0.140235,0,78,78,27,1,3_dist_green/trial3.png,,,1,3,greenverival,p,78,22,Male,2021-02-17_14h52.34.937,exp11,2020.2.6,Win32,60,,,,,,,,,,,
,,,,,,,,,,,,,,p,1,0.654135,space,0.15139,0,79,79,81,1,15_dist_green/trial7.png,,,1,15,greenverival,p,78,22,Male,2021-02-17_14h52.34.937,exp11,2020.2.6,Win32,60,,,,,,,,,,,
,,,,,,,,,,,,,,a,1,0.850575,space,0.118005,0,80,80,149,1,0_targ_4_dist_green/trial25.png,,,0,4,greenverival,a,78,22,Male,2021-02-17_14h52.34.937,exp11,2020.2.6,Win32,60,,,,,,,,,,,
,,,,,,,,,,,,,,a,1,0.57145,space,0.119525,0,81,81,108,1,0_targ_1_dist_green/trial9.png,,,0,1,greenverival,a,78,22,Male,2021-02-17_14h52.34.937,exp11,2020.2.6,Win32,60,,,,,,,,,,,
,,,,,,,,,,,,,,a,0,0.46671,space,0.03651,0,82,82,1,1,0_dist_green/trial2.png,,,1,0,greenverival,p,78,22,Male,2021-02-17_14h52.34.937,exp11,2020.2.6,Win32,60,,,,,,,,,,,
,,,,,,,,,,,,,,a,1,1.025895,space,0.091545,0,83,83,117,1,0_targ_1_dist_green/trial18.png,,,0,1,greenverival,a,78,22,Male,2021-02-17_14h52.34.937,exp11,2020.2.6,Win32,60,,,,,,,,,,,
,,,,,,,,,,,,,,p,1,1.01146,space,0.10742,0,84,84,84,1,15_dist_green/trial10.png,,,1,15,greenverival,p,78,22,Male,2021-02-17_14h52.34.937,exp11,2020.2.6,Win32,60,,,,,,,,,,,
,,,,,,,,,,,,,,p,1,0.55757,space,0.141025,0,85,85,15,1,0_dist_green/trial16.png,,,1,0,greenverival,p,78,22,Male,2021-02-17_14h52.34.937,exp11,2020.2.6,Win32,60,,,,,,,,,,,
,,,,,,,,,,,,,,a,1,0.82691,space,0.07124,0,86,86,115,1,0_targ_1_dist_green/trial6.png,,,0,1,greenverival,a,78,22,Male,2021-02-17_14h52.34.937,exp11,2020.2.6,Win32,60,,,,,,,,,,,
,,,,,,,,,,,,,,a,1,0.749735,space,0.087265,0,87,87,137,1,0_targ_4_dist_green/trial13.png,,,0,4,greenverival,a,78,22,Male,2021-02-17_14h52.34.937,exp11,2020.2.6,Win32,60,,,,,,,,,,,
,,,,,,,,,,,,,,a,1,0.64382,space,0.117315,0,88,88,171,1,0_targ_10_dist_green/trial22.png,,,0,10,greenverival,a,78,22,Male,2021-02-17_14h52.34.937,exp11,2020.2.6,Win32,60,,,,,,,,,,,
,,,,,,,,,,,,,,p,1,1.13712,space,0.1864,0,89,89,52,1,9_dist_green/trial3.png,,,1,9,greenverival,p,78,22,Male,2021-02-17_14h52.34.937,exp11,2020.2.6,Win32,60,,,,,,,,,,,
,,,,,,,,,,,,,,p,1,0.56636,space,0.120295,0,90,90,18,1,0_dist_green/trial19.png,,,1,0,greenverival,p,78,22,Male,2021-02-17_14h52.34.937,exp11,2020.2.6,Win32,60,,,,,,,,,,,
,,,,,,,,,,,,,,a,1,0.79695,space,0.189405,0,91,91,121,1,0_targ_1_dist_green/trial22.png,,,0,1,greenverival,a,78,22,Male,2021-02-17_14h52.34.937,exp11,2020.2.6,Win32,60,,,,,,,,,,,
,,,,,,,,,,,,,,p,1,0.851495,space,0.20054,0,92,92,82,1,15_dist_green/trial8.png,,,1,15,greenverival,p,78,22,Male,2021-02-17_14h52.34.937,exp11,2020.2.6,Win32,60,,,,,,,,,,,
,,,,,,,,,,,,,,a,1,1.05157,space,0.153185,0,93,93,146,1,0_targ_4_dist_green/trial22.png,,,0,4,greenverival,a,78,22,Male,2021-02-17_14h52.34.937,exp11,2020.2.6,Win32,60,,,,,,,,,,,
,,,,,,,,,,,,,,a,1,0.661035,space,0.14283,0,94,94,148,1,0_targ_4_dist_green/trial24.png,,,0,4,greenverival,a,78,22,Male,2021-02-17_14h52.34.937,exp11,2020.2.6,Win32,60,,,,,,,,,,,
,,,,,,,,,,,,,,a,1,0.45995,space,0.11722,0,95,95,131,1,0_targ_4_dist_green/trial7.png,,,0,4,greenverival,a,78,22,Male,2021-02-17_14h52.34.937,exp11,2020.2.6,Win32,60,,,,,,,,,,,
,,,,,,,,,,,,,,p,1,0.963075,space,0.188955,0,96,96,74,1,9_dist_green/trial25.png,,,1,9,greenverival,p,78,22,Male,2021-02-17_14h52.34.937,exp11,2020.2.6,Win32,60,,,,,,,,,,,
,,,,,,,,,,,,,,a,1,1.209365,space,0.14114,0,97,97,194,1,0_targ_16_dist_green/trial20.png,,,0,16,greenverival,a,78,22,Male,2021-02-17_14h52.34.937,exp11,2020.2.6,Win32,60,,,,,,,,,,,
,,,,,,,,,,,,,,a,1,0.78144,space,0.134025,0,98,98,114,1,0_targ_1_dist_green/trial15.png,,,0,1,greenverival,a,78,22,Male,2021-02-17_14h52.34.937,exp11,2020.2.6,Win32,60,,,,,,,,,,,
,,,,,,,,,,,,,,a,1,0.6438,space,0.10457,0,99,99,101,1,0_targ_1_dist_green/trial2.png,,,0,1,greenverival,a,78,22,Male,2021-02-17_14h52.34.937,exp11,2020.2.6,Win32,60,,,,,,,,,,,
,,,,,,,,,,,,,,p,1,0.79361,space,0.14504,0,100,100,3,1,0_dist_green/trial4.png,,,1,0,greenverival,p,78,22,Male,2021-02-17_14h52.34.937,exp11,2020.2.6,Win32,60,,,,,,,,,,,
,,,,,,,,,,,,,,a,1,0.704575,space,0.117505,0,101,101,130,1,0_targ_4_dist_green/trial6.png,,,0,4,greenverival,a,78,22,Male,2021-02-17_14h52.34.937,exp11,2020.2.6,Win32,60,,,,,,,,,,,
,,,,,,,,,,,,,,a,1,0.69694,space,0.092195,0,102,102,155,1,0_targ_10_dist_green/trial6.png,,,0,10,greenverival,a,78,22,Male,2021-02-17_14h52.34.937,exp11,2020.2.6,Win32,60,,,,,,,,,,,
,,,,,,,,,,,,,,a,1,0.631395,space,0.06892,0,103,103,116,1,0_targ_1_dist_green/trial17.png,,,0,1,greenverival,a,78,22,Male,2021-02-17_14h52.34.937,exp11,2020.2.6,Win32,60,,,,,,,,,,,
,,,,,,,,,,,,,,a,1,0.59285,space,0.1131,0,104,104,143,1,0_targ_4_dist_green/trial19.png,,,0,4,greenverival,a,78,22,Male,2021-02-17_14h52.34.937,exp11,2020.2.6,Win32,60,,,,,,,,,,,
,,,,,,,,,,,,,,p,1,0.921055,space,0.171945,0,105,105,44,1,3_dist_green/trial20.png,,,1,3,greenverival,p,78,22,Male,2021-02-17_14h52.34.937,exp11,2020.2.6,Win32,60,,,,,,,,,,,
,,,,,,,,,,,,,,p,1,0.776505,space,0.203705,0,106,106,65,1,9_dist_green/trial16.png,,,1,9,greenverival,p,78,22,Male,2021-02-17_14h52.34.937,exp11,2020.2.6,Win32,60,,,,,,,,,,,
,,,,,,,,,,,,,,p,1,0.515975,space,0.19098,0,107,107,40,1,3_dist_green/trial16.png,,,1,3,greenverival,p,78,22,Male,2021-02-17_14h52.34.937,exp11,2020.2.6,Win32,60,,,,,,,,,,,
,,,,,,,,,,,,,,p,1,0.56121,space,0.171115,0,108,108,71,1,9_dist_green/trial22.png,,,1,9,greenverival,p,78,22,Male,2021-02-17_14h52.34.937,exp11,2020.2.6,Win32,60,,,,,,,,,,,
,,,,,,,,,,,,,,p,1,0.584545,space,0.20337,0,109,109,85,1,15_dist_green/trial11.png,,,1,15,greenverival,p,78,22,Male,2021-02-17_14h52.34.937,exp11,2020.2.6,Win32,60,,,,,,,,,,,
,,,,,,,,,,,,,,a,1,0.93079,space,0.333725,0,110,110,165,1,0_targ_10_dist_green/trial16.png,,,0,10,greenverival,a,78,22,Male,2021-02-17_14h52.34.937,exp11,2020.2.6,Win32,60,,,,,,,,,,,
,,,,,,,,,,,,,,a,1,0.748255,space,0.146345,0,111,111,112,1,0_targ_1_dist_green/trial13.png,,,0,1,greenverival,a,78,22,Male,2021-02-17_14h52.34.937,exp11,2020.2.6,Win32,60,,,,,,,,,,,
,,,,,,,,,,,,,,p,1,0.79674,space,0.11296,0,112,112,11,1,0_dist_green/trial12.png,,,1,0,greenverival,p,78,22,Male,2021-02-17_14h52.34.937,exp11,2020.2.6,Win32,60,,,,,,,,,,,
,,,,,,,,,,,,,,p,1,0.546015,space,0.134195,0,113,113,38,1,3_dist_green/trial14.png,,,1,3,greenverival,p,78,22,Male,2021-02-17_14h52.34.937,exp11,2020.2.6,Win32,60,,,,,,,,,,,
,,,,,,,,,,,,,,a,1,0.75429,space,0.151135,0,114,114,163,1,0_targ_10_dist_green/trial14.png,,,0,10,greenverival,a,78,22,Male,2021-02-17_14h52.34.937,exp11,2020.2.6,Win32,60,,,,,,,,,,,
,,,,,,,,,,,,,,a,1,0.793425,space,0.10091,0,115,115,129,1,0_targ_4_dist_green/trial5.png,,,0,4,greenverival,a,78,22,Male,2021-02-17_14h52.34.937,exp11,2020.2.6,Win32,60,,,,,,,,,,,
,,,,,,,,,,,,,,p,1,1.02988,space,0.11799,0,116,116,55,1,9_dist_green/trial6.png,,,1,9,greenverival,p,78,22,Male,2021-02-17_14h52.34.937,exp11,2020.2.6,Win32,60,,,,,,,,,,,
,,,,,,,,,,,,,,a,1,0.875455,space,0.09131,0,117,117,169,1,0_targ_10_dist_green/trial20.png,,,0,10,greenverival,a,78,22,Male,2021-02-17_14h52.34.937,exp11,2020.2.6,Win32,60,,,,,,,,,,,
,,,,,,,,,,,,,,p,1,0.993075,space,0.13421,0,118,118,96,1,15_dist_green/trial22.png,,,1,15,greenverival,p,78,22,Male,2021-02-17_14h52.34.937,exp11,2020.2.6,Win32,60,,,,,,,,,,,
,,,,,,,,,,,,,,a,1,0.694615,space,0.12155,0,119,119,188,1,0_targ_16_dist_green/trial14.png,,,0,16,greenverival,a,78,22,Male,2021-02-17_14h52.34.937,exp11,2020.2.6,Win32,60,,,,,,,,,,,
,,,,,,,,,,,,,,p,1,1.06301,space,0.12753,0,120,120,25,1,3_dist_green/trial1.png,,,1,3,greenverival,p,78,22,Male,2021-02-17_14h52.34.937,exp11,2020.2.6,Win32,60,,,,,,,,,,,
,,,,,,,,,,,,,,p,1,0.576335,space,0.14329,0,121,121,6,1,0_dist_green/trial7.png,,,1,0,greenverival,p,78,22,Male,2021-02-17_14h52.34.937,exp11,2020.2.6,Win32,60,,,,,,,,,,,
,,,,,,,,,,,,,,a,1,0.803725,space,0.15925,0,122,122,140,1,0_targ_4_dist_green/trial6.png,,,0,4,greenverival,a,78,22,Male,2021-02-17_14h52.34.937,exp11,2020.2.6,Win32,60,,,,,,,,,,,
,,,,,,,,,,,,,,p,1,0.775585,space,0.1251,0,123,123,73,1,9_dist_green/trial24.png,,,1,9,greenverival,p,78,22,Male,2021-02-17_14h52.34.937,exp11,2020.2.6,Win32,60,,,,,,,,,,,
,,,,,,,,,,,,,,a,1,1.28036,space,0.11731,0,124,124,161,1,0_targ_10_dist_green/trial12.png,,,0,10,greenverival,a,78,22,Male,2021-02-17_14h52.34.937,exp11,2020.2.6,Win32,60,,,,,,,,,,,
,,,,,,,,,,,,,,a,1,0.66395,space,0.117425,0,125,125,147,1,0_targ_4_dist_green/trial23.png,,,0,4,greenverival,a,78,22,Male,2021-02-17_14h52.34.937,exp11,2020.2.6,Win32,60,,,,,,,,,,,
,,,,,,,,,,,,,,p,1,1.09339,space,0.109205,0,126,126,57,1,9_dist_green/trial8.png,,,1,9,greenverival,p,78,22,Male,2021-02-17_14h52.34.937,exp11,2020.2.6,Win32,60,,,,,,,,,,,
,,,,,,,,,,,,,,a,1,0.860445,space,0.10371,0,127,127,105,1,0_targ_1_dist_green/trial6.png,,,0,1,greenverival,a,78,22,Male,2021-02-17_14h52.34.937,exp11,2020.2.6,Win32,60,,,,,,,,,,,
,,,,,,,,,,,,,,a,1,0.593375,space,0.10065,0,128,128,141,1,0_targ_4_dist_green/trial17.png,,,0,4,greenverival,a,78,22,Male,2021-02-17_14h52.34.937,exp11,2020.2.6,Win32,60,,,,,,,,,,,
,,,,,,,,,,,,,,p,1,0.92636,space,0.135385,0,129,129,28,1,3_dist_green/trial4.png,,,1,3,greenverival,p,78,22,Male,2021-02-17_14h52.34.937,exp11,2020.2.6,Win32,60,,,,,,,,,,,
,,,,,,,,,,,,,,a,1,0.714385,space,0.150805,0,130,130,173,1,0_targ_10_dist_green/trial24.png,,,0,10,greenverival,a,78,22,Male,2021-02-17_14h52.34.937,exp11,2020.2.6,Win32,60,,,,,,,,,,,
,,,,,,,,,,,,,,p,1,0.72911,space,0.13887,0,131,131,16,1,0_dist_green/trial17.png,,,1,0,greenverival,p,78,22,Male,2021-02-17_14h52.34.937,exp11,2020.2.6,Win32,60,,,,,,,,,,,
,,,,,,,,,,,,,,a,1,0.5928,space,0.144965,0,132,132,175,1,0_targ_16_dist_green/trial1.png,,,0,16,greenverival,a,78,22,Male,2021-02-17_14h52.34.937,exp11,2020.2.6,Win32,60,,,,,,,,,,,
,,,,,,,,,,,,,,a,1,0.596135,space,0.13388,0,133,133,142,1,0_targ_4_dist_green/trial18.png,,,0,4,greenverival,a,78,22,Male,2021-02-17_14h52.34.937,exp11,2020.2.6,Win32,60,,,,,,,,,,,
,,,,,,,,,,,,,,a,1,0.54796,space,0.10462,0,134,134,144,1,0_targ_4_dist_green/trial20.png,,,0,4,greenverival,a,78,22,Male,2021-02-17_14h52.34.937,exp11,2020.2.6,Win32,60,,,,,,,,,,,
,,,,,,,,,,,,,,a,1,0.526245,space,0.07557,0,135,135,104,1,0_targ_1_dist_green/trial5.png,,,0,1,greenverival,a,78,22,Male,2021-02-17_14h52.34.937,exp11,2020.2.6,Win32,60,,,,,,,,,,,
,,,,,,,,,,,,,,a,1,0.63415,space,0.09,0,136,136,125,1,0_targ_4_dist_green/trial1.png,,,0,4,greenverival,a,78,22,Male,2021-02-17_14h52.34.937,exp11,2020.2.6,Win32,60,,,,,,,,,,,
,,,,,,,,,,,,,,a,1,0.726245,space,0.056695,0,137,137,124,1,0_targ_1_dist_green/trial25.png,,,0,1,greenverival,a,78,22,Male,2021-02-17_14h52.34.937,exp11,2020.2.6,Win32,60,,,,,,,,,,,
,,,,,,,,,,,,,,a,1,0.663535,space,0.08405,0,138,138,183,1,0_targ_16_dist_green/trial9.png,,,0,16,greenverival,a,78,22,Male,2021-02-17_14h52.34.937,exp11,2020.2.6,Win32,60,,,,,,,,,,,
,,,,,,,,,,,,,,p,1,0.903265,space,0.076045,0,139,139,36,1,3_dist_green/trial12.png,,,1,3,greenverival,p,78,22,Male,2021-02-17_14h52.34.937,exp11,2020.2.6,Win32,60,,,,,,,,,,,
,,,,,,,,,,,,,,p,1,0.89181,space,0.09101,0,140,140,75,1,15_dist_green/trial1.png,,,1,15,greenverival,p,78,22,Male,2021-02-17_14h52.34.937,exp11,2020.2.6,Win32,60,,,,,,,,,,,
,,,,,,,,,,,,,,p,1,0.635235,space,0.094305,0,141,141,98,1,15_dist_green/trial24.png,,,1,15,greenverival,p,78,22,Male,2021-02-17_14h52.34.937,exp11,2020.2.6,Win32,60,,,,,,,,,,,
,,,,,,,,,,,,,,p,1,0.559575,space,0.08529,0,142,142,34,1,3_dist_green/trial10.png,,,1,3,greenverival,p,78,22,Male,2021-02-17_14h52.34.937,exp11,2020.2.6,Win32,60,,,,,,,,,,,
,,,,,,,,,,,,,,a,1,1.0198,space,0.08747,0,143,143,193,1,0_targ_16_dist_green/trial19.png,,,0,16,greenverival,a,78,22,Male,2021-02-17_14h52.34.937,exp11,2020.2.6,Win32,60,,,,,,,,,,,
,,,,,,,,,,,,,,p,1,0.86968,space,0.720145,0,144,144,33,1,3_dist_green/trial9.png,,,1,3,greenverival,p,78,22,Male,2021-02-17_14h52.34.937,exp11,2020.2.6,Win32,60,,,,,,,,,,,
,,,,,,,,,,,,,,a,1,0.721205,space,0.134085,0,145,145,100,1,0_targ_1_dist_green/trial1.png,,,0,1,greenverival,a,78,22,Male,2021-02-17_14h52.34.937,exp11,2020.2.6,Win32,60,,,,,,,,,,,
,,,,,,,,,,,,,,a,1,0.578005,space,0.090725,0,146,146,176,1,0_targ_16_dist_green/trial2.png,,,0,16,greenverival,a,78,22,Male,2021-02-17_14h52.34.937,exp11,2020.2.6,Win32,60,,,,,,,,,,,
,,,,,,,,,,,,,,p,1,0.84263,space,0.111245,0,147,147,77,1,15_dist_green/trial3.png,,,1,15,greenverival,p,78,22,Male,2021-02-17_14h52.34.937,exp11,2020.2.6,Win32,60,,,,,,,,,,,
,,,,,,,,,,,,,,a,1,0.64345,space,0.10069,0,148,148,136,1,0_targ_4_dist_green/trial12.png,,,0,4,greenverival,a,78,22,Male,2021-02-17_14h52.34.937,exp11,2020.2.6,Win32,60,,,,,,,,,,,
,,,,,,,,,,,,,,a,1,0.908515,space,0.08424,0,149,149,168,1,0_targ_10_dist_green/trial19.png,,,0,10,greenverival,a,78,22,Male,2021-02-17_14h52.34.937,exp11,2020.2.6,Win32,60,,,,,,,,,,,
,,,,,,,,,,,,,,p,1,0.79744,space,0.118175,0,150,150,23,1,0_dist_green/trial24.png,,,1,0,greenverival,p,78,22,Male,2021-02-17_14h52.34.937,exp11,2020.2.6,Win32,60,,,,,,,,,,,
,,,,,,,,,,,,,,p,1,0.909835,space,0.09049,0,151,151,64,1,9_dist_green/trial15.png,,,1,9,greenverival,p,78,22,Male,2021-02-17_14h52.34.937,exp11,2020.2.6,Win32,60,,,,,,,,,,,
,,,,,,,,,,,,,,p,1,0.99274,space,0.08963,0,152,152,59,1,9_dist_green/trial10.png,,,1,9,greenverival,p,78,22,Male,2021-02-17_14h52.34.937,exp11,2020.2.6,Win32,60,,,,,,,,,,,
,,,,,,,,,,,,,,p,1,0.495165,space,0.13416,0,153,153,9,1,0_dist_green/trial10.png,,,1,0,greenverival,p,78,22,Male,2021-02-17_14h52.34.937,exp11,2020.2.6,Win32,60,,,,,,,,,,,
,,,,,,,,,,,,,,a,1,0.758865,space,0.13421,0,154,154,154,1,0_targ_10_dist_green/trial5.png,,,0,10,greenverival,a,78,22,Male,2021-02-17_14h52.34.937,exp11,2020.2.6,Win32,60,,,,,,,,,,,
,,,,,,,,,,,,,,p,1,0.854715,space,0.08859,0,155,155,4,1,0_dist_green/trial5.png,,,1,0,greenverival,p,78,22,Male,2021-02-17_14h52.34.937,exp11,2020.2.6,Win32,60,,,,,,,,,,,
,,,,,,,,,,,,,,p,1,0.49603,space,0.10811,0,156,156,8,1,0_dist_green/trial9.png,,,1,0,greenverival,p,78,22,Male,2021-02-17_14h52.34.937,exp11,2020.2.6,Win32,60,,,,,,,,,,,
,,,,,,,,,,,,,,a,1,0.726365,space,0.067565,0,157,157,128,1,0_targ_4_dist_green/trial4.png,,,0,4,greenverival,a,78,22,Male,2021-02-17_14h52.34.937,exp11,2020.2.6,Win32,60,,,,,,,,,,,
,,,,,,,,,,,,,,a,1,0.62616,space,0.071065,0,158,158,184,1,0_targ_16_dist_green/trial10.png,,,0,16,greenverival,a,78,22,Male,2021-02-17_14h52.34.937,exp11,2020.2.6,Win32,60,,,,,,,,,,,
,,,,,,,,,,,,,,a,1,0.580555,space,0.06754,0,159,159,107,1,0_targ_1_dist_green/trial8.png,,,0,1,greenverival,a,78,22,Male,2021-02-17_14h52.34.937,exp11,2020.2.6,Win32,60,,,,,,,,,,,
,,,,,,,,,,,,,,a,1,0.661455,space,0.09453,0,160,160,177,1,0_targ_16_dist_green/trial3.png,,,0,16,greenverival,a,78,22,Male,2021-02-17_14h52.34.937,exp11,2020.2.6,Win32,60,,,,,,,,,,,
,,,,,,,,,,,,,,p,1,0.948135,space,0.101115,0,161,161,83,1,15_dist_green/trial9.png,,,1,15,greenverival,p,78,22,Male,2021-02-17_14h52.34.937,exp11,2020.2.6,Win32,60,,,,,,,,,,,
,,,,,,,,,,,,,,a,1,0.72999,space,0.151065,0,162,162,133,1,0_targ_4_dist_green/trial9.png,,,0,4,greenverival,a,78,22,Male,2021-02-17_14h52.34.937,exp11,2020.2.6,Win32,60,,,,,,,,,,,
,,,,,,,,,,,,,,p,1,0.89685,space,0.139105,0,163,163,47,1,3_dist_green/trial23.png,,,1,3,greenverival,p,78,22,Male,2021-02-17_14h52.34.937,exp11,2020.2.6,Win32,60,,,,,,,,,,,
,,,,,,,,,,,,,,p,1,0.72617,space,0.13781,0,164,164,90,1,15_dist_green/trial16.png,,,1,15,greenverival,p,78,22,Male,2021-02-17_14h52.34.937,exp11,2020.2.6,Win32,60,,,,,,,,,,,
,,,,,,,,,,,,,,a,1,0.73514,space,0.15104,0,165,165,170,1,0_targ_10_dist_green/trial21.png,,,0,10,greenverival,a,78,22,Male,2021-02-17_14h52.34.937,exp11,2020.2.6,Win32,60,,,,,,,,,,,
,,,,,,,,,,,,,,a,1,0.6306,space,0.09048,0,166,166,164,1,0_targ_10_dist_green/trial15.png,,,0,10,greenverival,a,78,22,Male,2021-02-17_14h52.34.937,exp11,2020.2.6,Win32,60,,,,,,,,,,,
,,,,,,,,,,,,,,p,1,0.86396,space,0.10805,0,167,167,51,1,9_dist_green/trial2.png,,,1,9,greenverival,p,78,22,Male,2021-02-17_14h52.34.937,exp11,2020.2.6,Win32,60,,,,,,,,,,,
,,,,,,,,,,,,,,p,1,0.759155,space,0.117535,0,168,168,22,1,0_dist_green/trial23.png,,,1,0,greenverival,p,78,22,Male,2021-02-17_14h52.34.937,exp11,2020.2.6,Win32,60,,,,,,,,,,,
,,,,,,,,,,,,,,a,1,0.78614,space,0.117225,0,169,169,151,1,0_targ_10_dist_green/trial2.png,,,0,10,greenverival,a,78,22,Male,2021-02-17_14h52.34.937,exp11,2020.2.6,Win32,60,,,,,,,,,,,
,,,,,,,,,,,,,,a,1,0.575695,space,0.06833,0,170,170,118,1,0_targ_1_dist_green/trial19.png,,,0,1,greenverival,a,78,22,Male,2021-02-17_14h52.34.937,exp11,2020.2.6,Win32,60,,,,,,,,,,,
,,,,,,,,,,,,,,p,1,0.742655,space,0.127005,0,171,171,97,1,15_dist_green/trial23.png,,,1,15,greenverival,p,78,22,Male,2021-02-17_14h52.34.937,exp11,2020.2.6,Win32,60,,,,,,,,,,,
,,,,,,,,,,,,,,p,1,0.531535,space,0.13445,0,172,172,37,1,3_dist_green/trial13.png,,,1,3,greenverival,p,78,22,Male,2021-02-17_14h52.34.937,exp11,2020.2.6,Win32,60,,,,,,,,,,,
,,,,,,,,,,,,,,a,1,0.54909,space,0.136675,0,173,173,156,1,0_targ_10_dist_green/trial7.png,,,0,10,greenverival,a,78,22,Male,2021-02-17_14h52.34.937,exp11,2020.2.6,Win32,60,,,,,,,,,,,
,,,,,,,,,,,,,,a,1,0.5099,space,0.07454,0,174,174,158,1,0_targ_10_dist_green/trial9.png,,,0,10,greenverival,a,78,22,Male,2021-02-17_14h52.34.937,exp11,2020.2.6,Win32,60,,,,,,,,,,,
,,,,,,,,,,,,,,a,1,0.6426,space,0.075265,0,175,175,106,1,0_targ_1_dist_green/trial7.png,,,0,1,greenverival,a,78,22,Male,2021-02-17_14h52.34.937,exp11,2020.2.6,Win32,60,,,,,,,,,,,
,,,,,,,,,,,,,,p,1,0.80009,space,0.14173,0,176,176,39,1,3_dist_green/trial15.png,,,1,3,greenverival,p,78,22,Male,2021-02-17_14h52.34.937,exp11,2020.2.6,Win32,60,,,,,,,,,,,
,,,,,,,,,,,,,,a,1,0.79313,space,0.08439,0,177,177,195,1,0_targ_16_dist_green/trial21.png,,,0,16,greenverival,a,78,22,Male,2021-02-17_14h52.34.937,exp11,2020.2.6,Win32,60,,,,,,,,,,,
,,,,,,,,,,,,,,a,1,0.51155,space,0.05988,0,178,178,174,1,0_targ_10_dist_green/trial25.png,,,0,10,greenverival,a,78,22,Male,2021-02-17_14h52.34.937,exp11,2020.2.6,Win32,60,,,,,,,,,,,
,,,,,,,,,,,,,,p,1,0.96989,space,0.063255,0,179,179,78,1,15_dist_green/trial4.png,,,1,15,greenverival,p,78,22,Male,2021-02-17_14h52.34.937,exp11,2020.2.6,Win32,60,,,,,,,,,,,
,,,,,,,,,,,,,,a,1,0.749675,space,0.084425,0,180,180,152,1,0_targ_10_dist_green/trial3.png,,,0,10,greenverival,a,78,22,Male,2021-02-17_14h52.34.937,exp11,2020.2.6,Win32,60,,,,,,,,,,,
,,,,,,,,,,,,,,p,1,0.81363,space,0.07973,0,181,181,58,1,9_dist_green/trial9.png,,,1,9,greenverival,p,78,22,Male,2021-02-17_14h52.34.937,exp11,2020.2.6,Win32,60,,,,,,,,,,,
,,,,,,,,,,,,,,p,1,0.798185,space,2.19153,0,182,182,50,1,9_dist_green/trial1.png,,,1,9,greenverival,p,78,22,Male,2021-02-17_14h52.34.937,exp11,2020.2.6,Win32,60,,,,,,,,,,,
,,,,,,,,,,,,,,p,1,0.71034,space,0.100895,0,183,183,0,1,0_dist_green/trial1.png,,,1,0,greenverival,p,78,22,Male,2021-02-17_14h52.34.937,exp11,2020.2.6,Win32,60,,,,,,,,,,,
,,,,,,,,,,,,,,p,1,0.6868,space,0.1371,0,184,184,45,1,3_dist_green/trial21.png,,,1,3,greenverival,p,78,22,Male,2021-02-17_14h52.34.937,exp11,2020.2.6,Win32,60,,,,,,,,,,,
,,,,,,,,,,,,,,p,1,0.67636,space,0.101005,0,185,185,88,1,15_dist_green/trial14.png,,,1,15,greenverival,p,78,22,Male,2021-02-17_14h52.34.937,exp11,2020.2.6,Win32,60,,,,,,,,,,,
,,,,,,,,,,,,,,a,1,0.847505,space,0.10091,0,186,186,198,1,0_targ_16_dist_green/trial24.png,,,0,16,greenverival,a,78,22,Male,2021-02-17_14h52.34.937,exp11,2020.2.6,Win32,60,,,,,,,,,,,
,,,,,,,,,,,,,,a,1,0.571615,space,0.08418,0,187,187,102,1,0_targ_1_dist_green/trial3.png,,,0,1,greenverival,a,78,22,Male,2021-02-17_14h52.34.937,exp11,2020.2.6,Win32,60,,,,,,,,,,,
,,,,,,,,,,,,,,a,1,0.7386,space,0.073195,0,188,188,172,1,0_targ_10_dist_green/trial23.png,,,0,10,greenverival,a,78,22,Male,2021-02-17_14h52.34.937,exp11,2020.2.6,Win32,60,,,,,,,,,,,
,,,,,,,,,,,,,,p,1,1.02887,space,0.124585,0,189,189,79,1,15_dist_green/trial5.png,,,1,15,greenverival,p,78,22,Male,2021-02-17_14h52.34.937,exp11,2020.2.6,Win32,60,,,,,,,,,,,
,,,,,,,,,,,,,,p,1,0.709405,space,0.08853,0,190,190,91,1,15_dist_green/trial17.png,,,1,15,greenverival,p,78,22,Male,2021-02-17_14h52.34.937,exp11,2020.2.6,Win32,60,,,,,,,,,,,
,,,,,,,,,,,,,,a,1,0.90353,space,0.11773,0,191,191,127,1,0_targ_4_dist_green/trial3.png,,,0,4,greenverival,a,78,22,Male,2021-02-17_14h52.34.937,exp11,2020.2.6,Win32,60,,,,,,,,,,,
,,,,,,,,,,,,,,p,1,0.797535,space,0.12273,0,192,192,53,1,9_dist_green/trial4.png,,,1,9,greenverival,p,78,22,Male,2021-02-17_14h52.34.937,exp11,2020.2.6,Win32,60,,,,,,,,,,,
,,,,,,,,,,,,,,p,1,0.59285,space,0.18518,0,193,193,2,1,0_dist_green/trial3.png,,,1,0,greenverival,p,78,22,Male,2021-02-17_14h52.34.937,exp11,2020.2.6,Win32,60,,,,,,,,,,,
,,,,,,,,,,,,,,p,1,0.66949,space,0.17353,0,194,194,63,1,9_dist_green/trial14.png,,,1,9,greenverival,p,78,22,Male,2021-02-17_14h52.34.937,exp11,2020.2.6,Win32,60,,,,,,,,,,,
,,,,,,,,,,,,,,a,1,0.94956,space,0.10627,0,195,195,138,1,0_targ_4_dist_green/trial14.png,,,0,4,greenverival,a,78,22,Male,2021-02-17_14h52.34.937,exp11,2020.2.6,Win32,60,,,,,,,,,,,
,,,,,,,,,,,,,,p,1,0.96212,space,0.13963,0,196,196,29,1,3_dist_green/trial5.png,,,1,3,greenverival,p,78,22,Male,2021-02-17_14h52.34.937,exp11,2020.2.6,Win32,60,,,,,,,,,,,
,,,,,,,,,,,,,,p,1,0.569825,space,0.11766,0,197,197,21,1,0_dist_green/trial22.png,,,1,0,greenverival,p,78,22,Male,2021-02-17_14h52.34.937,exp11,2020.2.6,Win32,60,,,,,,,,,,,
,,,,,,,,,,,,,,a,1,1.109085,space,0.102635,0,198,198,186,1,0_targ_16_dist_green/trial12.png,,,0,16,greenverival,a,78,22,Male,2021-02-17_14h52.34.937,exp11,2020.2.6,Win32,60,,,,,,,,,,,
,,,,,,,,,,,,,,a,1,0.60431,space,0.091095,0,199,199,166,1,0_targ_10_dist_green/trial17.png,,,0,10,greenverival,a,78,22,Male,2021-02-17_14h52.34.937,exp11,2020.2.6,Win32,60,,,,,,,,,,,
,,,,,,,,,,,,,,,,,,,,,,,,,,,,,,,78,22,Male,2021-02-17_14h52.34.937,exp11,2020.2.6,Win32,60,0,1,1,0,1,conGreen.xlsx,green vertical,Look for green vertical bar (target) and indicate if it is present or absent in the array. If green vertical target is present press 'p' and if absent press 'a'. Press SPACE to start.,,,
