key_resp_6.keys,key_resp_6.rt,key_resp_7.keys,key_resp_7.rt,key_resp_8.keys,key_resp_8.rt,key_resp_10.keys,key_resp_10.rt,key_resp_9.keys,key_resp_9.rt,key_resp_3.keys,key_resp_3.rt,key_resp_5.keys,key_resp_5.rt,key_resp.keys,key_resp.corr,key_resp.rt,key_resp_4.keys,key_resp_4.rt,trials.thisRepN,trials.thisTrialN,trials.thisN,trials.thisIndex,trials.ran,ImageFile,tarPos,tarSize,targPres,numDist,targetName,correctAns,participant,age,sex,date,expName,psychopyVersion,OS,frameRate,trials_2.thisRepN,trials_2.thisTrialN,trials_2.thisN,trials_2.thisIndex,trials_2.ran,condsFile,targName,instructionText,colTarget,sizeTarg,posit
space,3.087745,space,5.13625,space,3.274075,space,6.373995,space,4.359005,space,14.669635,space,2.0853,a,1,0.80397,space,4.18548,0,0,0,161,1,0_targ_10_dist_red/trial12.png,,,0,10,redHorizontal,a,79,20,female,2021-02-21_13h51.52.546,exp11,2020.2.6,MacIntel,60,,,,,,,,,,,
,,,,,,,,,,,,,,p,1,0.764195,space,0.40376,0,1,1,37,1,3_dist_red/trial13.png,,,1,3,redHorizontal,p,79,20,female,2021-02-21_13h51.52.546,exp11,2020.2.6,MacIntel,60,,,,,,,,,,,
,,,,,,,,,,,,,,a,1,0.64921,space,0.35156,0,2,2,149,1,0_targ_4_dist_red/trial25.png,,,0,4,redHorizontal,a,79,20,female,2021-02-21_13h51.52.546,exp11,2020.2.6,MacIntel,60,,,,,,,,,,,
,,,,,,,,,,,,,,a,1,0.553985,space,0.335314999,0,3,3,119,1,0_targ_1_dist_red/trial20.png,,,0,1,redHorizontal,a,79,20,female,2021-02-21_13h51.52.546,exp11,2020.2.6,MacIntel,60,,,,,,,,,,,
,,,,,,,,,,,,,,a,1,0.925075,space,0.3429,0,4,4,183,1,0_targ_16_dist_red/trial9.png,,,0,16,redHorizontal,a,79,20,female,2021-02-21_13h51.52.546,exp11,2020.2.6,MacIntel,60,,,,,,,,,,,
,,,,,,,,,,,,,,a,1,0.540680001,space,0.31769,0,5,5,121,1,0_targ_1_dist_red/trial22.png,,,0,1,redHorizontal,a,79,20,female,2021-02-21_13h51.52.546,exp11,2020.2.6,MacIntel,60,,,,,,,,,,,
,,,,,,,,,,,,,,p,1,0.824015,space,0.266365,0,6,6,76,1,15_dist_red/trial2.png,,,1,15,redHorizontal,p,79,20,female,2021-02-21_13h51.52.546,exp11,2020.2.6,MacIntel,60,,,,,,,,,,,
,,,,,,,,,,,,,,p,1,0.4966,space,0.216920001,0,7,7,62,1,9_dist_red/trial13.png,,,1,9,redHorizontal,p,79,20,female,2021-02-21_13h51.52.546,exp11,2020.2.6,MacIntel,60,,,,,,,,,,,
,,,,,,,,,,,,,,a,1,0.590745,space,0.1734,0,8,8,148,1,0_targ_4_dist_red/trial24.png,,,0,4,redHorizontal,a,79,20,female,2021-02-21_13h51.52.546,exp11,2020.2.6,MacIntel,60,,,,,,,,,,,
,,,,,,,,,,,,,,a,1,0.801185,space,0.52068,0,9,9,181,1,0_targ_16_dist_red/trial7.png,,,0,16,redHorizontal,a,79,20,female,2021-02-21_13h51.52.546,exp11,2020.2.6,MacIntel,60,,,,,,,,,,,
,,,,,,,,,,,,,,a,1,0.58931,space,0.144409999,0,10,10,195,1,0_targ_16_dist_red/trial21.png,,,0,16,redHorizontal,a,79,20,female,2021-02-21_13h51.52.546,exp11,2020.2.6,MacIntel,60,,,,,,,,,,,
,,,,,,,,,,,,,,a,1,0.60783,space,0.170675,0,11,11,141,1,0_targ_4_dist_red/trial17.png,,,0,4,redHorizontal,a,79,20,female,2021-02-21_13h51.52.546,exp11,2020.2.6,MacIntel,60,,,,,,,,,,,
,,,,,,,,,,,,,,a,1,0.489914999,space,0.102735,0,12,12,145,1,0_targ_4_dist_red/trial21.png,,,0,4,redHorizontal,a,79,20,female,2021-02-21_13h51.52.546,exp11,2020.2.6,MacIntel,60,,,,,,,,,,,
,,,,,,,,,,,,,,a,1,0.49772,space,0.106494999,0,13,13,128,1,0_targ_4_dist_red/trial4.png,,,0,4,redHorizontal,a,79,20,female,2021-02-21_13h51.52.546,exp11,2020.2.6,MacIntel,60,,,,,,,,,,,
,,,,,,,,,,,,,,p,1,0.566445,space,0.266625,0,14,14,86,1,15_dist_red/trial12.png,,,1,15,redHorizontal,p,79,20,female,2021-02-21_13h51.52.546,exp11,2020.2.6,MacIntel,60,,,,,,,,,,,
,,,,,,,,,,,,,,a,1,0.91028,space,0.13847,0,15,15,173,1,0_targ_10_dist_red/trial24.png,,,0,10,redHorizontal,a,79,20,female,2021-02-21_13h51.52.546,exp11,2020.2.6,MacIntel,60,,,,,,,,,,,
,,,,,,,,,,,,,,a,0,0.485845,space,2.49759,0,16,16,19,1,0_dist_red/trial20.png,,,1,0,redHorizontal,p,79,20,female,2021-02-21_13h51.52.546,exp11,2020.2.6,MacIntel,60,,,,,,,,,,,
,,,,,,,,,,,,,,a,1,0.50852,space,0.186595,0,17,17,110,1,0_targ_1_dist_red/trial11.png,,,0,1,redHorizontal,a,79,20,female,2021-02-21_13h51.52.546,exp11,2020.2.6,MacIntel,60,,,,,,,,,,,
,,,,,,,,,,,,,,a,1,0.670555,space,0.251685,0,18,18,166,1,0_targ_10_dist_red/trial17.png,,,0,10,redHorizontal,a,79,20,female,2021-02-21_13h51.52.546,exp11,2020.2.6,MacIntel,60,,,,,,,,,,,
,,,,,,,,,,,,,,a,1,0.822935,space,0.18465,0,19,19,185,1,0_targ_16_dist_red/trial11.png,,,0,16,redHorizontal,a,79,20,female,2021-02-21_13h51.52.546,exp11,2020.2.6,MacIntel,60,,,,,,,,,,,
,,,,,,,,,,,,,,a,1,0.461485,space,0.247359999,0,20,20,127,1,0_targ_4_dist_red/trial3.png,,,0,4,redHorizontal,a,79,20,female,2021-02-21_13h51.52.546,exp11,2020.2.6,MacIntel,60,,,,,,,,,,,
,,,,,,,,,,,,,,p,1,0.613035,space,0.247265,0,21,21,65,1,9_dist_red/trial16.png,,,1,9,redHorizontal,p,79,20,female,2021-02-21_13h51.52.546,exp11,2020.2.6,MacIntel,60,,,,,,,,,,,
,,,,,,,,,,,,,,a,0,0.773814999,space,1.711575001,0,22,22,73,1,9_dist_red/trial24.png,,,1,9,redHorizontal,p,79,20,female,2021-02-21_13h51.52.546,exp11,2020.2.6,MacIntel,60,,,,,,,,,,,
,,,,,,,,,,,,,,p,1,0.57778,space,0.246915,0,23,23,9,1,0_dist_red/trial10.png,,,1,0,redHorizontal,p,79,20,female,2021-02-21_13h51.52.546,exp11,2020.2.6,MacIntel,60,,,,,,,,,,,
,,,,,,,,,,,,,,a,1,0.679745,space,0.224535001,0,24,24,187,1,0_targ_16_dist_red/trial13.png,,,0,16,redHorizontal,a,79,20,female,2021-02-21_13h51.52.546,exp11,2020.2.6,MacIntel,60,,,,,,,,,,,
,,,,,,,,,,,,,,a,0,0.539264999,space,1.723055,0,25,25,8,1,0_dist_red/trial9.png,,,1,0,redHorizontal,p,79,20,female,2021-02-21_13h51.52.546,exp11,2020.2.6,MacIntel,60,,,,,,,,,,,
,,,,,,,,,,,,,,p,1,0.619135,space,0.31076,0,26,26,30,1,3_dist_red/trial6.png,,,1,3,redHorizontal,p,79,20,female,2021-02-21_13h51.52.546,exp11,2020.2.6,MacIntel,60,,,,,,,,,,,
,,,,,,,,,,,,,,p,1,0.612384999,space,0.2518,0,27,27,66,1,9_dist_red/trial17.png,,,1,9,redHorizontal,p,79,20,female,2021-02-21_13h51.52.546,exp11,2020.2.6,MacIntel,60,,,,,,,,,,,
,,,,,,,,,,,,,,p,1,0.50668,space,0.335875,0,28,28,6,1,0_dist_red/trial7.png,,,1,0,redHorizontal,p,79,20,female,2021-02-21_13h51.52.546,exp11,2020.2.6,MacIntel,60,,,,,,,,,,,
,,,,,,,,,,,,,,a,1,0.573155,space,0.276235,0,29,29,132,1,0_targ_4_dist_red/trial8.png,,,0,4,redHorizontal,a,79,20,female,2021-02-21_13h51.52.546,exp11,2020.2.6,MacIntel,60,,,,,,,,,,,
,,,,,,,,,,,,,,a,1,0.636415,space,0.184355,0,30,30,140,1,0_targ_4_dist_red/trial6.png,,,0,4,redHorizontal,a,79,20,female,2021-02-21_13h51.52.546,exp11,2020.2.6,MacIntel,60,,,,,,,,,,,
,,,,,,,,,,,,,,a,1,0.611745,space,1.536315,0,31,31,118,1,0_targ_1_dist_red/trial19.png,,,0,1,redHorizontal,a,79,20,female,2021-02-21_13h51.52.546,exp11,2020.2.6,MacIntel,60,,,,,,,,,,,
,,,,,,,,,,,,,,p,1,0.49103,space,0.274045,0,32,32,15,1,0_dist_red/trial16.png,,,1,0,redHorizontal,p,79,20,female,2021-02-21_13h51.52.546,exp11,2020.2.6,MacIntel,60,,,,,,,,,,,
,,,,,,,,,,,,,,a,1,0.73986,space,0.26061,0,33,33,163,1,0_targ_10_dist_red/trial14.png,,,0,10,redHorizontal,a,79,20,female,2021-02-21_13h51.52.546,exp11,2020.2.6,MacIntel,60,,,,,,,,,,,
,,,,,,,,,,,,,,a,1,0.821545,space,0.128149999,0,34,34,116,1,0_targ_1_dist_red/trial17.png,,,0,1,redHorizontal,a,79,20,female,2021-02-21_13h51.52.546,exp11,2020.2.6,MacIntel,60,,,,,,,,,,,
,,,,,,,,,,,,,,p,1,0.526455,space,0.29003,0,35,35,74,1,9_dist_red/trial25.png,,,1,9,redHorizontal,p,79,20,female,2021-02-21_13h51.52.546,exp11,2020.2.6,MacIntel,60,,,,,,,,,,,
,,,,,,,,,,,,,,a,1,0.557415,space,0.314625,0,36,36,165,1,0_targ_10_dist_red/trial16.png,,,0,10,redHorizontal,a,79,20,female,2021-02-21_13h51.52.546,exp11,2020.2.6,MacIntel,60,,,,,,,,,,,
,,,,,,,,,,,,,,a,1,0.54369,space,0.239194999,0,37,37,111,1,0_targ_1_dist_red/trial12.png,,,0,1,redHorizontal,a,79,20,female,2021-02-21_13h51.52.546,exp11,2020.2.6,MacIntel,60,,,,,,,,,,,
,,,,,,,,,,,,,,a,1,0.472275,space,0.20719,0,38,38,106,1,0_targ_1_dist_red/trial7.png,,,0,1,redHorizontal,a,79,20,female,2021-02-21_13h51.52.546,exp11,2020.2.6,MacIntel,60,,,,,,,,,,,
,,,,,,,,,,,,,,a,1,0.87197,space,0.309415,0,39,39,179,1,0_targ_16_dist_red/trial5.png,,,0,16,redHorizontal,a,79,20,female,2021-02-21_13h51.52.546,exp11,2020.2.6,MacIntel,60,,,,,,,,,,,
,,,,,,,,,,,,,,a,0,0.469815001,space,0.592850001,0,40,40,52,1,9_dist_red/trial3.png,,,1,9,redHorizontal,p,79,20,female,2021-02-21_13h51.52.546,exp11,2020.2.6,MacIntel,60,,,,,,,,,,,
,,,,,,,,,,,,,,a,1,0.445745001,space,0.18644,0,41,41,115,1,0_targ_1_dist_red/trial6.png,,,0,1,redHorizontal,a,79,20,female,2021-02-21_13h51.52.546,exp11,2020.2.6,MacIntel,60,,,,,,,,,,,
,,,,,,,,,,,,,,p,1,0.55959,space,0.272735001,0,42,42,44,1,3_dist_red/trial20.png,,,1,3,redHorizontal,p,79,20,female,2021-02-21_13h51.52.546,exp11,2020.2.6,MacIntel,60,,,,,,,,,,,
,,,,,,,,,,,,,,p,1,0.548145,space,0.40919,0,43,43,24,1,0_dist_red/trial25.png,,,1,0,redHorizontal,p,79,20,female,2021-02-21_13h51.52.546,exp11,2020.2.6,MacIntel,60,,,,,,,,,,,
,,,,,,,,,,,,,,a,1,0.617825001,space,0.21193,0,44,44,158,1,0_targ_10_dist_red/trial9.png,,,0,10,redHorizontal,a,79,20,female,2021-02-21_13h51.52.546,exp11,2020.2.6,MacIntel,60,,,,,,,,,,,
,,,,,,,,,,,,,,a,0,0.47756,space,0.337935,0,45,45,11,1,0_dist_red/trial12.png,,,1,0,redHorizontal,p,79,20,female,2021-02-21_13h51.52.546,exp11,2020.2.6,MacIntel,60,,,,,,,,,,,
,,,,,,,,,,,,,,a,0,0.57623,space,1.624435,0,46,46,2,1,0_dist_red/trial3.png,,,1,0,redHorizontal,p,79,20,female,2021-02-21_13h51.52.546,exp11,2020.2.6,MacIntel,60,,,,,,,,,,,
,,,,,,,,,,,,,,a,1,0.57241,space,0.080855001,0,47,47,137,1,0_targ_4_dist_red/trial13.png,,,0,4,redHorizontal,a,79,20,female,2021-02-21_13h51.52.546,exp11,2020.2.6,MacIntel,60,,,,,,,,,,,
,,,,,,,,,,,,,,a,1,0.659144999,space,0.492775,0,48,48,146,1,0_targ_4_dist_red/trial22.png,,,0,4,redHorizontal,a,79,20,female,2021-02-21_13h51.52.546,exp11,2020.2.6,MacIntel,60,,,,,,,,,,,
,,,,,,,,,,,,,,p,1,0.5566,space,0.17011,0,49,49,71,1,9_dist_red/trial22.png,,,1,9,redHorizontal,p,79,20,female,2021-02-21_13h51.52.546,exp11,2020.2.6,MacIntel,60,,,,,,,,,,,
,,,,,,,,,,,,,,a,1,0.69197,space,0.122575,0,50,50,184,1,0_targ_16_dist_red/trial10.png,,,0,16,redHorizontal,a,79,20,female,2021-02-21_13h51.52.546,exp11,2020.2.6,MacIntel,60,,,,,,,,,,,
,,,,,,,,,,,,,,a,1,0.53784,space,0.141615001,0,51,51,135,1,0_targ_4_dist_red/trial11.png,,,0,4,redHorizontal,a,79,20,female,2021-02-21_13h51.52.546,exp11,2020.2.6,MacIntel,60,,,,,,,,,,,
,,,,,,,,,,,,,,a,1,0.729995,space,0.318109999,0,52,52,120,1,0_targ_1_dist_red/trial21.png,,,0,1,redHorizontal,a,79,20,female,2021-02-21_13h51.52.546,exp11,2020.2.6,MacIntel,60,,,,,,,,,,,
,,,,,,,,,,,,,,p,1,0.59358,space,0.171775,0,53,53,28,1,3_dist_red/trial4.png,,,1,3,redHorizontal,p,79,20,female,2021-02-21_13h51.52.546,exp11,2020.2.6,MacIntel,60,,,,,,,,,,,
,,,,,,,,,,,,,,p,1,0.57748,space,0.088465,0,54,54,84,1,15_dist_red/trial10.png,,,1,15,redHorizontal,p,79,20,female,2021-02-21_13h51.52.546,exp11,2020.2.6,MacIntel,60,,,,,,,,,,,
,,,,,,,,,,,,,,p,1,0.474979999,space,0.03436,0,55,55,82,1,15_dist_red/trial8.png,,,1,15,redHorizontal,p,79,20,female,2021-02-21_13h51.52.546,exp11,2020.2.6,MacIntel,60,,,,,,,,,,,
,,,,,,,,,,,,,,a,1,0.46746,space,0.134245,0,56,56,103,1,0_targ_1_dist_red/trial4.png,,,0,1,redHorizontal,a,79,20,female,2021-02-21_13h51.52.546,exp11,2020.2.6,MacIntel,60,,,,,,,,,,,
,,,,,,,,,,,,,,a,1,0.577495,space,0.066009999,0,57,57,199,1,0_targ_16_dist_red/trial25.png,,,0,16,redHorizontal,a,79,20,female,2021-02-21_13h51.52.546,exp11,2020.2.6,MacIntel,60,,,,,,,,,,,
,,,,,,,,,,,,,,a,1,0.602795,space,0.106734999,0,58,58,151,1,0_targ_10_dist_red/trial2.png,,,0,10,redHorizontal,a,79,20,female,2021-02-21_13h51.52.546,exp11,2020.2.6,MacIntel,60,,,,,,,,,,,
,,,,,,,,,,,,,,a,0,0.517144999,space,0.438835001,0,59,59,56,1,9_dist_red/trial7.png,,,1,9,redHorizontal,p,79,20,female,2021-02-21_13h51.52.546,exp11,2020.2.6,MacIntel,60,,,,,,,,,,,
,,,,,,,,,,,,,,a,1,0.599885,space,0.082324999,0,60,60,147,1,0_targ_4_dist_red/trial23.png,,,0,4,redHorizontal,a,79,20,female,2021-02-21_13h51.52.546,exp11,2020.2.6,MacIntel,60,,,,,,,,,,,
,,,,,,,,,,,,,,a,1,0.556755001,space,0.040375,0,61,61,129,1,0_targ_4_dist_red/trial5.png,,,0,4,redHorizontal,a,79,20,female,2021-02-21_13h51.52.546,exp11,2020.2.6,MacIntel,60,,,,,,,,,,,
,,,,,,,,,,,,,,p,1,0.632465,space,0.06542,0,62,62,36,1,3_dist_red/trial12.png,,,1,3,redHorizontal,p,79,20,female,2021-02-21_13h51.52.546,exp11,2020.2.6,MacIntel,60,,,,,,,,,,,
,,,,,,,,,,,,,,p,1,0.60492,space,0.141395,0,63,63,93,1,15_dist_red/trial19.png,,,1,15,redHorizontal,p,79,20,female,2021-02-21_13h51.52.546,exp11,2020.2.6,MacIntel,60,,,,,,,,,,,
,,,,,,,,,,,,,,a,1,0.514545,space,0.081975,0,64,64,130,1,0_targ_4_dist_red/trial6.png,,,0,4,redHorizontal,a,79,20,female,2021-02-21_13h51.52.546,exp11,2020.2.6,MacIntel,60,,,,,,,,,,,
,,,,,,,,,,,,,,p,1,0.674775001,space,0.054634999,0,65,65,58,1,9_dist_red/trial9.png,,,1,9,redHorizontal,p,79,20,female,2021-02-21_13h51.52.546,exp11,2020.2.6,MacIntel,60,,,,,,,,,,,
,,,,,,,,,,,,,,a,0,0.53987,space,0.51078,0,66,66,45,1,3_dist_red/trial21.png,,,1,3,redHorizontal,p,79,20,female,2021-02-21_13h51.52.546,exp11,2020.2.6,MacIntel,60,,,,,,,,,,,
,,,,,,,,,,,,,,a,0,0.506905001,space,0.466990001,0,67,67,90,1,15_dist_red/trial16.png,,,1,15,redHorizontal,p,79,20,female,2021-02-21_13h51.52.546,exp11,2020.2.6,MacIntel,60,,,,,,,,,,,
,,,,,,,,,,,,,,a,1,0.439345,space,0.27094,0,68,68,124,1,0_targ_1_dist_red/trial25.png,,,0,1,redHorizontal,a,79,20,female,2021-02-21_13h51.52.546,exp11,2020.2.6,MacIntel,60,,,,,,,,,,,
,,,,,,,,,,,,,,p,1,0.492265,space,0.157455,0,69,69,89,1,15_dist_red/trial15.png,,,1,15,redHorizontal,p,79,20,female,2021-02-21_13h51.52.546,exp11,2020.2.6,MacIntel,60,,,,,,,,,,,
,,,,,,,,,,,,,,p,0,0.519365,space,0.100495,0,70,70,167,1,0_targ_10_dist_red/trial18.png,,,0,10,redHorizontal,a,79,20,female,2021-02-21_13h51.52.546,exp11,2020.2.6,MacIntel,60,,,,,,,,,,,
,,,,,,,,,,,,,,p,1,0.574379999,space,0.164815,0,71,71,64,1,9_dist_red/trial15.png,,,1,9,redHorizontal,p,79,20,female,2021-02-21_13h51.52.546,exp11,2020.2.6,MacIntel,60,,,,,,,,,,,
,,,,,,,,,,,,,,a,1,0.558615,space,0.049775001,0,72,72,196,1,0_targ_16_dist_red/trial22.png,,,0,16,redHorizontal,a,79,20,female,2021-02-21_13h51.52.546,exp11,2020.2.6,MacIntel,60,,,,,,,,,,,
,,,,,,,,,,,,,,p,1,0.542195001,space,0.15574,0,73,73,51,1,9_dist_red/trial2.png,,,1,9,redHorizontal,p,79,20,female,2021-02-21_13h51.52.546,exp11,2020.2.6,MacIntel,60,,,,,,,,,,,
,,,,,,,,,,,,,,a,0,0.490035,space,0.668455,0,74,74,33,1,3_dist_red/trial9.png,,,1,3,redHorizontal,p,79,20,female,2021-02-21_13h51.52.546,exp11,2020.2.6,MacIntel,60,,,,,,,,,,,
,,,,,,,,,,,,,,p,1,0.44129,space,0.15093,0,75,75,17,1,0_dist_red/trial18.png,,,1,0,redHorizontal,p,79,20,female,2021-02-21_13h51.52.546,exp11,2020.2.6,MacIntel,60,,,,,,,,,,,
,,,,,,,,,,,,,,a,1,0.407430001,space,0.101415001,0,76,76,101,1,0_targ_1_dist_red/trial2.png,,,0,1,redHorizontal,a,79,20,female,2021-02-21_13h51.52.546,exp11,2020.2.6,MacIntel,60,,,,,,,,,,,
,,,,,,,,,,,,,,p,1,0.57434,space,0.14415,0,77,77,53,1,9_dist_red/trial4.png,,,1,9,redHorizontal,p,79,20,female,2021-02-21_13h51.52.546,exp11,2020.2.6,MacIntel,60,,,,,,,,,,,
,,,,,,,,,,,,,,a,1,0.51473,space,0.151635,0,78,78,168,1,0_targ_10_dist_red/trial19.png,,,0,10,redHorizontal,a,79,20,female,2021-02-21_13h51.52.546,exp11,2020.2.6,MacIntel,60,,,,,,,,,,,
,,,,,,,,,,,,,,a,1,0.588415001,space,0.12332,0,79,79,134,1,0_targ_4_dist_red/trial10.png,,,0,4,redHorizontal,a,79,20,female,2021-02-21_13h51.52.546,exp11,2020.2.6,MacIntel,60,,,,,,,,,,,
,,,,,,,,,,,,,,p,1,0.466015,space,0.4217,0,80,80,7,1,0_dist_red/trial8.png,,,1,0,redHorizontal,p,79,20,female,2021-02-21_13h51.52.546,exp11,2020.2.6,MacIntel,60,,,,,,,,,,,
,,,,,,,,,,,,,,a,0,0.582235,space,0.79617,0,81,81,69,1,9_dist_red/trial20.png,,,1,9,redHorizontal,p,79,20,female,2021-02-21_13h51.52.546,exp11,2020.2.6,MacIntel,60,,,,,,,,,,,
,,,,,,,,,,,,,,a,1,0.903985,space,0.435385,0,82,82,164,1,0_targ_10_dist_red/trial15.png,,,0,10,redHorizontal,a,79,20,female,2021-02-21_13h51.52.546,exp11,2020.2.6,MacIntel,60,,,,,,,,,,,
,,,,,,,,,,,,,,a,1,0.660395,space,0.333075,0,83,83,160,1,0_targ_10_dist_red/trial11.png,,,0,10,redHorizontal,a,79,20,female,2021-02-21_13h51.52.546,exp11,2020.2.6,MacIntel,60,,,,,,,,,,,
,,,,,,,,,,,,,,p,1,0.608264999,space,0.23834,0,84,84,40,1,3_dist_red/trial16.png,,,1,3,redHorizontal,p,79,20,female,2021-02-21_13h51.52.546,exp11,2020.2.6,MacIntel,60,,,,,,,,,,,
,,,,,,,,,,,,,,p,1,0.60682,space,0.692410001,0,85,85,43,1,3_dist_red/trial19.png,,,1,3,redHorizontal,p,79,20,female,2021-02-21_13h51.52.546,exp11,2020.2.6,MacIntel,60,,,,,,,,,,,
,,,,,,,,,,,,,,a,1,0.557745,space,0.166464999,0,86,86,191,1,0_targ_16_dist_red/trial17.png,,,0,16,redHorizontal,a,79,20,female,2021-02-21_13h51.52.546,exp11,2020.2.6,MacIntel,60,,,,,,,,,,,
,,,,,,,,,,,,,,a,1,0.526645,space,0.169345,0,87,87,174,1,0_targ_10_dist_red/trial25.png,,,0,10,redHorizontal,a,79,20,female,2021-02-21_13h51.52.546,exp11,2020.2.6,MacIntel,60,,,,,,,,,,,
,,,,,,,,,,,,,,a,1,0.557069999,space,0.504635,0,88,88,100,1,0_targ_1_dist_red/trial1.png,,,0,1,redHorizontal,a,79,20,female,2021-02-21_13h51.52.546,exp11,2020.2.6,MacIntel,60,,,,,,,,,,,
,,,,,,,,,,,,,,a,1,0.288925,space,0.42505,0,89,89,192,1,0_targ_16_dist_red/trial18.png,,,0,16,redHorizontal,a,79,20,female,2021-02-21_13h51.52.546,exp11,2020.2.6,MacIntel,60,,,,,,,,,,,
,,,,,,,,,,,,,,a,1,1.52874,space,0.00073,0,90,90,193,1,0_targ_16_dist_red/trial19.png,,,0,16,redHorizontal,a,79,20,female,2021-02-21_13h51.52.546,exp11,2020.2.6,MacIntel,60,,,,,,,,,,,
,,,,,,,,,,,,,,a,1,0.572865,space,0.369639999,0,91,91,107,1,0_targ_1_dist_red/trial8.png,,,0,1,redHorizontal,a,79,20,female,2021-02-21_13h51.52.546,exp11,2020.2.6,MacIntel,60,,,,,,,,,,,
,,,,,,,,,,,,,,a,1,1.84151,space,0.422495,0,92,92,123,1,0_targ_1_dist_red/trial24.png,,,0,1,redHorizontal,a,79,20,female,2021-02-21_13h51.52.546,exp11,2020.2.6,MacIntel,60,,,,,,,,,,,
,,,,,,,,,,,,,,a,1,0.36411,space,0.237715,0,93,93,105,1,0_targ_1_dist_red/trial6.png,,,0,1,redHorizontal,a,79,20,female,2021-02-21_13h51.52.546,exp11,2020.2.6,MacIntel,60,,,,,,,,,,,
,,,,,,,,,,,,,,a,0,0.213175,space,1.528785001,0,94,94,83,1,15_dist_red/trial9.png,,,1,15,redHorizontal,p,79,20,female,2021-02-21_13h51.52.546,exp11,2020.2.6,MacIntel,60,,,,,,,,,,,
,,,,,,,,,,,,,,a,1,0.42159,space,0.01683,0,95,95,117,1,0_targ_1_dist_red/trial18.png,,,0,1,redHorizontal,a,79,20,female,2021-02-21_13h51.52.546,exp11,2020.2.6,MacIntel,60,,,,,,,,,,,
,,,,,,,,,,,,,,a,1,0.530905,space,0.03838,0,96,96,133,1,0_targ_4_dist_red/trial9.png,,,0,4,redHorizontal,a,79,20,female,2021-02-21_13h51.52.546,exp11,2020.2.6,MacIntel,60,,,,,,,,,,,
,,,,,,,,,,,,,,p,1,1.76058,space,0.083315,0,97,97,96,1,15_dist_red/trial22.png,,,1,15,redHorizontal,p,79,20,female,2021-02-21_13h51.52.546,exp11,2020.2.6,MacIntel,60,,,,,,,,,,,
,,,,,,,,,,,,,,p,1,0.55342,space,0.05052,0,98,98,72,1,9_dist_red/trial23.png,,,1,9,redHorizontal,p,79,20,female,2021-02-21_13h51.52.546,exp11,2020.2.6,MacIntel,60,,,,,,,,,,,
,,,,,,,,,,,,,,p,1,0.456379999,space,0.05082,0,99,99,87,1,15_dist_red/trial13.png,,,1,15,redHorizontal,p,79,20,female,2021-02-21_13h51.52.546,exp11,2020.2.6,MacIntel,60,,,,,,,,,,,
,,,,,,,,,,,,,,p,1,0.47732,space,0.03811,0,100,100,91,1,15_dist_red/trial17.png,,,1,15,redHorizontal,p,79,20,female,2021-02-21_13h51.52.546,exp11,2020.2.6,MacIntel,60,,,,,,,,,,,
,,,,,,,,,,,,,,p,1,0.4902,space,0.933444999,0,101,101,16,1,0_dist_red/trial17.png,,,1,0,redHorizontal,p,79,20,female,2021-02-21_13h51.52.546,exp11,2020.2.6,MacIntel,60,,,,,,,,,,,
,,,,,,,,,,,,,,p,0,0.000555,space,0.06677,0,102,102,172,1,0_targ_10_dist_red/trial23.png,,,0,10,redHorizontal,a,79,20,female,2021-02-21_13h51.52.546,exp11,2020.2.6,MacIntel,60,,,,,,,,,,,
,,,,,,,,,,,,,,p,1,1.016165,space,0.17812,0,103,103,78,1,15_dist_red/trial4.png,,,1,15,redHorizontal,p,79,20,female,2021-02-21_13h51.52.546,exp11,2020.2.6,MacIntel,60,,,,,,,,,,,
,,,,,,,,,,,,,,p,1,0.87792,space,0.20433,0,104,104,49,1,3_dist_red/trial25.png,,,1,3,redHorizontal,p,79,20,female,2021-02-21_13h51.52.546,exp11,2020.2.6,MacIntel,60,,,,,,,,,,,
,,,,,,,,,,,,,,a,1,0.670449999,space,0.319765,0,105,105,177,1,0_targ_16_dist_red/trial3.png,,,0,16,redHorizontal,a,79,20,female,2021-02-21_13h51.52.546,exp11,2020.2.6,MacIntel,60,,,,,,,,,,,
,,,,,,,,,,,,,,a,1,0.523035,space,0.154545,0,106,106,102,1,0_targ_1_dist_red/trial3.png,,,0,1,redHorizontal,a,79,20,female,2021-02-21_13h51.52.546,exp11,2020.2.6,MacIntel,60,,,,,,,,,,,
,,,,,,,,,,,,,,a,1,0.53568,space,0.169305,0,107,107,194,1,0_targ_16_dist_red/trial20.png,,,0,16,redHorizontal,a,79,20,female,2021-02-21_13h51.52.546,exp11,2020.2.6,MacIntel,60,,,,,,,,,,,
,,,,,,,,,,,,,,a,0,0.51605,space,0.022530001,0,108,108,50,1,9_dist_red/trial1.png,,,1,9,redHorizontal,p,79,20,female,2021-02-21_13h51.52.546,exp11,2020.2.6,MacIntel,60,,,,,,,,,,,
,,,,,,,,,,,,,,a,1,0.57242,space,0.085624999,0,109,109,153,1,0_targ_10_dist_red/trial4.png,,,0,10,redHorizontal,a,79,20,female,2021-02-21_13h51.52.546,exp11,2020.2.6,MacIntel,60,,,,,,,,,,,
,,,,,,,,,,,,,,p,1,0.02781,space,1.340679999,0,110,110,79,1,15_dist_red/trial5.png,,,1,15,redHorizontal,p,79,20,female,2021-02-21_13h51.52.546,exp11,2020.2.6,MacIntel,60,,,,,,,,,,,
,,,,,,,,,,,,,,p,1,0.519824999,space,0.384425,0,111,111,31,1,3_dist_red/trial7.png,,,1,3,redHorizontal,p,79,20,female,2021-02-21_13h51.52.546,exp11,2020.2.6,MacIntel,60,,,,,,,,,,,
,,,,,,,,,,,,,,a,1,0.75205,space,0.876565,0,112,112,159,1,0_targ_10_dist_red/trial10.png,,,0,10,redHorizontal,a,79,20,female,2021-02-21_13h51.52.546,exp11,2020.2.6,MacIntel,60,,,,,,,,,,,
,,,,,,,,,,,,,,a,1,0.53677,space,0.068065,0,113,113,197,1,0_targ_16_dist_red/trial23.png,,,0,16,redHorizontal,a,79,20,female,2021-02-21_13h51.52.546,exp11,2020.2.6,MacIntel,60,,,,,,,,,,,
,,,,,,,,,,,,,,a,0,3.141705,space,0.690385,0,114,114,98,1,15_dist_red/trial24.png,,,1,15,redHorizontal,p,79,20,female,2021-02-21_13h51.52.546,exp11,2020.2.6,MacIntel,60,,,,,,,,,,,
,,,,,,,,,,,,,,a,1,0.00055,space,0.847635,0,115,115,113,1,0_targ_1_dist_red/trial14.png,,,0,1,redHorizontal,a,79,20,female,2021-02-21_13h51.52.546,exp11,2020.2.6,MacIntel,60,,,,,,,,,,,
,,,,,,,,,,,,,,a,1,0.385725,space,0.468435,0,116,116,169,1,0_targ_10_dist_red/trial20.png,,,0,10,redHorizontal,a,79,20,female,2021-02-21_13h51.52.546,exp11,2020.2.6,MacIntel,60,,,,,,,,,,,
,,,,,,,,,,,,,,p,1,0.44097,space,0.242605,0,117,117,29,1,3_dist_red/trial5.png,,,1,3,redHorizontal,p,79,20,female,2021-02-21_13h51.52.546,exp11,2020.2.6,MacIntel,60,,,,,,,,,,,
,,,,,,,,,,,,,,p,1,0.47544,space,0.30505,0,118,118,63,1,9_dist_red/trial14.png,,,1,9,redHorizontal,p,79,20,female,2021-02-21_13h51.52.546,exp11,2020.2.6,MacIntel,60,,,,,,,,,,,
,,,,,,,,,,,,,,p,1,0.322015,space,0.18647,0,119,119,59,1,9_dist_red/trial10.png,,,1,9,redHorizontal,p,79,20,female,2021-02-21_13h51.52.546,exp11,2020.2.6,MacIntel,60,,,,,,,,,,,
,,,,,,,,,,,,,,a,0,0.483545001,space,0.23215,0,120,120,27,1,3_dist_red/trial3.png,,,1,3,redHorizontal,p,79,20,female,2021-02-21_13h51.52.546,exp11,2020.2.6,MacIntel,60,,,,,,,,,,,
,,,,,,,,,,,,,,a,1,0.556609999,space,0.205709999,0,121,121,114,1,0_targ_1_dist_red/trial15.png,,,0,1,redHorizontal,a,79,20,female,2021-02-21_13h51.52.546,exp11,2020.2.6,MacIntel,60,,,,,,,,,,,
,,,,,,,,,,,,,,p,1,0.668005,space,0.404440001,0,122,122,42,1,3_dist_red/trial18.png,,,1,3,redHorizontal,p,79,20,female,2021-02-21_13h51.52.546,exp11,2020.2.6,MacIntel,60,,,,,,,,,,,
,,,,,,,,,,,,,,p,1,0.519905,space,0.417285,0,123,123,23,1,0_dist_red/trial24.png,,,1,0,redHorizontal,p,79,20,female,2021-02-21_13h51.52.546,exp11,2020.2.6,MacIntel,60,,,,,,,,,,,
,,,,,,,,,,,,,,p,1,0.373295001,space,0.117285,0,124,124,5,1,0_dist_red/trial6.png,,,1,0,redHorizontal,p,79,20,female,2021-02-21_13h51.52.546,exp11,2020.2.6,MacIntel,60,,,,,,,,,,,
,,,,,,,,,,,,,,a,1,0.528785,space,0.147375,0,125,125,152,1,0_targ_10_dist_red/trial3.png,,,0,10,redHorizontal,a,79,20,female,2021-02-21_13h51.52.546,exp11,2020.2.6,MacIntel,60,,,,,,,,,,,
,,,,,,,,,,,,,,a,1,0.793035,space,0.1185,0,126,126,178,1,0_targ_16_dist_red/trial4.png,,,0,16,redHorizontal,a,79,20,female,2021-02-21_13h51.52.546,exp11,2020.2.6,MacIntel,60,,,,,,,,,,,
,,,,,,,,,,,,,,p,1,0.840725,space,0.45943,0,127,127,55,1,9_dist_red/trial6.png,,,1,9,redHorizontal,p,79,20,female,2021-02-21_13h51.52.546,exp11,2020.2.6,MacIntel,60,,,,,,,,,,,
,,,,,,,,,,,,,,p,1,0.574995,space,0.286455,0,128,128,97,1,15_dist_red/trial23.png,,,1,15,redHorizontal,p,79,20,female,2021-02-21_13h51.52.546,exp11,2020.2.6,MacIntel,60,,,,,,,,,,,
,,,,,,,,,,,,,,a,1,0.42779,space,0.3189,0,129,129,108,1,0_targ_1_dist_red/trial9.png,,,0,1,redHorizontal,a,79,20,female,2021-02-21_13h51.52.546,exp11,2020.2.6,MacIntel,60,,,,,,,,,,,
,,,,,,,,,,,,,,p,0,0.0007,space,1.089555,0,130,130,143,1,0_targ_4_dist_red/trial19.png,,,0,4,redHorizontal,a,79,20,female,2021-02-21_13h51.52.546,exp11,2020.2.6,MacIntel,60,,,,,,,,,,,
,,,,,,,,,,,,,,p,1,0.50478,space,0.270195,0,131,131,41,1,3_dist_red/trial17.png,,,1,3,redHorizontal,p,79,20,female,2021-02-21_13h51.52.546,exp11,2020.2.6,MacIntel,60,,,,,,,,,,,
,,,,,,,,,,,,,,a,1,0.489364999,space,0.150935,0,132,132,154,1,0_targ_10_dist_red/trial5.png,,,0,10,redHorizontal,a,79,20,female,2021-02-21_13h51.52.546,exp11,2020.2.6,MacIntel,60,,,,,,,,,,,
,,,,,,,,,,,,,,a,1,0.973405,space,0.17692,0,133,133,188,1,0_targ_16_dist_red/trial14.png,,,0,16,redHorizontal,a,79,20,female,2021-02-21_13h51.52.546,exp11,2020.2.6,MacIntel,60,,,,,,,,,,,
,,,,,,,,,,,,,,p,1,0.558525,space,0.186475,0,134,134,57,1,9_dist_red/trial8.png,,,1,9,redHorizontal,p,79,20,female,2021-02-21_13h51.52.546,exp11,2020.2.6,MacIntel,60,,,,,,,,,,,
,,,,,,,,,,,,,,p,1,0.40346,space,0.12251,0,135,135,18,1,0_dist_red/trial19.png,,,1,0,redHorizontal,p,79,20,female,2021-02-21_13h51.52.546,exp11,2020.2.6,MacIntel,60,,,,,,,,,,,
,,,,,,,,,,,,,,a,0,0.522729999,space,0.48838,0,136,136,81,1,15_dist_red/trial7.png,,,1,15,redHorizontal,p,79,20,female,2021-02-21_13h51.52.546,exp11,2020.2.6,MacIntel,60,,,,,,,,,,,
,,,,,,,,,,,,,,a,0,0.74733,space,1.06946,0,137,137,95,1,15_dist_red/trial21.png,,,1,15,redHorizontal,p,79,20,female,2021-02-21_13h51.52.546,exp11,2020.2.6,MacIntel,60,,,,,,,,,,,
,,,,,,,,,,,,,,p,0,0.804535001,space,0.68442,0,138,138,150,1,0_targ_10_dist_red/trial1.png,,,0,10,redHorizontal,a,79,20,female,2021-02-21_13h51.52.546,exp11,2020.2.6,MacIntel,60,,,,,,,,,,,
,,,,,,,,,,,,,,a,1,0.652784999,space,0.51506,0,139,139,144,1,0_targ_4_dist_red/trial20.png,,,0,4,redHorizontal,a,79,20,female,2021-02-21_13h51.52.546,exp11,2020.2.6,MacIntel,60,,,,,,,,,,,
,,,,,,,,,,,,,,p,1,0.705765001,space,0.034209999,0,140,140,94,1,15_dist_red/trial20.png,,,1,15,redHorizontal,p,79,20,female,2021-02-21_13h51.52.546,exp11,2020.2.6,MacIntel,60,,,,,,,,,,,
,,,,,,,,,,,,,,p,1,0.51015,space,0.9496,0,141,141,32,1,3_dist_red/trial8.png,,,1,3,redHorizontal,p,79,20,female,2021-02-21_13h51.52.546,exp11,2020.2.6,MacIntel,60,,,,,,,,,,,
,,,,,,,,,,,,,,p,1,0.374299999,space,0.41422,0,142,142,13,1,0_dist_red/trial14.png,,,1,0,redHorizontal,p,79,20,female,2021-02-21_13h51.52.546,exp11,2020.2.6,MacIntel,60,,,,,,,,,,,
,,,,,,,,,,,,,,a,1,0.775230001,space,0.606785,0,143,143,176,1,0_targ_16_dist_red/trial2.png,,,0,16,redHorizontal,a,79,20,female,2021-02-21_13h51.52.546,exp11,2020.2.6,MacIntel,60,,,,,,,,,,,
,,,,,,,,,,,,,,a,1,0.47365,space,0.3036,0,144,144,131,1,0_targ_4_dist_red/trial7.png,,,0,4,redHorizontal,a,79,20,female,2021-02-21_13h51.52.546,exp11,2020.2.6,MacIntel,60,,,,,,,,,,,
,,,,,,,,,,,,,,a,1,0.572365,space,0.25783,0,145,145,162,1,0_targ_10_dist_red/trial13.png,,,0,10,redHorizontal,a,79,20,female,2021-02-21_13h51.52.546,exp11,2020.2.6,MacIntel,60,,,,,,,,,,,
,,,,,,,,,,,,,,p,1,0.656315,space,0.323625,0,146,146,35,1,3_dist_red/trial11.png,,,1,3,redHorizontal,p,79,20,female,2021-02-21_13h51.52.546,exp11,2020.2.6,MacIntel,60,,,,,,,,,,,
,,,,,,,,,,,,,,a,1,0.653795,space,0.34098,0,147,147,190,1,0_targ_16_dist_red/trial16.png,,,0,16,redHorizontal,a,79,20,female,2021-02-21_13h51.52.546,exp11,2020.2.6,MacIntel,60,,,,,,,,,,,
,,,,,,,,,,,,,,p,1,0.756255,space,0.359075,0,148,148,0,1,0_dist_red/trial1.png,,,1,0,redHorizontal,p,79,20,female,2021-02-21_13h51.52.546,exp11,2020.2.6,MacIntel,60,,,,,,,,,,,
,,,,,,,,,,,,,,a,1,0.860995,space,0.369695,0,149,149,138,1,0_targ_4_dist_red/trial14.png,,,0,4,redHorizontal,a,79,20,female,2021-02-21_13h51.52.546,exp11,2020.2.6,MacIntel,60,,,,,,,,,,,
,,,,,,,,,,,,,,p,1,0.658395,space,0.338715,0,150,150,25,1,3_dist_red/trial1.png,,,1,3,redHorizontal,p,79,20,female,2021-02-21_13h51.52.546,exp11,2020.2.6,MacIntel,60,,,,,,,,,,,
,,,,,,,,,,,,,,p,1,0.47886,space,0.32056,0,151,151,38,1,3_dist_red/trial14.png,,,1,3,redHorizontal,p,79,20,female,2021-02-21_13h51.52.546,exp11,2020.2.6,MacIntel,60,,,,,,,,,,,
,,,,,,,,,,,,,,a,0,0.629185,space,1.11822,0,152,152,54,1,9_dist_red/trial5.png,,,1,9,redHorizontal,p,79,20,female,2021-02-21_13h51.52.546,exp11,2020.2.6,MacIntel,60,,,,,,,,,,,
,,,,,,,,,,,,,,p,1,0.425325,space,0.332295,0,153,153,21,1,0_dist_red/trial22.png,,,1,0,redHorizontal,p,79,20,female,2021-02-21_13h51.52.546,exp11,2020.2.6,MacIntel,60,,,,,,,,,,,
,,,,,,,,,,,,,,p,1,0.504005,space,0.309040001,0,154,154,14,1,0_dist_red/trial15.png,,,1,0,redHorizontal,p,79,20,female,2021-02-21_13h51.52.546,exp11,2020.2.6,MacIntel,60,,,,,,,,,,,
,,,,,,,,,,,,,,p,1,0.47042,space,0.374770001,0,155,155,88,1,15_dist_red/trial14.png,,,1,15,redHorizontal,p,79,20,female,2021-02-21_13h51.52.546,exp11,2020.2.6,MacIntel,60,,,,,,,,,,,
,,,,,,,,,,,,,,p,1,0.55592,space,0.303175,0,156,156,99,1,15_dist_red/trial25.png,,,1,15,redHorizontal,p,79,20,female,2021-02-21_13h51.52.546,exp11,2020.2.6,MacIntel,60,,,,,,,,,,,
,,,,,,,,,,,,,,a,1,0.706859999,space,0.387045,0,157,157,125,1,0_targ_4_dist_red/trial1.png,,,0,4,redHorizontal,a,79,20,female,2021-02-21_13h51.52.546,exp11,2020.2.6,MacIntel,60,,,,,,,,,,,
,,,,,,,,,,,,,,p,1,0.621835,space,0.416275,0,158,158,68,1,9_dist_red/trial19.png,,,1,9,redHorizontal,p,79,20,female,2021-02-21_13h51.52.546,exp11,2020.2.6,MacIntel,60,,,,,,,,,,,
,,,,,,,,,,,,,,a,1,0.840805,space,0.713269999,0,159,159,186,1,0_targ_16_dist_red/trial12.png,,,0,16,redHorizontal,a,79,20,female,2021-02-21_13h51.52.546,exp11,2020.2.6,MacIntel,60,,,,,,,,,,,
,,,,,,,,,,,,,,p,1,0.889690001,space,0.57113,0,160,160,4,1,0_dist_red/trial5.png,,,1,0,redHorizontal,p,79,20,female,2021-02-21_13h51.52.546,exp11,2020.2.6,MacIntel,60,,,,,,,,,,,
,,,,,,,,,,,,,,p,1,0.456445,space,0.38831,0,161,161,22,1,0_dist_red/trial23.png,,,1,0,redHorizontal,p,79,20,female,2021-02-21_13h51.52.546,exp11,2020.2.6,MacIntel,60,,,,,,,,,,,
,,,,,,,,,,,,,,p,1,0.488135,space,0.36804,0,162,162,10,1,0_dist_red/trial11.png,,,1,0,redHorizontal,p,79,20,female,2021-02-21_13h51.52.546,exp11,2020.2.6,MacIntel,60,,,,,,,,,,,
,,,,,,,,,,,,,,p,1,0.636065001,space,0.471725,0,163,163,12,1,0_dist_red/trial13.png,,,1,0,redHorizontal,p,79,20,female,2021-02-21_13h51.52.546,exp11,2020.2.6,MacIntel,60,,,,,,,,,,,
,,,,,,,,,,,,,,p,1,0.638730001,space,0.470265,0,164,164,60,1,9_dist_red/trial11.png,,,1,9,redHorizontal,p,79,20,female,2021-02-21_13h51.52.546,exp11,2020.2.6,MacIntel,60,,,,,,,,,,,
,,,,,,,,,,,,,,a,1,0.820160001,space,0.3025,0,165,165,104,1,0_targ_1_dist_red/trial5.png,,,0,1,redHorizontal,a,79,20,female,2021-02-21_13h51.52.546,exp11,2020.2.6,MacIntel,60,,,,,,,,,,,
,,,,,,,,,,,,,,p,0,0.49273,space,1.139950001,0,166,166,122,1,0_targ_1_dist_red/trial23.png,,,0,1,redHorizontal,a,79,20,female,2021-02-21_13h51.52.546,exp11,2020.2.6,MacIntel,60,,,,,,,,,,,
,,,,,,,,,,,,,,a,0,0.60766,space,1.155805,0,167,167,75,1,15_dist_red/trial1.png,,,1,15,redHorizontal,p,79,20,female,2021-02-21_13h51.52.546,exp11,2020.2.6,MacIntel,60,,,,,,,,,,,
,,,,,,,,,,,,,,p,1,0.584910001,space,0.29754,0,168,168,39,1,3_dist_red/trial15.png,,,1,3,redHorizontal,p,79,20,female,2021-02-21_13h51.52.546,exp11,2020.2.6,MacIntel,60,,,,,,,,,,,
,,,,,,,,,,,,,,p,1,0.544775,space,0.28302,0,169,169,67,1,9_dist_red/trial18.png,,,1,9,redHorizontal,p,79,20,female,2021-02-21_13h51.52.546,exp11,2020.2.6,MacIntel,60,,,,,,,,,,,
,,,,,,,,,,,,,,p,0,1.091425,space,0.40515,0,170,170,171,1,0_targ_10_dist_red/trial22.png,,,0,10,redHorizontal,a,79,20,female,2021-02-21_13h51.52.546,exp11,2020.2.6,MacIntel,60,,,,,,,,,,,
,,,,,,,,,,,,,,p,0,0.726745,space,1.8668,0,171,171,189,1,0_targ_16_dist_red/trial15.png,,,0,16,redHorizontal,a,79,20,female,2021-02-21_13h51.52.546,exp11,2020.2.6,MacIntel,60,,,,,,,,,,,
,,,,,,,,,,,,,,p,1,0.69169,space,0.22115,0,172,172,47,1,3_dist_red/trial23.png,,,1,3,redHorizontal,p,79,20,female,2021-02-21_13h51.52.546,exp11,2020.2.6,MacIntel,60,,,,,,,,,,,
,,,,,,,,,,,,,,p,1,0.904379999,space,0.249035,0,173,173,70,1,9_dist_red/trial21.png,,,1,9,redHorizontal,p,79,20,female,2021-02-21_13h51.52.546,exp11,2020.2.6,MacIntel,60,,,,,,,,,,,
,,,,,,,,,,,,,,a,1,1.406925,space,0.23404,0,174,174,157,1,0_targ_10_dist_red/trial8.png,,,0,10,redHorizontal,a,79,20,female,2021-02-21_13h51.52.546,exp11,2020.2.6,MacIntel,60,,,,,,,,,,,
,,,,,,,,,,,,,,a,1,1.380825,space,0.30339,0,175,175,182,1,0_targ_16_dist_red/trial8.png,,,0,16,redHorizontal,a,79,20,female,2021-02-21_13h51.52.546,exp11,2020.2.6,MacIntel,60,,,,,,,,,,,
,,,,,,,,,,,,,,a,0,1.09142,space,0.56728,0,176,176,77,1,15_dist_red/trial3.png,,,1,15,redHorizontal,p,79,20,female,2021-02-21_13h51.52.546,exp11,2020.2.6,MacIntel,60,,,,,,,,,,,
,,,,,,,,,,,,,,p,1,0.55714,space,0.39787,0,177,177,92,1,15_dist_red/trial18.png,,,1,15,redHorizontal,p,79,20,female,2021-02-21_13h51.52.546,exp11,2020.2.6,MacIntel,60,,,,,,,,,,,
,,,,,,,,,,,,,,a,1,1.435605001,space,0.300705,0,178,178,180,1,0_targ_16_dist_red/trial6.png,,,0,16,redHorizontal,a,79,20,female,2021-02-21_13h51.52.546,exp11,2020.2.6,MacIntel,60,,,,,,,,,,,
,,,,,,,,,,,,,,p,1,0.56928,space,0.3169,0,179,179,46,1,3_dist_red/trial22.png,,,1,3,redHorizontal,p,79,20,female,2021-02-21_13h51.52.546,exp11,2020.2.6,MacIntel,60,,,,,,,,,,,
,,,,,,,,,,,,,,p,1,0.57394,space,0.239045,0,180,180,26,1,3_dist_red/trial2.png,,,1,3,redHorizontal,p,79,20,female,2021-02-21_13h51.52.546,exp11,2020.2.6,MacIntel,60,,,,,,,,,,,
,,,,,,,,,,,,,,a,1,0.55774,space,0.15782,0,181,181,175,1,0_targ_16_dist_red/trial1.png,,,0,16,redHorizontal,a,79,20,female,2021-02-21_13h51.52.546,exp11,2020.2.6,MacIntel,60,,,,,,,,,,,
,,,,,,,,,,,,,,p,1,0.527515,space,0.23315,0,182,182,1,1,0_dist_red/trial2.png,,,1,0,redHorizontal,p,79,20,female,2021-02-21_13h51.52.546,exp11,2020.2.6,MacIntel,60,,,,,,,,,,,
,,,,,,,,,,,,,,a,1,0.686024999,space,0.133985,0,183,183,139,1,0_targ_4_dist_red/trial15.png,,,0,4,redHorizontal,a,79,20,female,2021-02-21_13h51.52.546,exp11,2020.2.6,MacIntel,60,,,,,,,,,,,
,,,,,,,,,,,,,,a,1,0.871835,space,2.80417,0,184,184,112,1,0_targ_1_dist_red/trial13.png,,,0,1,redHorizontal,a,79,20,female,2021-02-21_13h51.52.546,exp11,2020.2.6,MacIntel,60,,,,,,,,,,,
,,,,,,,,,,,,,,a,0,0.753,space,3.15801,0,185,185,34,1,3_dist_red/trial10.png,,,1,3,redHorizontal,p,79,20,female,2021-02-21_13h51.52.546,exp11,2020.2.6,MacIntel,60,,,,,,,,,,,
,,,,,,,,,,,,,,a,1,0.73247,space,0.277565001,0,186,186,198,1,0_targ_16_dist_red/trial24.png,,,0,16,redHorizontal,a,79,20,female,2021-02-21_13h51.52.546,exp11,2020.2.6,MacIntel,60,,,,,,,,,,,
,,,,,,,,,,,,,,a,0,0.536605,space,0.58421,0,187,187,85,1,15_dist_red/trial11.png,,,1,15,redHorizontal,p,79,20,female,2021-02-21_13h51.52.546,exp11,2020.2.6,MacIntel,60,,,,,,,,,,,
,,,,,,,,,,,,,,p,1,0.5078,space,0.30343,0,188,188,61,1,9_dist_red/trial12.png,,,1,9,redHorizontal,p,79,20,female,2021-02-21_13h51.52.546,exp11,2020.2.6,MacIntel,60,,,,,,,,,,,
,,,,,,,,,,,,,,p,1,0.50826,space,0.179855,0,189,189,48,1,3_dist_red/trial24.png,,,1,3,redHorizontal,p,79,20,female,2021-02-21_13h51.52.546,exp11,2020.2.6,MacIntel,60,,,,,,,,,,,
,,,,,,,,,,,,,,a,1,0.6538,space,0.31387,0,190,190,126,1,0_targ_4_dist_red/trial2.png,,,0,4,redHorizontal,a,79,20,female,2021-02-21_13h51.52.546,exp11,2020.2.6,MacIntel,60,,,,,,,,,,,
,,,,,,,,,,,,,,a,1,0.52972,space,0.23947,0,191,191,136,1,0_targ_4_dist_red/trial12.png,,,0,4,redHorizontal,a,79,20,female,2021-02-21_13h51.52.546,exp11,2020.2.6,MacIntel,60,,,,,,,,,,,
,,,,,,,,,,,,,,a,1,0.907665,space,0.42122,0,192,192,170,1,0_targ_10_dist_red/trial21.png,,,0,10,redHorizontal,a,79,20,female,2021-02-21_13h51.52.546,exp11,2020.2.6,MacIntel,60,,,,,,,,,,,
,,,,,,,,,,,,,,a,1,0.8205,space,0.896845,0,193,193,156,1,0_targ_10_dist_red/trial7.png,,,0,10,redHorizontal,a,79,20,female,2021-02-21_13h51.52.546,exp11,2020.2.6,MacIntel,60,,,,,,,,,,,
,,,,,,,,,,,,,,a,1,0.63897,space,0.282915,0,194,194,155,1,0_targ_10_dist_red/trial6.png,,,0,10,redHorizontal,a,79,20,female,2021-02-21_13h51.52.546,exp11,2020.2.6,MacIntel,60,,,,,,,,,,,
,,,,,,,,,,,,,,a,0,0.490525,space,1.94874,0,195,195,3,1,0_dist_red/trial4.png,,,1,0,redHorizontal,p,79,20,female,2021-02-21_13h51.52.546,exp11,2020.2.6,MacIntel,60,,,,,,,,,,,
,,,,,,,,,,,,,,a,1,0.55561,space,0.17896,0,196,196,109,1,0_targ_1_dist_red/trial10.png,,,0,1,redHorizontal,a,79,20,female,2021-02-21_13h51.52.546,exp11,2020.2.6,MacIntel,60,,,,,,,,,,,
,,,,,,,,,,,,,,p,1,0.424095,space,0.319275,0,197,197,20,1,0_dist_red/trial21.png,,,1,0,redHorizontal,p,79,20,female,2021-02-21_13h51.52.546,exp11,2020.2.6,MacIntel,60,,,,,,,,,,,
,,,,,,,,,,,,,,p,0,0.485730001,space,1.033574999,0,198,198,142,1,0_targ_4_dist_red/trial18.png,,,0,4,redHorizontal,a,79,20,female,2021-02-21_13h51.52.546,exp11,2020.2.6,MacIntel,60,,,,,,,,,,,
,,,,,,,,,,,,,,a,0,0.704425,space,1.86773,0,199,199,80,1,15_dist_red/trial6.png,,,1,15,redHorizontal,p,79,20,female,2021-02-21_13h51.52.546,exp11,2020.2.6,MacIntel,60,,,,,,,,,,,
,,,,,,,,,,,,,,,,,,,,,,,,,,,,,,,79,20,female,2021-02-21_13h51.52.546,exp11,2020.2.6,MacIntel,60,0,0,0,1,1,conRed.xlsx,red horizontal,Look for red horizontal bar (target) and indicate if it is present or absent in the array. If red horizontal target is present press 'p' and if absent press 'a'. Press SPACE to start.,,,
,,,,,,,,,,space,2.11053,space,7.290195,a,1,0.533125,space,0.57566,0,0,0,111,1,0_targ_1_dist_green/trial12.png,,,0,1,greenverival,a,79,20,female,2021-02-21_13h51.52.546,exp11,2020.2.6,MacIntel,60,,,,,,,,,,,
,,,,,,,,,,,,,,a,1,0.758,space,0.340575,0,1,1,155,1,0_targ_10_dist_green/trial6.png,,,0,10,greenverival,a,79,20,female,2021-02-21_13h51.52.546,exp11,2020.2.6,MacIntel,60,,,,,,,,,,,
,,,,,,,,,,,,,,a,1,0.455505,space,0.447045,0,2,2,101,1,0_targ_1_dist_green/trial2.png,,,0,1,greenverival,a,79,20,female,2021-02-21_13h51.52.546,exp11,2020.2.6,MacIntel,60,,,,,,,,,,,
,,,,,,,,,,,,,,a,0,0.674725001,space,1.82553,0,3,3,99,1,15_dist_green/trial25.png,,,1,15,greenverival,p,79,20,female,2021-02-21_13h51.52.546,exp11,2020.2.6,MacIntel,60,,,,,,,,,,,
,,,,,,,,,,,,,,a,1,0.839855,space,0.37063,0,4,4,159,1,0_targ_10_dist_green/trial10.png,,,0,10,greenverival,a,79,20,female,2021-02-21_13h51.52.546,exp11,2020.2.6,MacIntel,60,,,,,,,,,,,
,,,,,,,,,,,,,,p,1,0.59153,space,0.322885,0,5,5,63,1,9_dist_green/trial14.png,,,1,9,greenverival,p,79,20,female,2021-02-21_13h51.52.546,exp11,2020.2.6,MacIntel,60,,,,,,,,,,,
,,,,,,,,,,,,,,a,1,0.54129,space,0.392155,0,6,6,148,1,0_targ_4_dist_green/trial24.png,,,0,4,greenverival,a,79,20,female,2021-02-21_13h51.52.546,exp11,2020.2.6,MacIntel,60,,,,,,,,,,,
,,,,,,,,,,,,,,a,1,0.67162,space,0.30355,0,7,7,171,1,0_targ_10_dist_green/trial22.png,,,0,10,greenverival,a,79,20,female,2021-02-21_13h51.52.546,exp11,2020.2.6,MacIntel,60,,,,,,,,,,,
,,,,,,,,,,,,,,a,1,0.62649,space,0.304515,0,8,8,150,1,0_targ_10_dist_green/trial1.png,,,0,10,greenverival,a,79,20,female,2021-02-21_13h51.52.546,exp11,2020.2.6,MacIntel,60,,,,,,,,,,,
,,,,,,,,,,,,,,a,1,0.655379999,space,0.368864999,0,9,9,195,1,0_targ_16_dist_green/trial21.png,,,0,16,greenverival,a,79,20,female,2021-02-21_13h51.52.546,exp11,2020.2.6,MacIntel,60,,,,,,,,,,,
,,,,,,,,,,,,,,p,1,0.689765,space,0.267625,0,10,10,95,1,15_dist_green/trial21.png,,,1,15,greenverival,p,79,20,female,2021-02-21_13h51.52.546,exp11,2020.2.6,MacIntel,60,,,,,,,,,,,
,,,,,,,,,,,,,,p,1,0.488360001,space,0.502210001,0,11,11,18,1,0_dist_green/trial19.png,,,1,0,greenverival,p,79,20,female,2021-02-21_13h51.52.546,exp11,2020.2.6,MacIntel,60,,,,,,,,,,,
,,,,,,,,,,,,,,p,1,0.606195,space,0.27255,0,12,12,29,1,3_dist_green/trial5.png,,,1,3,greenverival,p,79,20,female,2021-02-21_13h51.52.546,exp11,2020.2.6,MacIntel,60,,,,,,,,,,,
,,,,,,,,,,,,,,p,1,0.3975,space,0.201169999,0,13,13,10,1,0_dist_green/trial11.png,,,1,0,greenverival,p,79,20,female,2021-02-21_13h51.52.546,exp11,2020.2.6,MacIntel,60,,,,,,,,,,,
,,,,,,,,,,,,,,a,1,0.722495,space,0.222610001,0,14,14,185,1,0_targ_16_dist_green/trial11.png,,,0,16,greenverival,a,79,20,female,2021-02-21_13h51.52.546,exp11,2020.2.6,MacIntel,60,,,,,,,,,,,
,,,,,,,,,,,,,,p,1,0.523195,space,0.201374999,0,15,15,97,1,15_dist_green/trial23.png,,,1,15,greenverival,p,79,20,female,2021-02-21_13h51.52.546,exp11,2020.2.6,MacIntel,60,,,,,,,,,,,
,,,,,,,,,,,,,,p,1,0.442895,space,0.08719,0,16,16,24,1,0_dist_green/trial25.png,,,1,0,greenverival,p,79,20,female,2021-02-21_13h51.52.546,exp11,2020.2.6,MacIntel,60,,,,,,,,,,,
,,,,,,,,,,,,,,a,1,0.663539999,space,0.385785,0,17,17,192,1,0_targ_16_dist_green/trial18.png,,,0,16,greenverival,a,79,20,female,2021-02-21_13h51.52.546,exp11,2020.2.6,MacIntel,60,,,,,,,,,,,
,,,,,,,,,,,,,,a,1,1.354774999,space,0.333615,0,18,18,194,1,0_targ_16_dist_green/trial20.png,,,0,16,greenverival,a,79,20,female,2021-02-21_13h51.52.546,exp11,2020.2.6,MacIntel,60,,,,,,,,,,,
,,,,,,,,,,,,,,p,1,0.43705,space,0.30524,0,19,19,17,1,0_dist_green/trial18.png,,,1,0,greenverival,p,79,20,female,2021-02-21_13h51.52.546,exp11,2020.2.6,MacIntel,60,,,,,,,,,,,
,,,,,,,,,,,,,,p,1,0.333790001,space,0.18311,0,20,20,7,1,0_dist_green/trial8.png,,,1,0,greenverival,p,79,20,female,2021-02-21_13h51.52.546,exp11,2020.2.6,MacIntel,60,,,,,,,,,,,
,,,,,,,,,,,,,,a,1,0.57703,space,0.31977,0,21,21,146,1,0_targ_4_dist_green/trial22.png,,,0,4,greenverival,a,79,20,female,2021-02-21_13h51.52.546,exp11,2020.2.6,MacIntel,60,,,,,,,,,,,
,,,,,,,,,,,,,,a,1,0.61489,space,0.301345,0,22,22,199,1,0_targ_16_dist_green/trial25.png,,,0,16,greenverival,a,79,20,female,2021-02-21_13h51.52.546,exp11,2020.2.6,MacIntel,60,,,,,,,,,,,
,,,,,,,,,,,,,,a,1,0.569355,space,0.60434,0,23,23,179,1,0_targ_16_dist_green/trial5.png,,,0,16,greenverival,a,79,20,female,2021-02-21_13h51.52.546,exp11,2020.2.6,MacIntel,60,,,,,,,,,,,
,,,,,,,,,,,,,,a,1,0.44429,space,0.292045,0,24,24,163,1,0_targ_10_dist_green/trial14.png,,,0,10,greenverival,a,79,20,female,2021-02-21_13h51.52.546,exp11,2020.2.6,MacIntel,60,,,,,,,,,,,
,,,,,,,,,,,,,,a,1,0.50163,space,0.353765,0,25,25,113,1,0_targ_1_dist_green/trial14.png,,,0,1,greenverival,a,79,20,female,2021-02-21_13h51.52.546,exp11,2020.2.6,MacIntel,60,,,,,,,,,,,
,,,,,,,,,,,,,,p,0,0.374635,space,0.163195,0,26,26,107,1,0_targ_1_dist_green/trial8.png,,,0,1,greenverival,a,79,20,female,2021-02-21_13h51.52.546,exp11,2020.2.6,MacIntel,60,,,,,,,,,,,
,,,,,,,,,,,,,,p,1,0.42202,space,0.410885,0,27,27,22,1,0_dist_green/trial23.png,,,1,0,greenverival,p,79,20,female,2021-02-21_13h51.52.546,exp11,2020.2.6,MacIntel,60,,,,,,,,,,,
,,,,,,,,,,,,,,a,1,0.504199999,space,0.350494999,0,28,28,175,1,0_targ_16_dist_green/trial1.png,,,0,16,greenverival,a,79,20,female,2021-02-21_13h51.52.546,exp11,2020.2.6,MacIntel,60,,,,,,,,,,,
,,,,,,,,,,,,,,p,1,0.808534999,space,0.309865,0,29,29,73,1,9_dist_green/trial24.png,,,1,9,greenverival,p,79,20,female,2021-02-21_13h51.52.546,exp11,2020.2.6,MacIntel,60,,,,,,,,,,,
,,,,,,,,,,,,,,a,1,0.73803,space,0.23701,0,30,30,115,1,0_targ_1_dist_green/trial6.png,,,0,1,greenverival,a,79,20,female,2021-02-21_13h51.52.546,exp11,2020.2.6,MacIntel,60,,,,,,,,,,,
,,,,,,,,,,,,,,a,1,0.525985,space,1.48714,0,31,31,145,1,0_targ_4_dist_green/trial21.png,,,0,4,greenverival,a,79,20,female,2021-02-21_13h51.52.546,exp11,2020.2.6,MacIntel,60,,,,,,,,,,,
,,,,,,,,,,,,,,a,1,0.542735,space,0.167175001,0,32,32,180,1,0_targ_16_dist_green/trial6.png,,,0,16,greenverival,a,79,20,female,2021-02-21_13h51.52.546,exp11,2020.2.6,MacIntel,60,,,,,,,,,,,
,,,,,,,,,,,,,,a,1,0.578215,space,0.133394999,0,33,33,190,1,0_targ_16_dist_green/trial16.png,,,0,16,greenverival,a,79,20,female,2021-02-21_13h51.52.546,exp11,2020.2.6,MacIntel,60,,,,,,,,,,,
,,,,,,,,,,,,,,a,1,0.73627,space,0.144235,0,34,34,128,1,0_targ_4_dist_green/trial4.png,,,0,4,greenverival,a,79,20,female,2021-02-21_13h51.52.546,exp11,2020.2.6,MacIntel,60,,,,,,,,,,,
,,,,,,,,,,,,,,a,0,0.6175,space,2.253374999,0,35,35,86,1,15_dist_green/trial12.png,,,1,15,greenverival,p,79,20,female,2021-02-21_13h51.52.546,exp11,2020.2.6,MacIntel,60,,,,,,,,,,,
,,,,,,,,,,,,,,p,1,0.81513,space,0.45258,0,36,36,81,1,15_dist_green/trial7.png,,,1,15,greenverival,p,79,20,female,2021-02-21_13h51.52.546,exp11,2020.2.6,MacIntel,60,,,,,,,,,,,
,,,,,,,,,,,,,,p,1,0.390755,space,0.28562,0,37,37,19,1,0_dist_green/trial20.png,,,1,0,greenverival,p,79,20,female,2021-02-21_13h51.52.546,exp11,2020.2.6,MacIntel,60,,,,,,,,,,,
,,,,,,,,,,,,,,p,1,0.367725001,space,0.204070001,0,38,38,14,1,0_dist_green/trial15.png,,,1,0,greenverival,p,79,20,female,2021-02-21_13h51.52.546,exp11,2020.2.6,MacIntel,60,,,,,,,,,,,
,,,,,,,,,,,,,,a,1,0.46288,space,1.636065,0,39,39,120,1,0_targ_1_dist_green/trial21.png,,,0,1,greenverival,a,79,20,female,2021-02-21_13h51.52.546,exp11,2020.2.6,MacIntel,60,,,,,,,,,,,
,,,,,,,,,,,,,,a,1,0.424405,space,0.26819,0,40,40,119,1,0_targ_1_dist_green/trial20.png,,,0,1,greenverival,a,79,20,female,2021-02-21_13h51.52.546,exp11,2020.2.6,MacIntel,60,,,,,,,,,,,
,,,,,,,,,,,,,,p,1,0.407625001,space,0.250755,0,41,41,36,1,3_dist_green/trial12.png,,,1,3,greenverival,p,79,20,female,2021-02-21_13h51.52.546,exp11,2020.2.6,MacIntel,60,,,,,,,,,,,
,,,,,,,,,,,,,,a,1,0.484495,space,0.239824999,0,42,42,152,1,0_targ_10_dist_green/trial3.png,,,0,10,greenverival,a,79,20,female,2021-02-21_13h51.52.546,exp11,2020.2.6,MacIntel,60,,,,,,,,,,,
,,,,,,,,,,,,,,p,1,0.407005,space,0.383495,0,43,43,20,1,0_dist_green/trial21.png,,,1,0,greenverival,p,79,20,female,2021-02-21_13h51.52.546,exp11,2020.2.6,MacIntel,60,,,,,,,,,,,
,,,,,,,,,,,,,,a,0,0.675265,space,0.99227,0,44,44,89,1,15_dist_green/trial15.png,,,1,15,greenverival,p,79,20,female,2021-02-21_13h51.52.546,exp11,2020.2.6,MacIntel,60,,,,,,,,,,,
,,,,,,,,,,,,,,a,0,0.706745,space,2.12825,0,45,45,27,1,3_dist_green/trial3.png,,,1,3,greenverival,p,79,20,female,2021-02-21_13h51.52.546,exp11,2020.2.6,MacIntel,60,,,,,,,,,,,
,,,,,,,,,,,,,,a,1,0.630700001,space,0.333265,0,46,46,121,1,0_targ_1_dist_green/trial22.png,,,0,1,greenverival,a,79,20,female,2021-02-21_13h51.52.546,exp11,2020.2.6,MacIntel,60,,,,,,,,,,,
,,,,,,,,,,,,,,a,1,0.507490001,space,0.1986,0,47,47,130,1,0_targ_4_dist_green/trial6.png,,,0,4,greenverival,a,79,20,female,2021-02-21_13h51.52.546,exp11,2020.2.6,MacIntel,60,,,,,,,,,,,
,,,,,,,,,,,,,,a,1,0.455955,space,0.27094,0,48,48,105,1,0_targ_1_dist_green/trial6.png,,,0,1,greenverival,a,79,20,female,2021-02-21_13h51.52.546,exp11,2020.2.6,MacIntel,60,,,,,,,,,,,
,,,,,,,,,,,,,,p,1,0.603414999,space,0.25895,0,49,49,25,1,3_dist_green/trial1.png,,,1,3,greenverival,p,79,20,female,2021-02-21_13h51.52.546,exp11,2020.2.6,MacIntel,60,,,,,,,,,,,
,,,,,,,,,,,,,,a,0,0.506305001,space,0.441455,0,50,50,75,1,15_dist_green/trial1.png,,,1,15,greenverival,p,79,20,female,2021-02-21_13h51.52.546,exp11,2020.2.6,MacIntel,60,,,,,,,,,,,
,,,,,,,,,,,,,,p,1,0.636670001,space,0.260795,0,51,51,94,1,15_dist_green/trial20.png,,,1,15,greenverival,p,79,20,female,2021-02-21_13h51.52.546,exp11,2020.2.6,MacIntel,60,,,,,,,,,,,
,,,,,,,,,,,,,,p,1,0.673495,space,0.359965,0,52,52,98,1,15_dist_green/trial24.png,,,1,15,greenverival,p,79,20,female,2021-02-21_13h51.52.546,exp11,2020.2.6,MacIntel,60,,,,,,,,,,,
,,,,,,,,,,,,,,a,1,0.62064,space,0.224235,0,53,53,166,1,0_targ_10_dist_green/trial17.png,,,0,10,greenverival,a,79,20,female,2021-02-21_13h51.52.546,exp11,2020.2.6,MacIntel,60,,,,,,,,,,,
,,,,,,,,,,,,,,p,0,0.83672,space,0.083545,0,54,54,116,1,0_targ_1_dist_green/trial17.png,,,0,1,greenverival,a,79,20,female,2021-02-21_13h51.52.546,exp11,2020.2.6,MacIntel,60,,,,,,,,,,,
,,,,,,,,,,,,,,a,0,0.75896,space,0.476620001,0,55,55,80,1,15_dist_green/trial6.png,,,1,15,greenverival,p,79,20,female,2021-02-21_13h51.52.546,exp11,2020.2.6,MacIntel,60,,,,,,,,,,,
,,,,,,,,,,,,,,p,1,0.589395001,space,0.26519,0,56,56,61,1,9_dist_green/trial12.png,,,1,9,greenverival,p,79,20,female,2021-02-21_13h51.52.546,exp11,2020.2.6,MacIntel,60,,,,,,,,,,,
,,,,,,,,,,,,,,a,0,0.823595,space,0.245065001,0,57,57,53,1,9_dist_green/trial4.png,,,1,9,greenverival,p,79,20,female,2021-02-21_13h51.52.546,exp11,2020.2.6,MacIntel,60,,,,,,,,,,,
,,,,,,,,,,,,,,p,1,0.372175001,space,0.30821,0,58,58,12,1,0_dist_green/trial13.png,,,1,0,greenverival,p,79,20,female,2021-02-21_13h51.52.546,exp11,2020.2.6,MacIntel,60,,,,,,,,,,,
,,,,,,,,,,,,,,p,1,0.374055,space,0.24709,0,59,59,15,1,0_dist_green/trial16.png,,,1,0,greenverival,p,79,20,female,2021-02-21_13h51.52.546,exp11,2020.2.6,MacIntel,60,,,,,,,,,,,
,,,,,,,,,,,,,,p,1,0.54309,space,0.325475,0,60,60,84,1,15_dist_green/trial10.png,,,1,15,greenverival,p,79,20,female,2021-02-21_13h51.52.546,exp11,2020.2.6,MacIntel,60,,,,,,,,,,,
,,,,,,,,,,,,,,p,0,0.391355,space,1.40633,0,61,61,158,1,0_targ_10_dist_green/trial9.png,,,0,10,greenverival,a,79,20,female,2021-02-21_13h51.52.546,exp11,2020.2.6,MacIntel,60,,,,,,,,,,,
,,,,,,,,,,,,,,p,1,1.808815001,space,0.677025,0,62,62,91,1,15_dist_green/trial17.png,,,1,15,greenverival,p,79,20,female,2021-02-21_13h51.52.546,exp11,2020.2.6,MacIntel,60,,,,,,,,,,,
,,,,,,,,,,,,,,a,1,0.798475,space,0.335399999,0,63,63,154,1,0_targ_10_dist_green/trial5.png,,,0,10,greenverival,a,79,20,female,2021-02-21_13h51.52.546,exp11,2020.2.6,MacIntel,60,,,,,,,,,,,
,,,,,,,,,,,,,,p,1,0.493355,space,0.33453,0,64,64,72,1,9_dist_green/trial23.png,,,1,9,greenverival,p,79,20,female,2021-02-21_13h51.52.546,exp11,2020.2.6,MacIntel,60,,,,,,,,,,,
,,,,,,,,,,,,,,a,0,0.40389,space,0.017700001,0,65,65,31,1,3_dist_green/trial7.png,,,1,3,greenverival,p,79,20,female,2021-02-21_13h51.52.546,exp11,2020.2.6,MacIntel,60,,,,,,,,,,,
,,,,,,,,,,,,,,a,1,0.652085,space,0.480035,0,66,66,197,1,0_targ_16_dist_green/trial23.png,,,0,16,greenverival,a,79,20,female,2021-02-21_13h51.52.546,exp11,2020.2.6,MacIntel,60,,,,,,,,,,,
,,,,,,,,,,,,,,a,0,0.721729999,space,2.648645,0,67,67,55,1,9_dist_green/trial6.png,,,1,9,greenverival,p,79,20,female,2021-02-21_13h51.52.546,exp11,2020.2.6,MacIntel,60,,,,,,,,,,,
,,,,,,,,,,,,,,p,1,1.526079999,space,2.39772,0,68,68,56,1,9_dist_green/trial7.png,,,1,9,greenverival,p,79,20,female,2021-02-21_13h51.52.546,exp11,2020.2.6,MacIntel,60,,,,,,,,,,,
,,,,,,,,,,,,,,p,1,0.654015,space,0.31384,0,69,69,82,1,15_dist_green/trial8.png,,,1,15,greenverival,p,79,20,female,2021-02-21_13h51.52.546,exp11,2020.2.6,MacIntel,60,,,,,,,,,,,
,,,,,,,,,,,,,,p,1,0.451900001,space,0.300195,0,70,70,76,1,15_dist_green/trial2.png,,,1,15,greenverival,p,79,20,female,2021-02-21_13h51.52.546,exp11,2020.2.6,MacIntel,60,,,,,,,,,,,
,,,,,,,,,,,,,,p,1,0.387935,space,0.24967,0,71,71,88,1,15_dist_green/trial14.png,,,1,15,greenverival,p,79,20,female,2021-02-21_13h51.52.546,exp11,2020.2.6,MacIntel,60,,,,,,,,,,,
,,,,,,,,,,,,,,p,1,0.362799999,space,0.205765001,0,72,72,9,1,0_dist_green/trial10.png,,,1,0,greenverival,p,79,20,female,2021-02-21_13h51.52.546,exp11,2020.2.6,MacIntel,60,,,,,,,,,,,
,,,,,,,,,,,,,,p,0,0.372909999,space,2.080955001,0,73,73,141,1,0_targ_4_dist_green/trial17.png,,,0,4,greenverival,a,79,20,female,2021-02-21_13h51.52.546,exp11,2020.2.6,MacIntel,60,,,,,,,,,,,
,,,,,,,,,,,,,,a,1,0.74032,space,0.149780001,0,74,74,169,1,0_targ_10_dist_green/trial20.png,,,0,10,greenverival,a,79,20,female,2021-02-21_13h51.52.546,exp11,2020.2.6,MacIntel,60,,,,,,,,,,,
,,,,,,,,,,,,,,p,0,0.65668,space,0.19552,0,75,75,117,1,0_targ_1_dist_green/trial18.png,,,0,1,greenverival,a,79,20,female,2021-02-21_13h51.52.546,exp11,2020.2.6,MacIntel,60,,,,,,,,,,,
,,,,,,,,,,,,,,a,1,0.60299,space,0.165625,0,76,76,118,1,0_targ_1_dist_green/trial19.png,,,0,1,greenverival,a,79,20,female,2021-02-21_13h51.52.546,exp11,2020.2.6,MacIntel,60,,,,,,,,,,,
,,,,,,,,,,,,,,p,1,0.47297,space,0.268245,0,77,77,77,1,15_dist_green/trial3.png,,,1,15,greenverival,p,79,20,female,2021-02-21_13h51.52.546,exp11,2020.2.6,MacIntel,60,,,,,,,,,,,
,,,,,,,,,,,,,,p,1,0.457075001,space,0.160255,0,78,78,16,1,0_dist_green/trial17.png,,,1,0,greenverival,p,79,20,female,2021-02-21_13h51.52.546,exp11,2020.2.6,MacIntel,60,,,,,,,,,,,
,,,,,,,,,,,,,,a,1,0.52408,space,0.29063,0,79,79,124,1,0_targ_1_dist_green/trial25.png,,,0,1,greenverival,a,79,20,female,2021-02-21_13h51.52.546,exp11,2020.2.6,MacIntel,60,,,,,,,,,,,
,,,,,,,,,,,,,,p,1,0.471805,space,0.18898,0,80,80,70,1,9_dist_green/trial21.png,,,1,9,greenverival,p,79,20,female,2021-02-21_13h51.52.546,exp11,2020.2.6,MacIntel,60,,,,,,,,,,,
,,,,,,,,,,,,,,p,1,0.595965,space,0.140955,0,81,81,85,1,15_dist_green/trial11.png,,,1,15,greenverival,p,79,20,female,2021-02-21_13h51.52.546,exp11,2020.2.6,MacIntel,60,,,,,,,,,,,
,,,,,,,,,,,,,,p,1,0.479824999,space,0.157635,0,82,82,48,1,3_dist_green/trial24.png,,,1,3,greenverival,p,79,20,female,2021-02-21_13h51.52.546,exp11,2020.2.6,MacIntel,60,,,,,,,,,,,
,,,,,,,,,,,,,,a,1,0.57342,space,0.201455001,0,83,83,106,1,0_targ_1_dist_green/trial7.png,,,0,1,greenverival,a,79,20,female,2021-02-21_13h51.52.546,exp11,2020.2.6,MacIntel,60,,,,,,,,,,,
,,,,,,,,,,,,,,a,1,0.971205,space,0.11177,0,84,84,191,1,0_targ_16_dist_green/trial17.png,,,0,16,greenverival,a,79,20,female,2021-02-21_13h51.52.546,exp11,2020.2.6,MacIntel,60,,,,,,,,,,,
,,,,,,,,,,,,,,a,1,0.72022,space,0.10048,0,85,85,139,1,0_targ_4_dist_green/trial15.png,,,0,4,greenverival,a,79,20,female,2021-02-21_13h51.52.546,exp11,2020.2.6,MacIntel,60,,,,,,,,,,,
,,,,,,,,,,,,,,a,1,0.56295,space,1.08983,0,86,86,147,1,0_targ_4_dist_green/trial23.png,,,0,4,greenverival,a,79,20,female,2021-02-21_13h51.52.546,exp11,2020.2.6,MacIntel,60,,,,,,,,,,,
,,,,,,,,,,,,,,a,0,0.35727,space,2.617565,0,87,87,0,1,0_dist_green/trial1.png,,,1,0,greenverival,p,79,20,female,2021-02-21_13h51.52.546,exp11,2020.2.6,MacIntel,60,,,,,,,,,,,
,,,,,,,,,,,,,,p,1,0.541935,space,0.282205,0,88,88,21,1,0_dist_green/trial22.png,,,1,0,greenverival,p,79,20,female,2021-02-21_13h51.52.546,exp11,2020.2.6,MacIntel,60,,,,,,,,,,,
,,,,,,,,,,,,,,p,0,0.305725,space,1.608325001,0,89,89,133,1,0_targ_4_dist_green/trial9.png,,,0,4,greenverival,a,79,20,female,2021-02-21_13h51.52.546,exp11,2020.2.6,MacIntel,60,,,,,,,,,,,
,,,,,,,,,,,,,,a,1,0.751315,space,0.049865,0,90,90,161,1,0_targ_10_dist_green/trial12.png,,,0,10,greenverival,a,79,20,female,2021-02-21_13h51.52.546,exp11,2020.2.6,MacIntel,60,,,,,,,,,,,
,,,,,,,,,,,,,,a,1,0.462295,space,0.101205,0,91,91,172,1,0_targ_10_dist_green/trial23.png,,,0,10,greenverival,a,79,20,female,2021-02-21_13h51.52.546,exp11,2020.2.6,MacIntel,60,,,,,,,,,,,
,,,,,,,,,,,,,,a,1,0.39129,space,0.05153,0,92,92,104,1,0_targ_1_dist_green/trial5.png,,,0,1,greenverival,a,79,20,female,2021-02-21_13h51.52.546,exp11,2020.2.6,MacIntel,60,,,,,,,,,,,
,,,,,,,,,,,,,,a,1,0.47848,space,0.057025,0,93,93,156,1,0_targ_10_dist_green/trial7.png,,,0,10,greenverival,a,79,20,female,2021-02-21_13h51.52.546,exp11,2020.2.6,MacIntel,60,,,,,,,,,,,
,,,,,,,,,,,,,,a,0,0.42672,space,0.15748,0,94,94,46,1,3_dist_green/trial22.png,,,1,3,greenverival,p,79,20,female,2021-02-21_13h51.52.546,exp11,2020.2.6,MacIntel,60,,,,,,,,,,,
,,,,,,,,,,,,,,p,0,0.65942,space,0.129355,0,95,95,183,1,0_targ_16_dist_green/trial9.png,,,0,16,greenverival,a,79,20,female,2021-02-21_13h51.52.546,exp11,2020.2.6,MacIntel,60,,,,,,,,,,,
,,,,,,,,,,,,,,a,1,0.536275,space,0.11603,0,96,96,176,1,0_targ_16_dist_green/trial2.png,,,0,16,greenverival,a,79,20,female,2021-02-21_13h51.52.546,exp11,2020.2.6,MacIntel,60,,,,,,,,,,,
,,,,,,,,,,,,,,p,1,0.50979,space,0.218470001,0,97,97,6,1,0_dist_green/trial7.png,,,1,0,greenverival,p,79,20,female,2021-02-21_13h51.52.546,exp11,2020.2.6,MacIntel,60,,,,,,,,,,,
,,,,,,,,,,,,,,a,1,0.392635,space,0.082235,0,98,98,173,1,0_targ_10_dist_green/trial24.png,,,0,10,greenverival,a,79,20,female,2021-02-21_13h51.52.546,exp11,2020.2.6,MacIntel,60,,,,,,,,,,,
,,,,,,,,,,,,,,p,1,0.579820001,space,0.10546,0,99,99,49,1,3_dist_green/trial25.png,,,1,3,greenverival,p,79,20,female,2021-02-21_13h51.52.546,exp11,2020.2.6,MacIntel,60,,,,,,,,,,,
,,,,,,,,,,,,,,a,0,0.45472,space,0.5092,0,100,100,1,1,0_dist_green/trial2.png,,,1,0,greenverival,p,79,20,female,2021-02-21_13h51.52.546,exp11,2020.2.6,MacIntel,60,,,,,,,,,,,
,,,,,,,,,,,,,,p,1,0.622035,space,0.229499999,0,101,101,54,1,9_dist_green/trial5.png,,,1,9,greenverival,p,79,20,female,2021-02-21_13h51.52.546,exp11,2020.2.6,MacIntel,60,,,,,,,,,,,
,,,,,,,,,,,,,,a,1,0.574765,space,0.1731,0,102,102,189,1,0_targ_16_dist_green/trial15.png,,,0,16,greenverival,a,79,20,female,2021-02-21_13h51.52.546,exp11,2020.2.6,MacIntel,60,,,,,,,,,,,
,,,,,,,,,,,,,,a,1,0.55993,space,0.088345001,0,103,103,114,1,0_targ_1_dist_green/trial15.png,,,0,1,greenverival,a,79,20,female,2021-02-21_13h51.52.546,exp11,2020.2.6,MacIntel,60,,,,,,,,,,,
,,,,,,,,,,,,,,a,1,0.528055,space,0.02618,0,104,104,134,1,0_targ_4_dist_green/trial10.png,,,0,4,greenverival,a,79,20,female,2021-02-21_13h51.52.546,exp11,2020.2.6,MacIntel,60,,,,,,,,,,,
,,,,,,,,,,,,,,a,1,0.47244,space,0.000870001,0,105,105,131,1,0_targ_4_dist_green/trial7.png,,,0,4,greenverival,a,79,20,female,2021-02-21_13h51.52.546,exp11,2020.2.6,MacIntel,60,,,,,,,,,,,
,,,,,,,,,,,,,,a,1,0.695515,space,0.05626,0,106,106,196,1,0_targ_16_dist_green/trial22.png,,,0,16,greenverival,a,79,20,female,2021-02-21_13h51.52.546,exp11,2020.2.6,MacIntel,60,,,,,,,,,,,
,,,,,,,,,,,,,,p,1,0.543595,space,0.637375,0,107,107,4,1,0_dist_green/trial5.png,,,1,0,greenverival,p,79,20,female,2021-02-21_13h51.52.546,exp11,2020.2.6,MacIntel,60,,,,,,,,,,,
,,,,,,,,,,,,,,p,1,0.54064,space,0.340814999,0,108,108,35,1,3_dist_green/trial11.png,,,1,3,greenverival,p,79,20,female,2021-02-21_13h51.52.546,exp11,2020.2.6,MacIntel,60,,,,,,,,,,,
,,,,,,,,,,,,,,a,1,0.453620001,space,0.33385,0,109,109,100,1,0_targ_1_dist_green/trial1.png,,,0,1,greenverival,a,79,20,female,2021-02-21_13h51.52.546,exp11,2020.2.6,MacIntel,60,,,,,,,,,,,
,,,,,,,,,,,,,,p,1,0.50636,space,0.521145,0,110,110,26,1,3_dist_green/trial2.png,,,1,3,greenverival,p,79,20,female,2021-02-21_13h51.52.546,exp11,2020.2.6,MacIntel,60,,,,,,,,,,,
,,,,,,,,,,,,,,a,1,0.58887,space,0.467835,0,111,111,165,1,0_targ_10_dist_green/trial16.png,,,0,10,greenverival,a,79,20,female,2021-02-21_13h51.52.546,exp11,2020.2.6,MacIntel,60,,,,,,,,,,,
,,,,,,,,,,,,,,p,1,0.47566,space,1.487235,0,112,112,74,1,9_dist_green/trial25.png,,,1,9,greenverival,p,79,20,female,2021-02-21_13h51.52.546,exp11,2020.2.6,MacIntel,60,,,,,,,,,,,
,,,,,,,,,,,,,,a,1,0.51069,space,0.33497,0,113,113,170,1,0_targ_10_dist_green/trial21.png,,,0,10,greenverival,a,79,20,female,2021-02-21_13h51.52.546,exp11,2020.2.6,MacIntel,60,,,,,,,,,,,
,,,,,,,,,,,,,,p,1,0.66565,space,0.540905001,0,114,114,42,1,3_dist_green/trial18.png,,,1,3,greenverival,p,79,20,female,2021-02-21_13h51.52.546,exp11,2020.2.6,MacIntel,60,,,,,,,,,,,
,,,,,,,,,,,,,,a,1,0.45774,space,0.28616,0,115,115,188,1,0_targ_16_dist_green/trial14.png,,,0,16,greenverival,a,79,20,female,2021-02-21_13h51.52.546,exp11,2020.2.6,MacIntel,60,,,,,,,,,,,
,,,,,,,,,,,,,,p,0,0.0439,space,0.101135001,0,116,116,126,1,0_targ_4_dist_green/trial2.png,,,0,4,greenverival,a,79,20,female,2021-02-21_13h51.52.546,exp11,2020.2.6,MacIntel,60,,,,,,,,,,,
,,,,,,,,,,,,,,p,1,0.537245,space,0.601675,0,117,117,45,1,3_dist_green/trial21.png,,,1,3,greenverival,p,79,20,female,2021-02-21_13h51.52.546,exp11,2020.2.6,MacIntel,60,,,,,,,,,,,
,,,,,,,,,,,,,,a,1,0.622669999,space,0.58414,0,118,118,181,1,0_targ_16_dist_green/trial7.png,,,0,16,greenverival,a,79,20,female,2021-02-21_13h51.52.546,exp11,2020.2.6,MacIntel,60,,,,,,,,,,,
,,,,,,,,,,,,,,p,1,0.406325,space,0.41733,0,119,119,13,1,0_dist_green/trial14.png,,,1,0,greenverival,p,79,20,female,2021-02-21_13h51.52.546,exp11,2020.2.6,MacIntel,60,,,,,,,,,,,
,,,,,,,,,,,,,,a,0,0.51014,space,0.550644999,0,120,120,51,1,9_dist_green/trial2.png,,,1,9,greenverival,p,79,20,female,2021-02-21_13h51.52.546,exp11,2020.2.6,MacIntel,60,,,,,,,,,,,
,,,,,,,,,,,,,,a,0,0.65605,space,1.755100001,0,121,121,59,1,9_dist_green/trial10.png,,,1,9,greenverival,p,79,20,female,2021-02-21_13h51.52.546,exp11,2020.2.6,MacIntel,60,,,,,,,,,,,
,,,,,,,,,,,,,,p,1,0.425075,space,0.258555,0,122,122,23,1,0_dist_green/trial24.png,,,1,0,greenverival,p,79,20,female,2021-02-21_13h51.52.546,exp11,2020.2.6,MacIntel,60,,,,,,,,,,,
,,,,,,,,,,,,,,a,1,0.57738,space,0.43488,0,123,123,132,1,0_targ_4_dist_green/trial8.png,,,0,4,greenverival,a,79,20,female,2021-02-21_13h51.52.546,exp11,2020.2.6,MacIntel,60,,,,,,,,,,,
,,,,,,,,,,,,,,a,1,0.57069,space,0.65234,0,124,124,186,1,0_targ_16_dist_green/trial12.png,,,0,16,greenverival,a,79,20,female,2021-02-21_13h51.52.546,exp11,2020.2.6,MacIntel,60,,,,,,,,,,,
,,,,,,,,,,,,,,a,1,0.659825,space,0.208445,0,125,125,127,1,0_targ_4_dist_green/trial3.png,,,0,4,greenverival,a,79,20,female,2021-02-21_13h51.52.546,exp11,2020.2.6,MacIntel,60,,,,,,,,,,,
,,,,,,,,,,,,,,a,1,0.486014999,space,0.149665,0,126,126,142,1,0_targ_4_dist_green/trial18.png,,,0,4,greenverival,a,79,20,female,2021-02-21_13h51.52.546,exp11,2020.2.6,MacIntel,60,,,,,,,,,,,
,,,,,,,,,,,,,,a,1,0.47268,space,0.078840001,0,127,127,153,1,0_targ_10_dist_green/trial4.png,,,0,10,greenverival,a,79,20,female,2021-02-21_13h51.52.546,exp11,2020.2.6,MacIntel,60,,,,,,,,,,,
,,,,,,,,,,,,,,a,1,0.504635,space,0.05226,0,128,128,109,1,0_targ_1_dist_green/trial10.png,,,0,1,greenverival,a,79,20,female,2021-02-21_13h51.52.546,exp11,2020.2.6,MacIntel,60,,,,,,,,,,,
,,,,,,,,,,,,,,p,1,0.64577,space,0.138695,0,129,129,60,1,9_dist_green/trial11.png,,,1,9,greenverival,p,79,20,female,2021-02-21_13h51.52.546,exp11,2020.2.6,MacIntel,60,,,,,,,,,,,
,,,,,,,,,,,,,,p,1,0.43781,space,0.11644,0,130,130,5,1,0_dist_green/trial6.png,,,1,0,greenverival,p,79,20,female,2021-02-21_13h51.52.546,exp11,2020.2.6,MacIntel,60,,,,,,,,,,,
,,,,,,,,,,,,,,p,1,0.55635,space,0.842595,0,131,131,96,1,15_dist_green/trial22.png,,,1,15,greenverival,p,79,20,female,2021-02-21_13h51.52.546,exp11,2020.2.6,MacIntel,60,,,,,,,,,,,
,,,,,,,,,,,,,,a,1,0.554615,space,0.487275,0,132,132,122,1,0_targ_1_dist_green/trial23.png,,,0,1,greenverival,a,79,20,female,2021-02-21_13h51.52.546,exp11,2020.2.6,MacIntel,60,,,,,,,,,,,
,,,,,,,,,,,,,,a,1,0.50831,space,0.223305,0,133,133,136,1,0_targ_4_dist_green/trial12.png,,,0,4,greenverival,a,79,20,female,2021-02-21_13h51.52.546,exp11,2020.2.6,MacIntel,60,,,,,,,,,,,
,,,,,,,,,,,,,,a,1,0.492705001,space,0.220725,0,134,134,110,1,0_targ_1_dist_green/trial11.png,,,0,1,greenverival,a,79,20,female,2021-02-21_13h51.52.546,exp11,2020.2.6,MacIntel,60,,,,,,,,,,,
,,,,,,,,,,,,,,p,1,0.472155,space,0.31717,0,135,135,30,1,3_dist_green/trial6.png,,,1,3,greenverival,p,79,20,female,2021-02-21_13h51.52.546,exp11,2020.2.6,MacIntel,60,,,,,,,,,,,
,,,,,,,,,,,,,,p,1,0.494835,space,0.302859999,0,136,136,62,1,9_dist_green/trial13.png,,,1,9,greenverival,p,79,20,female,2021-02-21_13h51.52.546,exp11,2020.2.6,MacIntel,60,,,,,,,,,,,
,,,,,,,,,,,,,,a,1,0.45739,space,0.183185,0,137,137,135,1,0_targ_4_dist_green/trial11.png,,,0,4,greenverival,a,79,20,female,2021-02-21_13h51.52.546,exp11,2020.2.6,MacIntel,60,,,,,,,,,,,
,,,,,,,,,,,,,,p,0,0.423459999,space,0.685719999,0,138,138,108,1,0_targ_1_dist_green/trial9.png,,,0,1,greenverival,a,79,20,female,2021-02-21_13h51.52.546,exp11,2020.2.6,MacIntel,60,,,,,,,,,,,
,,,,,,,,,,,,,,a,1,0.692890001,space,0.057689999,0,139,139,167,1,0_targ_10_dist_green/trial18.png,,,0,10,greenverival,a,79,20,female,2021-02-21_13h51.52.546,exp11,2020.2.6,MacIntel,60,,,,,,,,,,,
,,,,,,,,,,,,,,a,1,0.49245,space,0.0786,0,140,140,137,1,0_targ_4_dist_green/trial13.png,,,0,4,greenverival,a,79,20,female,2021-02-21_13h51.52.546,exp11,2020.2.6,MacIntel,60,,,,,,,,,,,
,,,,,,,,,,,,,,a,1,0.623605,space,0.06965,0,141,141,193,1,0_targ_16_dist_green/trial19.png,,,0,16,greenverival,a,79,20,female,2021-02-21_13h51.52.546,exp11,2020.2.6,MacIntel,60,,,,,,,,,,,
,,,,,,,,,,,,,,p,1,0.82332,space,0.20828,0,142,142,34,1,3_dist_green/trial10.png,,,1,3,greenverival,p,79,20,female,2021-02-21_13h51.52.546,exp11,2020.2.6,MacIntel,60,,,,,,,,,,,
,,,,,,,,,,,,,,a,1,0.80499,space,0.08746,0,143,143,182,1,0_targ_16_dist_green/trial8.png,,,0,16,greenverival,a,79,20,female,2021-02-21_13h51.52.546,exp11,2020.2.6,MacIntel,60,,,,,,,,,,,
,,,,,,,,,,,,,,a,1,0.628749999,space,0.325835001,0,144,144,112,1,0_targ_1_dist_green/trial13.png,,,0,1,greenverival,a,79,20,female,2021-02-21_13h51.52.546,exp11,2020.2.6,MacIntel,60,,,,,,,,,,,
,,,,,,,,,,,,,,a,0,0.33693,space,0.168915001,0,145,145,57,1,9_dist_green/trial8.png,,,1,9,greenverival,p,79,20,female,2021-02-21_13h51.52.546,exp11,2020.2.6,MacIntel,60,,,,,,,,,,,
,,,,,,,,,,,,,,a,1,0.542545,space,0.275865,0,146,146,149,1,0_targ_4_dist_green/trial25.png,,,0,4,greenverival,a,79,20,female,2021-02-21_13h51.52.546,exp11,2020.2.6,MacIntel,60,,,,,,,,,,,
,,,,,,,,,,,,,,a,0,0.558794999,space,1.635989999,0,147,147,78,1,15_dist_green/trial4.png,,,1,15,greenverival,p,79,20,female,2021-02-21_13h51.52.546,exp11,2020.2.6,MacIntel,60,,,,,,,,,,,
,,,,,,,,,,,,,,a,1,0.62431,space,0.148095001,0,148,148,168,1,0_targ_10_dist_green/trial19.png,,,0,10,greenverival,a,79,20,female,2021-02-21_13h51.52.546,exp11,2020.2.6,MacIntel,60,,,,,,,,,,,
,,,,,,,,,,,,,,a,1,0.744325,space,0.221430001,0,149,149,177,1,0_targ_16_dist_green/trial3.png,,,0,16,greenverival,a,79,20,female,2021-02-21_13h51.52.546,exp11,2020.2.6,MacIntel,60,,,,,,,,,,,
,,,,,,,,,,,,,,p,1,0.4448,space,0.753245,0,150,150,64,1,9_dist_green/trial15.png,,,1,9,greenverival,p,79,20,female,2021-02-21_13h51.52.546,exp11,2020.2.6,MacIntel,60,,,,,,,,,,,
,,,,,,,,,,,,,,a,0,0.65897,space,0.42581,0,151,151,8,1,0_dist_green/trial9.png,,,1,0,greenverival,p,79,20,female,2021-02-21_13h51.52.546,exp11,2020.2.6,MacIntel,60,,,,,,,,,,,
,,,,,,,,,,,,,,a,1,0.492,space,0.109230001,0,152,152,123,1,0_targ_1_dist_green/trial24.png,,,0,1,greenverival,a,79,20,female,2021-02-21_13h51.52.546,exp11,2020.2.6,MacIntel,60,,,,,,,,,,,
,,,,,,,,,,,,,,p,1,0.51093,space,0.287415,0,153,153,79,1,15_dist_green/trial5.png,,,1,15,greenverival,p,79,20,female,2021-02-21_13h51.52.546,exp11,2020.2.6,MacIntel,60,,,,,,,,,,,
,,,,,,,,,,,,,,a,1,0.604085,space,0.083350001,0,154,154,164,1,0_targ_10_dist_green/trial15.png,,,0,10,greenverival,a,79,20,female,2021-02-21_13h51.52.546,exp11,2020.2.6,MacIntel,60,,,,,,,,,,,
,,,,,,,,,,,,,,p,1,0.471249999,space,0.304785,0,155,155,47,1,3_dist_green/trial23.png,,,1,3,greenverival,p,79,20,female,2021-02-21_13h51.52.546,exp11,2020.2.6,MacIntel,60,,,,,,,,,,,
,,,,,,,,,,,,,,p,1,0.55572,space,0.21141,0,156,156,50,1,9_dist_green/trial1.png,,,1,9,greenverival,p,79,20,female,2021-02-21_13h51.52.546,exp11,2020.2.6,MacIntel,60,,,,,,,,,,,
,,,,,,,,,,,,,,p,1,0.38567,space,0.187335,0,157,157,37,1,3_dist_green/trial13.png,,,1,3,greenverival,p,79,20,female,2021-02-21_13h51.52.546,exp11,2020.2.6,MacIntel,60,,,,,,,,,,,
,,,,,,,,,,,,,,p,1,0.35767,space,0.16684,0,158,158,68,1,9_dist_green/trial19.png,,,1,9,greenverival,p,79,20,female,2021-02-21_13h51.52.546,exp11,2020.2.6,MacIntel,60,,,,,,,,,,,
,,,,,,,,,,,,,,p,0,0.385905,space,2.057384999,0,159,159,102,1,0_targ_1_dist_green/trial3.png,,,0,1,greenverival,a,79,20,female,2021-02-21_13h51.52.546,exp11,2020.2.6,MacIntel,60,,,,,,,,,,,
,,,,,,,,,,,,,,p,1,0.569145,space,0.267,0,160,160,38,1,3_dist_green/trial14.png,,,1,3,greenverival,p,79,20,female,2021-02-21_13h51.52.546,exp11,2020.2.6,MacIntel,60,,,,,,,,,,,
,,,,,,,,,,,,,,a,1,0.521955,space,0.229685,0,161,161,140,1,0_targ_4_dist_green/trial6.png,,,0,4,greenverival,a,79,20,female,2021-02-21_13h51.52.546,exp11,2020.2.6,MacIntel,60,,,,,,,,,,,
,,,,,,,,,,,,,,a,1,0.588965001,space,0.200825,0,162,162,187,1,0_targ_16_dist_green/trial13.png,,,0,16,greenverival,a,79,20,female,2021-02-21_13h51.52.546,exp11,2020.2.6,MacIntel,60,,,,,,,,,,,
,,,,,,,,,,,,,,p,1,0.40974,space,0.207239999,0,163,163,11,1,0_dist_green/trial12.png,,,1,0,greenverival,p,79,20,female,2021-02-21_13h51.52.546,exp11,2020.2.6,MacIntel,60,,,,,,,,,,,
,,,,,,,,,,,,,,p,1,0.484135,space,0.74696,0,164,164,93,1,15_dist_green/trial19.png,,,1,15,greenverival,p,79,20,female,2021-02-21_13h51.52.546,exp11,2020.2.6,MacIntel,60,,,,,,,,,,,
,,,,,,,,,,,,,,p,1,0.437555,space,0.34629,0,165,165,67,1,9_dist_green/trial18.png,,,1,9,greenverival,p,79,20,female,2021-02-21_13h51.52.546,exp11,2020.2.6,MacIntel,60,,,,,,,,,,,
,,,,,,,,,,,,,,a,0,0.850740001,space,0.118205,0,166,166,90,1,15_dist_green/trial16.png,,,1,15,greenverival,p,79,20,female,2021-02-21_13h51.52.546,exp11,2020.2.6,MacIntel,60,,,,,,,,,,,
,,,,,,,,,,,,,,a,1,0.599065,space,0.279399999,0,167,167,178,1,0_targ_16_dist_green/trial4.png,,,0,16,greenverival,a,79,20,female,2021-02-21_13h51.52.546,exp11,2020.2.6,MacIntel,60,,,,,,,,,,,
,,,,,,,,,,,,,,a,1,0.554459999,space,0.155935001,0,168,168,144,1,0_targ_4_dist_green/trial20.png,,,0,4,greenverival,a,79,20,female,2021-02-21_13h51.52.546,exp11,2020.2.6,MacIntel,60,,,,,,,,,,,
,,,,,,,,,,,,,,a,0,0.610025,space,0.209235,0,169,169,3,1,0_dist_green/trial4.png,,,1,0,greenverival,p,79,20,female,2021-02-21_13h51.52.546,exp11,2020.2.6,MacIntel,60,,,,,,,,,,,
,,,,,,,,,,,,,,p,1,0.47303,space,0.168570001,0,170,170,39,1,3_dist_green/trial15.png,,,1,3,greenverival,p,79,20,female,2021-02-21_13h51.52.546,exp11,2020.2.6,MacIntel,60,,,,,,,,,,,
,,,,,,,,,,,,,,a,1,0.92765,space,0.358885,0,171,171,162,1,0_targ_10_dist_green/trial13.png,,,0,10,greenverival,a,79,20,female,2021-02-21_13h51.52.546,exp11,2020.2.6,MacIntel,60,,,,,,,,,,,
,,,,,,,,,,,,,,p,1,0.481575,space,0.24731,0,172,172,52,1,9_dist_green/trial3.png,,,1,9,greenverival,p,79,20,female,2021-02-21_13h51.52.546,exp11,2020.2.6,MacIntel,60,,,,,,,,,,,
,,,,,,,,,,,,,,p,1,0.69048,space,0.378145,0,173,173,32,1,3_dist_green/trial8.png,,,1,3,greenverival,p,79,20,female,2021-02-21_13h51.52.546,exp11,2020.2.6,MacIntel,60,,,,,,,,,,,
,,,,,,,,,,,,,,a,1,0.636849999,space,0.369384999,0,174,174,160,1,0_targ_10_dist_green/trial11.png,,,0,10,greenverival,a,79,20,female,2021-02-21_13h51.52.546,exp11,2020.2.6,MacIntel,60,,,,,,,,,,,
,,,,,,,,,,,,,,a,1,0.62381,space,0.16869,0,175,175,157,1,0_targ_10_dist_green/trial8.png,,,0,10,greenverival,a,79,20,female,2021-02-21_13h51.52.546,exp11,2020.2.6,MacIntel,60,,,,,,,,,,,
,,,,,,,,,,,,,,p,1,0.494440001,space,0.518815,0,176,176,40,1,3_dist_green/trial16.png,,,1,3,greenverival,p,79,20,female,2021-02-21_13h51.52.546,exp11,2020.2.6,MacIntel,60,,,,,,,,,,,
,,,,,,,,,,,,,,a,1,0.70734,space,0.248695,0,177,177,125,1,0_targ_4_dist_green/trial1.png,,,0,4,greenverival,a,79,20,female,2021-02-21_13h51.52.546,exp11,2020.2.6,MacIntel,60,,,,,,,,,,,
,,,,,,,,,,,,,,a,1,0.63513,space,0.314205,0,178,178,184,1,0_targ_16_dist_green/trial10.png,,,0,16,greenverival,a,79,20,female,2021-02-21_13h51.52.546,exp11,2020.2.6,MacIntel,60,,,,,,,,,,,
,,,,,,,,,,,,,,p,1,0.48472,space,0.04734,0,179,179,28,1,3_dist_green/trial4.png,,,1,3,greenverival,p,79,20,female,2021-02-21_13h51.52.546,exp11,2020.2.6,MacIntel,60,,,,,,,,,,,
,,,,,,,,,,,,,,a,1,0.696165,space,0.340070001,0,180,180,138,1,0_targ_4_dist_green/trial14.png,,,0,4,greenverival,a,79,20,female,2021-02-21_13h51.52.546,exp11,2020.2.6,MacIntel,60,,,,,,,,,,,
,,,,,,,,,,,,,,a,1,0.388569999,space,0.30368,0,181,181,129,1,0_targ_4_dist_green/trial5.png,,,0,4,greenverival,a,79,20,female,2021-02-21_13h51.52.546,exp11,2020.2.6,MacIntel,60,,,,,,,,,,,
,,,,,,,,,,,,,,p,1,0.487395,space,0.32036,0,182,182,83,1,15_dist_green/trial9.png,,,1,15,greenverival,p,79,20,female,2021-02-21_13h51.52.546,exp11,2020.2.6,MacIntel,60,,,,,,,,,,,
,,,,,,,,,,,,,,p,1,0.54055,space,0.167695,0,183,183,87,1,15_dist_green/trial13.png,,,1,15,greenverival,p,79,20,female,2021-02-21_13h51.52.546,exp11,2020.2.6,MacIntel,60,,,,,,,,,,,
,,,,,,,,,,,,,,p,1,0.92214,space,0.23581,0,184,184,92,1,15_dist_green/trial18.png,,,1,15,greenverival,p,79,20,female,2021-02-21_13h51.52.546,exp11,2020.2.6,MacIntel,60,,,,,,,,,,,
,,,,,,,,,,,,,,p,1,0.677604999,space,0.272925,0,185,185,66,1,9_dist_green/trial17.png,,,1,9,greenverival,p,79,20,female,2021-02-21_13h51.52.546,exp11,2020.2.6,MacIntel,60,,,,,,,,,,,
,,,,,,,,,,,,,,a,1,0.534440001,space,0.371040001,0,186,186,174,1,0_targ_10_dist_green/trial25.png,,,0,10,greenverival,a,79,20,female,2021-02-21_13h51.52.546,exp11,2020.2.6,MacIntel,60,,,,,,,,,,,
,,,,,,,,,,,,,,p,1,0.442410001,space,0.31903,0,187,187,71,1,9_dist_green/trial22.png,,,1,9,greenverival,p,79,20,female,2021-02-21_13h51.52.546,exp11,2020.2.6,MacIntel,60,,,,,,,,,,,
,,,,,,,,,,,,,,p,1,0.49291,space,0.307105,0,188,188,69,1,9_dist_green/trial20.png,,,1,9,greenverival,p,79,20,female,2021-02-21_13h51.52.546,exp11,2020.2.6,MacIntel,60,,,,,,,,,,,
,,,,,,,,,,,,,,a,1,0.640985,space,0.23367,0,189,189,103,1,0_targ_1_dist_green/trial4.png,,,0,1,greenverival,a,79,20,female,2021-02-21_13h51.52.546,exp11,2020.2.6,MacIntel,60,,,,,,,,,,,
,,,,,,,,,,,,,,p,1,0.453235,space,0.320970001,0,190,190,58,1,9_dist_green/trial9.png,,,1,9,greenverival,p,79,20,female,2021-02-21_13h51.52.546,exp11,2020.2.6,MacIntel,60,,,,,,,,,,,
,,,,,,,,,,,,,,p,1,0.42894,space,0.603935,0,191,191,43,1,3_dist_green/trial19.png,,,1,3,greenverival,p,79,20,female,2021-02-21_13h51.52.546,exp11,2020.2.6,MacIntel,60,,,,,,,,,,,
,,,,,,,,,,,,,,p,1,0.457795,space,0.209825,0,192,192,41,1,3_dist_green/trial17.png,,,1,3,greenverival,p,79,20,female,2021-02-21_13h51.52.546,exp11,2020.2.6,MacIntel,60,,,,,,,,,,,
,,,,,,,,,,,,,,p,1,0.493129999,space,0.13785,0,193,193,33,1,3_dist_green/trial9.png,,,1,3,greenverival,p,79,20,female,2021-02-21_13h51.52.546,exp11,2020.2.6,MacIntel,60,,,,,,,,,,,
,,,,,,,,,,,,,,a,1,0.556995,space,0.163885,0,194,194,143,1,0_targ_4_dist_green/trial19.png,,,0,4,greenverival,a,79,20,female,2021-02-21_13h51.52.546,exp11,2020.2.6,MacIntel,60,,,,,,,,,,,
,,,,,,,,,,,,,,a,1,0.802750001,space,0.299585,0,195,195,198,1,0_targ_16_dist_green/trial24.png,,,0,16,greenverival,a,79,20,female,2021-02-21_13h51.52.546,exp11,2020.2.6,MacIntel,60,,,,,,,,,,,
,,,,,,,,,,,,,,a,1,0.500615,space,0.11694,0,196,196,151,1,0_targ_10_dist_green/trial2.png,,,0,10,greenverival,a,79,20,female,2021-02-21_13h51.52.546,exp11,2020.2.6,MacIntel,60,,,,,,,,,,,
,,,,,,,,,,,,,,p,1,0.778489999,space,0.464275001,0,197,197,65,1,9_dist_green/trial16.png,,,1,9,greenverival,p,79,20,female,2021-02-21_13h51.52.546,exp11,2020.2.6,MacIntel,60,,,,,,,,,,,
,,,,,,,,,,,,,,p,1,0.000585,space,1.074335,0,198,198,44,1,3_dist_green/trial20.png,,,1,3,greenverival,p,79,20,female,2021-02-21_13h51.52.546,exp11,2020.2.6,MacIntel,60,,,,,,,,,,,
,,,,,,,,,,,,,,p,1,0.591615,space,0.35795,0,199,199,2,1,0_dist_green/trial3.png,,,1,0,greenverival,p,79,20,female,2021-02-21_13h51.52.546,exp11,2020.2.6,MacIntel,60,,,,,,,,,,,
,,,,,,,,,,,,,,,,,,,,,,,,,,,,,,,79,20,female,2021-02-21_13h51.52.546,exp11,2020.2.6,MacIntel,60,0,1,1,0,1,conGreen.xlsx,green vertical,Look for green vertical bar (target) and indicate if it is present or absent in the array. If green vertical target is present press 'p' and if absent press 'a'. Press SPACE to start.,,,
