key_resp_6.keys,key_resp_6.rt,key_resp_7.keys,key_resp_7.rt,key_resp_8.keys,key_resp_8.rt,key_resp_10.keys,key_resp_10.rt,key_resp_9.keys,key_resp_9.rt,key_resp_3.keys,key_resp_3.rt,key_resp_5.keys,key_resp_5.rt,key_resp.keys,key_resp.corr,key_resp.rt,key_resp_4.keys,key_resp_4.rt,trials.thisRepN,trials.thisTrialN,trials.thisN,trials.thisIndex,trials.ran,ImageFile,tarPos,tarSize,targPres,numDist,targetName,correctAns,participant,age,sex,date,expName,psychopyVersion,OS,frameRate,trials_2.thisRepN,trials_2.thisTrialN,trials_2.thisN,trials_2.thisIndex,trials_2.ran,condsFile,targName,instructionText,colTarget,sizeTarg,posit
space,4.02118,space,19.455305,space,8.612955,space,24.82953,space,12.404495,space,50.81478,space,18.748165,p,0,0.84831,space,19.50422,0,0,0,139,1,0_targ_4_dist_red/trial15.png,,,0,4,redHorizontal,a,81,37,Female ,2021-03-02_13h01.47.910,exp11,2020.2.6,Win32,60,,,,,,,,,,,
,,,,,,,,,,,,,,p,1,0.84531,space,6.94954,0,1,1,41,1,3_dist_red/trial17.png,,,1,3,redHorizontal,p,81,37,Female ,2021-03-02_13h01.47.910,exp11,2020.2.6,Win32,60,,,,,,,,,,,
,,,,,,,,,,,,,,p,0,0.700685,space,1.41539,0,2,2,113,1,0_targ_1_dist_red/trial14.png,,,0,1,redHorizontal,a,81,37,Female ,2021-03-02_13h01.47.910,exp11,2020.2.6,Win32,60,,,,,,,,,,,
,,,,,,,,,,,,,,p,0,1.168865,space,1.810045,0,3,3,141,1,0_targ_4_dist_red/trial17.png,,,0,4,redHorizontal,a,81,37,Female ,2021-03-02_13h01.47.910,exp11,2020.2.6,Win32,60,,,,,,,,,,,
,,,,,,,,,,,,,,p,1,0.97538,space,12.47487,0,4,4,44,1,3_dist_red/trial20.png,,,1,3,redHorizontal,p,81,37,Female ,2021-03-02_13h01.47.910,exp11,2020.2.6,Win32,60,,,,,,,,,,,
,,,,,,,,,,,,,,p,1,0.856405,space,4.495865,0,5,5,23,1,0_dist_red/trial24.png,,,1,0,redHorizontal,p,81,37,Female ,2021-03-02_13h01.47.910,exp11,2020.2.6,Win32,60,,,,,,,,,,,
,,,,,,,,,,,,,,p,1,1.327415,space,6.475285,0,6,6,8,1,0_dist_red/trial9.png,,,1,0,redHorizontal,p,81,37,Female ,2021-03-02_13h01.47.910,exp11,2020.2.6,Win32,60,,,,,,,,,,,
,,,,,,,,,,,,,,a,1,1.025565,space,1.83703,0,7,7,107,1,0_targ_1_dist_red/trial8.png,,,0,1,redHorizontal,a,81,37,Female ,2021-03-02_13h01.47.910,exp11,2020.2.6,Win32,60,,,,,,,,,,,
,,,,,,,,,,,,,,a,1,2.091505,space,14.75259,0,8,8,169,1,0_targ_10_dist_red/trial20.png,,,0,10,redHorizontal,a,81,37,Female ,2021-03-02_13h01.47.910,exp11,2020.2.6,Win32,60,,,,,,,,,,,
,,,,,,,,,,,,,,a,1,2.35985,space,19.468925,0,9,9,155,1,0_targ_10_dist_red/trial6.png,,,0,10,redHorizontal,a,81,37,Female ,2021-03-02_13h01.47.910,exp11,2020.2.6,Win32,60,,,,,,,,,,,
,,,,,,,,,,,,,,p,1,1.797155,space,3.2124,0,10,10,83,1,15_dist_red/trial9.png,,,1,15,redHorizontal,p,81,37,Female ,2021-03-02_13h01.47.910,exp11,2020.2.6,Win32,60,,,,,,,,,,,
,,,,,,,,,,,,,,a,1,1.067975,space,10.986885,0,11,11,168,1,0_targ_10_dist_red/trial19.png,,,0,10,redHorizontal,a,81,37,Female ,2021-03-02_13h01.47.910,exp11,2020.2.6,Win32,60,,,,,,,,,,,
,,,,,,,,,,,,,,a,1,1.271695,space,12.667675,0,12,12,128,1,0_targ_4_dist_red/trial4.png,,,0,4,redHorizontal,a,81,37,Female ,2021-03-02_13h01.47.910,exp11,2020.2.6,Win32,60,,,,,,,,,,,
,,,,,,,,,,,,,,p,1,2.269815,space,9.161365,0,13,13,54,1,9_dist_red/trial5.png,,,1,9,redHorizontal,p,81,37,Female ,2021-03-02_13h01.47.910,exp11,2020.2.6,Win32,60,,,,,,,,,,,
,,,,,,,,,,,,,,p,1,0.53529,space,7.84803,0,14,14,7,1,0_dist_red/trial8.png,,,1,0,redHorizontal,p,81,37,Female ,2021-03-02_13h01.47.910,exp11,2020.2.6,Win32,60,,,,,,,,,,,
,,,,,,,,,,,,,,p,1,0.766505,space,7.63727,0,15,15,60,1,9_dist_red/trial11.png,,,1,9,redHorizontal,p,81,37,Female ,2021-03-02_13h01.47.910,exp11,2020.2.6,Win32,60,,,,,,,,,,,
,,,,,,,,,,,,,,p,1,0.709975,space,5.514655,0,16,16,36,1,3_dist_red/trial12.png,,,1,3,redHorizontal,p,81,37,Female ,2021-03-02_13h01.47.910,exp11,2020.2.6,Win32,60,,,,,,,,,,,
,,,,,,,,,,,,,,a,1,0.75903,space,11.853875,0,17,17,119,1,0_targ_1_dist_red/trial20.png,,,0,1,redHorizontal,a,81,37,Female ,2021-03-02_13h01.47.910,exp11,2020.2.6,Win32,60,,,,,,,,,,,
,,,,,,,,,,,,,,p,1,1.22483,space,8.610095,0,18,18,46,1,3_dist_red/trial22.png,,,1,3,redHorizontal,p,81,37,Female ,2021-03-02_13h01.47.910,exp11,2020.2.6,Win32,60,,,,,,,,,,,
,,,,,,,,,,,,,,a,1,0.83854,space,4.028345,0,19,19,122,1,0_targ_1_dist_red/trial23.png,,,0,1,redHorizontal,a,81,37,Female ,2021-03-02_13h01.47.910,exp11,2020.2.6,Win32,60,,,,,,,,,,,
,,,,,,,,,,,,,,a,1,1.56358,space,4.05279,0,20,20,165,1,0_targ_10_dist_red/trial16.png,,,0,10,redHorizontal,a,81,37,Female ,2021-03-02_13h01.47.910,exp11,2020.2.6,Win32,60,,,,,,,,,,,
,,,,,,,,,,,,,,p,1,0.83072,space,11.76545,0,21,21,69,1,9_dist_red/trial20.png,,,1,9,redHorizontal,p,81,37,Female ,2021-03-02_13h01.47.910,exp11,2020.2.6,Win32,60,,,,,,,,,,,
,,,,,,,,,,,,,,a,1,1.196985,space,3.973155,0,22,22,142,1,0_targ_4_dist_red/trial18.png,,,0,4,redHorizontal,a,81,37,Female ,2021-03-02_13h01.47.910,exp11,2020.2.6,Win32,60,,,,,,,,,,,
,,,,,,,,,,,,,,a,1,2.925595,space,6.3249,0,23,23,196,1,0_targ_16_dist_red/trial22.png,,,0,16,redHorizontal,a,81,37,Female ,2021-03-02_13h01.47.910,exp11,2020.2.6,Win32,60,,,,,,,,,,,
,,,,,,,,,,,,,,p,1,0.69082,space,8.353985,0,24,24,24,1,0_dist_red/trial25.png,,,1,0,redHorizontal,p,81,37,Female ,2021-03-02_13h01.47.910,exp11,2020.2.6,Win32,60,,,,,,,,,,,
,,,,,,,,,,,,,,a,0,1.521115,space,1.686775,0,25,25,81,1,15_dist_red/trial7.png,,,1,15,redHorizontal,p,81,37,Female ,2021-03-02_13h01.47.910,exp11,2020.2.6,Win32,60,,,,,,,,,,,
,,,,,,,,,,,,,,a,1,0.99539,space,4.9122,0,26,26,116,1,0_targ_1_dist_red/trial17.png,,,0,1,redHorizontal,a,81,37,Female ,2021-03-02_13h01.47.910,exp11,2020.2.6,Win32,60,,,,,,,,,,,
,,,,,,,,,,,,,,a,1,1.88424,space,6.551915,0,27,27,146,1,0_targ_4_dist_red/trial22.png,,,0,4,redHorizontal,a,81,37,Female ,2021-03-02_13h01.47.910,exp11,2020.2.6,Win32,60,,,,,,,,,,,
,,,,,,,,,,,,,,a,1,2.490455,space,4.144925,0,28,28,174,1,0_targ_10_dist_red/trial25.png,,,0,10,redHorizontal,a,81,37,Female ,2021-03-02_13h01.47.910,exp11,2020.2.6,Win32,60,,,,,,,,,,,
,,,,,,,,,,,,,,p,1,0.933505,space,1.81896,0,29,29,99,1,15_dist_red/trial25.png,,,1,15,redHorizontal,p,81,37,Female ,2021-03-02_13h01.47.910,exp11,2020.2.6,Win32,60,,,,,,,,,,,
,,,,,,,,,,,,,,a,1,1.484765,space,1.31768,0,30,30,140,1,0_targ_4_dist_red/trial6.png,,,0,4,redHorizontal,a,81,37,Female ,2021-03-02_13h01.47.910,exp11,2020.2.6,Win32,60,,,,,,,,,,,
,,,,,,,,,,,,,,p,1,1.125635,space,3.666365,0,31,31,51,1,9_dist_red/trial2.png,,,1,9,redHorizontal,p,81,37,Female ,2021-03-02_13h01.47.910,exp11,2020.2.6,Win32,60,,,,,,,,,,,
,,,,,,,,,,,,,,a,1,2.06726,space,1.650645,0,32,32,172,1,0_targ_10_dist_red/trial23.png,,,0,10,redHorizontal,a,81,37,Female ,2021-03-02_13h01.47.910,exp11,2020.2.6,Win32,60,,,,,,,,,,,
,,,,,,,,,,,,,,p,1,0.73014,space,5.60153,0,33,33,68,1,9_dist_red/trial19.png,,,1,9,redHorizontal,p,81,37,Female ,2021-03-02_13h01.47.910,exp11,2020.2.6,Win32,60,,,,,,,,,,,
,,,,,,,,,,,,,,a,1,1.879285,space,5.49044,0,34,34,132,1,0_targ_4_dist_red/trial8.png,,,0,4,redHorizontal,a,81,37,Female ,2021-03-02_13h01.47.910,exp11,2020.2.6,Win32,60,,,,,,,,,,,
,,,,,,,,,,,,,,a,1,2.97151,space,1.51714,0,35,35,188,1,0_targ_16_dist_red/trial14.png,,,0,16,redHorizontal,a,81,37,Female ,2021-03-02_13h01.47.910,exp11,2020.2.6,Win32,60,,,,,,,,,,,
,,,,,,,,,,,,,,p,1,0.71293,space,0.842645,0,36,36,88,1,15_dist_red/trial14.png,,,1,15,redHorizontal,p,81,37,Female ,2021-03-02_13h01.47.910,exp11,2020.2.6,Win32,60,,,,,,,,,,,
,,,,,,,,,,,,,,a,1,1.092295,space,11.47453,0,37,37,129,1,0_targ_4_dist_red/trial5.png,,,0,4,redHorizontal,a,81,37,Female ,2021-03-02_13h01.47.910,exp11,2020.2.6,Win32,60,,,,,,,,,,,
,,,,,,,,,,,,,,p,1,1.114745,space,3.986285,0,38,38,28,1,3_dist_red/trial4.png,,,1,3,redHorizontal,p,81,37,Female ,2021-03-02_13h01.47.910,exp11,2020.2.6,Win32,60,,,,,,,,,,,
,,,,,,,,,,,,,,a,1,1.49481,space,1.290095,0,39,39,134,1,0_targ_4_dist_red/trial10.png,,,0,4,redHorizontal,a,81,37,Female ,2021-03-02_13h01.47.910,exp11,2020.2.6,Win32,60,,,,,,,,,,,
,,,,,,,,,,,,,,p,1,0.60651,space,1.253825,0,40,40,67,1,9_dist_red/trial18.png,,,1,9,redHorizontal,p,81,37,Female ,2021-03-02_13h01.47.910,exp11,2020.2.6,Win32,60,,,,,,,,,,,
,,,,,,,,,,,,,,p,1,1.631305,space,21.18885,0,41,41,95,1,15_dist_red/trial21.png,,,1,15,redHorizontal,p,81,37,Female ,2021-03-02_13h01.47.910,exp11,2020.2.6,Win32,60,,,,,,,,,,,
,,,,,,,,,,,,,,p,1,0.788755,space,0.84944,0,42,42,43,1,3_dist_red/trial19.png,,,1,3,redHorizontal,p,81,37,Female ,2021-03-02_13h01.47.910,exp11,2020.2.6,Win32,60,,,,,,,,,,,
,,,,,,,,,,,,,,p,1,0.541285,space,0.923335,0,43,43,16,1,0_dist_red/trial17.png,,,1,0,redHorizontal,p,81,37,Female ,2021-03-02_13h01.47.910,exp11,2020.2.6,Win32,60,,,,,,,,,,,
,,,,,,,,,,,,,,p,1,0.535335,space,8.753565,0,44,44,37,1,3_dist_red/trial13.png,,,1,3,redHorizontal,p,81,37,Female ,2021-03-02_13h01.47.910,exp11,2020.2.6,Win32,60,,,,,,,,,,,
,,,,,,,,,,,,,,a,1,0.82547,space,1.86394,0,45,45,126,1,0_targ_4_dist_red/trial2.png,,,0,4,redHorizontal,a,81,37,Female ,2021-03-02_13h01.47.910,exp11,2020.2.6,Win32,60,,,,,,,,,,,
,,,,,,,,,,,,,,a,1,1.140975,space,0.983145,0,46,46,167,1,0_targ_10_dist_red/trial18.png,,,0,10,redHorizontal,a,81,37,Female ,2021-03-02_13h01.47.910,exp11,2020.2.6,Win32,60,,,,,,,,,,,
,,,,,,,,,,,,,,p,1,0.7371,space,2.93251,0,47,47,3,1,0_dist_red/trial4.png,,,1,0,redHorizontal,p,81,37,Female ,2021-03-02_13h01.47.910,exp11,2020.2.6,Win32,60,,,,,,,,,,,
,,,,,,,,,,,,,,p,1,0.91341,space,1.13499,0,48,48,96,1,15_dist_red/trial22.png,,,1,15,redHorizontal,p,81,37,Female ,2021-03-02_13h01.47.910,exp11,2020.2.6,Win32,60,,,,,,,,,,,
,,,,,,,,,,,,,,p,1,0.558075,space,1.50112,0,49,49,12,1,0_dist_red/trial13.png,,,1,0,redHorizontal,p,81,37,Female ,2021-03-02_13h01.47.910,exp11,2020.2.6,Win32,60,,,,,,,,,,,
,,,,,,,,,,,,,,a,1,0.67303,space,2.715845,0,50,50,117,1,0_targ_1_dist_red/trial18.png,,,0,1,redHorizontal,a,81,37,Female ,2021-03-02_13h01.47.910,exp11,2020.2.6,Win32,60,,,,,,,,,,,
,,,,,,,,,,,,,,p,1,1.825255,space,2.34926,0,51,51,59,1,9_dist_red/trial10.png,,,1,9,redHorizontal,p,81,37,Female ,2021-03-02_13h01.47.910,exp11,2020.2.6,Win32,60,,,,,,,,,,,
,,,,,,,,,,,,,,p,1,1.420545,space,0.91675,0,52,52,52,1,9_dist_red/trial3.png,,,1,9,redHorizontal,p,81,37,Female ,2021-03-02_13h01.47.910,exp11,2020.2.6,Win32,60,,,,,,,,,,,
,,,,,,,,,,,,,,a,1,1.46344,space,1.348335,0,53,53,100,1,0_targ_1_dist_red/trial1.png,,,0,1,redHorizontal,a,81,37,Female ,2021-03-02_13h01.47.910,exp11,2020.2.6,Win32,60,,,,,,,,,,,
,,,,,,,,,,,,,,a,1,1.684845,space,0.865805,0,54,54,159,1,0_targ_10_dist_red/trial10.png,,,0,10,redHorizontal,a,81,37,Female ,2021-03-02_13h01.47.910,exp11,2020.2.6,Win32,60,,,,,,,,,,,
,,,,,,,,,,,,,,p,1,0.6892,space,5.493555,0,55,55,2,1,0_dist_red/trial3.png,,,1,0,redHorizontal,p,81,37,Female ,2021-03-02_13h01.47.910,exp11,2020.2.6,Win32,60,,,,,,,,,,,
,,,,,,,,,,,,,,p,1,1.106265,space,0.888945,0,56,56,50,1,9_dist_red/trial1.png,,,1,9,redHorizontal,p,81,37,Female ,2021-03-02_13h01.47.910,exp11,2020.2.6,Win32,60,,,,,,,,,,,
,,,,,,,,,,,,,,p,1,1.33832,space,0.828505,0,57,57,92,1,15_dist_red/trial18.png,,,1,15,redHorizontal,p,81,37,Female ,2021-03-02_13h01.47.910,exp11,2020.2.6,Win32,60,,,,,,,,,,,
,,,,,,,,,,,,,,p,1,0.487435,space,0.743865,0,58,58,15,1,0_dist_red/trial16.png,,,1,0,redHorizontal,p,81,37,Female ,2021-03-02_13h01.47.910,exp11,2020.2.6,Win32,60,,,,,,,,,,,
,,,,,,,,,,,,,,p,1,0.503935,space,0.50754,0,59,59,14,1,0_dist_red/trial15.png,,,1,0,redHorizontal,p,81,37,Female ,2021-03-02_13h01.47.910,exp11,2020.2.6,Win32,60,,,,,,,,,,,
,,,,,,,,,,,,,,p,1,0.53073,space,0.653645,0,60,60,48,1,3_dist_red/trial24.png,,,1,3,redHorizontal,p,81,37,Female ,2021-03-02_13h01.47.910,exp11,2020.2.6,Win32,60,,,,,,,,,,,
,,,,,,,,,,,,,,p,1,0.646915,space,0.58902,0,61,61,30,1,3_dist_red/trial6.png,,,1,3,redHorizontal,p,81,37,Female ,2021-03-02_13h01.47.910,exp11,2020.2.6,Win32,60,,,,,,,,,,,
,,,,,,,,,,,,,,p,1,0.57979,space,0.58718,0,62,62,40,1,3_dist_red/trial16.png,,,1,3,redHorizontal,p,81,37,Female ,2021-03-02_13h01.47.910,exp11,2020.2.6,Win32,60,,,,,,,,,,,
,,,,,,,,,,,,,,p,1,0.569275,space,0.550385,0,63,63,31,1,3_dist_red/trial7.png,,,1,3,redHorizontal,p,81,37,Female ,2021-03-02_13h01.47.910,exp11,2020.2.6,Win32,60,,,,,,,,,,,
,,,,,,,,,,,,,,a,1,1.2628,space,0.96219,0,64,64,187,1,0_targ_16_dist_red/trial13.png,,,0,16,redHorizontal,a,81,37,Female ,2021-03-02_13h01.47.910,exp11,2020.2.6,Win32,60,,,,,,,,,,,
,,,,,,,,,,,,,,p,1,0.62813,space,0.544785,0,65,65,45,1,3_dist_red/trial21.png,,,1,3,redHorizontal,p,81,37,Female ,2021-03-02_13h01.47.910,exp11,2020.2.6,Win32,60,,,,,,,,,,,
,,,,,,,,,,,,,,a,1,1.49732,space,0.553,0,66,66,178,1,0_targ_16_dist_red/trial4.png,,,0,16,redHorizontal,a,81,37,Female ,2021-03-02_13h01.47.910,exp11,2020.2.6,Win32,60,,,,,,,,,,,
,,,,,,,,,,,,,,p,1,1.16846,space,0.56016,0,67,67,77,1,15_dist_red/trial3.png,,,1,15,redHorizontal,p,81,37,Female ,2021-03-02_13h01.47.910,exp11,2020.2.6,Win32,60,,,,,,,,,,,
,,,,,,,,,,,,,,a,1,1.2808,space,0.498095,0,68,68,179,1,0_targ_16_dist_red/trial5.png,,,0,16,redHorizontal,a,81,37,Female ,2021-03-02_13h01.47.910,exp11,2020.2.6,Win32,60,,,,,,,,,,,
,,,,,,,,,,,,,,p,1,0.622785,space,0.62498,0,69,69,5,1,0_dist_red/trial6.png,,,1,0,redHorizontal,p,81,37,Female ,2021-03-02_13h01.47.910,exp11,2020.2.6,Win32,60,,,,,,,,,,,
,,,,,,,,,,,,,,a,1,2.213915,space,0.56566,0,70,70,150,1,0_targ_10_dist_red/trial1.png,,,0,10,redHorizontal,a,81,37,Female ,2021-03-02_13h01.47.910,exp11,2020.2.6,Win32,60,,,,,,,,,,,
,,,,,,,,,,,,,,p,1,0.75792,space,14.594175,0,71,71,25,1,3_dist_red/trial1.png,,,1,3,redHorizontal,p,81,37,Female ,2021-03-02_13h01.47.910,exp11,2020.2.6,Win32,60,,,,,,,,,,,
,,,,,,,,,,,,,,a,1,0.68262,space,0.52467,0,72,72,118,1,0_targ_1_dist_red/trial19.png,,,0,1,redHorizontal,a,81,37,Female ,2021-03-02_13h01.47.910,exp11,2020.2.6,Win32,60,,,,,,,,,,,
,,,,,,,,,,,,,,a,1,2.81844,space,0.633715,0,73,73,194,1,0_targ_16_dist_red/trial20.png,,,0,16,redHorizontal,a,81,37,Female ,2021-03-02_13h01.47.910,exp11,2020.2.6,Win32,60,,,,,,,,,,,
,,,,,,,,,,,,,,a,1,1.61111,space,0.753825,0,74,74,181,1,0_targ_16_dist_red/trial7.png,,,0,16,redHorizontal,a,81,37,Female ,2021-03-02_13h01.47.910,exp11,2020.2.6,Win32,60,,,,,,,,,,,
,,,,,,,,,,,,,,p,1,0.596365,space,0.705325,0,75,75,9,1,0_dist_red/trial10.png,,,1,0,redHorizontal,p,81,37,Female ,2021-03-02_13h01.47.910,exp11,2020.2.6,Win32,60,,,,,,,,,,,
,,,,,,,,,,,,,,a,1,1.807165,space,0.550835,0,76,76,195,1,0_targ_16_dist_red/trial21.png,,,0,16,redHorizontal,a,81,37,Female ,2021-03-02_13h01.47.910,exp11,2020.2.6,Win32,60,,,,,,,,,,,
,,,,,,,,,,,,,,a,0,0.72445,space,4.671875,0,77,77,26,1,3_dist_red/trial2.png,,,1,3,redHorizontal,p,81,37,Female ,2021-03-02_13h01.47.910,exp11,2020.2.6,Win32,60,,,,,,,,,,,
,,,,,,,,,,,,,,p,1,3.324935,space,0.53896,0,78,78,78,1,15_dist_red/trial4.png,,,1,15,redHorizontal,p,81,37,Female ,2021-03-02_13h01.47.910,exp11,2020.2.6,Win32,60,,,,,,,,,,,
,,,,,,,,,,,,,,a,1,1.619395,space,0.50027,0,79,79,124,1,0_targ_1_dist_red/trial25.png,,,0,1,redHorizontal,a,81,37,Female ,2021-03-02_13h01.47.910,exp11,2020.2.6,Win32,60,,,,,,,,,,,
,,,,,,,,,,,,,,a,1,1.558185,space,0.800425,0,80,80,110,1,0_targ_1_dist_red/trial11.png,,,0,1,redHorizontal,a,81,37,Female ,2021-03-02_13h01.47.910,exp11,2020.2.6,Win32,60,,,,,,,,,,,
,,,,,,,,,,,,,,a,1,1.157995,space,1.76567,0,81,81,154,1,0_targ_10_dist_red/trial5.png,,,0,10,redHorizontal,a,81,37,Female ,2021-03-02_13h01.47.910,exp11,2020.2.6,Win32,60,,,,,,,,,,,
,,,,,,,,,,,,,,p,1,0.87754,space,0.435225,0,82,82,72,1,9_dist_red/trial23.png,,,1,9,redHorizontal,p,81,37,Female ,2021-03-02_13h01.47.910,exp11,2020.2.6,Win32,60,,,,,,,,,,,
,,,,,,,,,,,,,,a,1,1.81237,space,0.86876,0,83,83,193,1,0_targ_16_dist_red/trial19.png,,,0,16,redHorizontal,a,81,37,Female ,2021-03-02_13h01.47.910,exp11,2020.2.6,Win32,60,,,,,,,,,,,
,,,,,,,,,,,,,,a,1,1.53939,space,0.542315,0,84,84,189,1,0_targ_16_dist_red/trial15.png,,,0,16,redHorizontal,a,81,37,Female ,2021-03-02_13h01.47.910,exp11,2020.2.6,Win32,60,,,,,,,,,,,
,,,,,,,,,,,,,,p,1,0.738015,space,0.405035,0,85,85,87,1,15_dist_red/trial13.png,,,1,15,redHorizontal,p,81,37,Female ,2021-03-02_13h01.47.910,exp11,2020.2.6,Win32,60,,,,,,,,,,,
,,,,,,,,,,,,,,p,1,0.74163,space,0.428285,0,86,86,49,1,3_dist_red/trial25.png,,,1,3,redHorizontal,p,81,37,Female ,2021-03-02_13h01.47.910,exp11,2020.2.6,Win32,60,,,,,,,,,,,
,,,,,,,,,,,,,,a,1,0.803545,space,0.46619,0,87,87,123,1,0_targ_1_dist_red/trial24.png,,,0,1,redHorizontal,a,81,37,Female ,2021-03-02_13h01.47.910,exp11,2020.2.6,Win32,60,,,,,,,,,,,
,,,,,,,,,,,,,,a,1,2.974465,space,0.569085,0,88,88,180,1,0_targ_16_dist_red/trial6.png,,,0,16,redHorizontal,a,81,37,Female ,2021-03-02_13h01.47.910,exp11,2020.2.6,Win32,60,,,,,,,,,,,
,,,,,,,,,,,,,,p,1,0.63326,space,0.46648,0,89,89,63,1,9_dist_red/trial14.png,,,1,9,redHorizontal,p,81,37,Female ,2021-03-02_13h01.47.910,exp11,2020.2.6,Win32,60,,,,,,,,,,,
,,,,,,,,,,,,,,p,1,0.749515,space,0.565045,0,90,90,53,1,9_dist_red/trial4.png,,,1,9,redHorizontal,p,81,37,Female ,2021-03-02_13h01.47.910,exp11,2020.2.6,Win32,60,,,,,,,,,,,
,,,,,,,,,,,,,,p,1,1.148205,space,0.40225,0,91,91,75,1,15_dist_red/trial1.png,,,1,15,redHorizontal,p,81,37,Female ,2021-03-02_13h01.47.910,exp11,2020.2.6,Win32,60,,,,,,,,,,,
,,,,,,,,,,,,,,p,1,0.79687,space,0.5,0,92,92,85,1,15_dist_red/trial11.png,,,1,15,redHorizontal,p,81,37,Female ,2021-03-02_13h01.47.910,exp11,2020.2.6,Win32,60,,,,,,,,,,,
,,,,,,,,,,,,,,p,1,0.706755,space,0.44284,0,93,93,91,1,15_dist_red/trial17.png,,,1,15,redHorizontal,p,81,37,Female ,2021-03-02_13h01.47.910,exp11,2020.2.6,Win32,60,,,,,,,,,,,
,,,,,,,,,,,,,,p,1,1.250505,space,0.522135,0,94,94,47,1,3_dist_red/trial23.png,,,1,3,redHorizontal,p,81,37,Female ,2021-03-02_13h01.47.910,exp11,2020.2.6,Win32,60,,,,,,,,,,,
,,,,,,,,,,,,,,p,1,0.98606,space,0.502955,0,95,95,90,1,15_dist_red/trial16.png,,,1,15,redHorizontal,p,81,37,Female ,2021-03-02_13h01.47.910,exp11,2020.2.6,Win32,60,,,,,,,,,,,
,,,,,,,,,,,,,,p,1,0.510585,space,0.4248,0,96,96,22,1,0_dist_red/trial23.png,,,1,0,redHorizontal,p,81,37,Female ,2021-03-02_13h01.47.910,exp11,2020.2.6,Win32,60,,,,,,,,,,,
,,,,,,,,,,,,,,a,1,0.887005,space,0.409485,0,97,97,170,1,0_targ_10_dist_red/trial21.png,,,0,10,redHorizontal,a,81,37,Female ,2021-03-02_13h01.47.910,exp11,2020.2.6,Win32,60,,,,,,,,,,,
,,,,,,,,,,,,,,p,1,1.611935,space,0.4574,0,98,98,35,1,3_dist_red/trial11.png,,,1,3,redHorizontal,p,81,37,Female ,2021-03-02_13h01.47.910,exp11,2020.2.6,Win32,60,,,,,,,,,,,
,,,,,,,,,,,,,,a,1,1.290095,space,0.59075,0,99,99,182,1,0_targ_16_dist_red/trial8.png,,,0,16,redHorizontal,a,81,37,Female ,2021-03-02_13h01.47.910,exp11,2020.2.6,Win32,60,,,,,,,,,,,
,,,,,,,,,,,,,,a,1,1.15379,space,0.521865,0,100,100,190,1,0_targ_16_dist_red/trial16.png,,,0,16,redHorizontal,a,81,37,Female ,2021-03-02_13h01.47.910,exp11,2020.2.6,Win32,60,,,,,,,,,,,
,,,,,,,,,,,,,,a,1,1.00809,space,0.540685,0,101,101,175,1,0_targ_16_dist_red/trial1.png,,,0,16,redHorizontal,a,81,37,Female ,2021-03-02_13h01.47.910,exp11,2020.2.6,Win32,60,,,,,,,,,,,
,,,,,,,,,,,,,,a,1,0.816375,space,0.406235,0,102,102,130,1,0_targ_4_dist_red/trial6.png,,,0,4,redHorizontal,a,81,37,Female ,2021-03-02_13h01.47.910,exp11,2020.2.6,Win32,60,,,,,,,,,,,
,,,,,,,,,,,,,,p,1,1.107525,space,0.34101,0,103,103,76,1,15_dist_red/trial2.png,,,1,15,redHorizontal,p,81,37,Female ,2021-03-02_13h01.47.910,exp11,2020.2.6,Win32,60,,,,,,,,,,,
,,,,,,,,,,,,,,a,1,2.113315,space,0.58111,0,104,104,148,1,0_targ_4_dist_red/trial24.png,,,0,4,redHorizontal,a,81,37,Female ,2021-03-02_13h01.47.910,exp11,2020.2.6,Win32,60,,,,,,,,,,,
,,,,,,,,,,,,,,a,1,1.18295,space,0.424165,0,105,105,199,1,0_targ_16_dist_red/trial25.png,,,0,16,redHorizontal,a,81,37,Female ,2021-03-02_13h01.47.910,exp11,2020.2.6,Win32,60,,,,,,,,,,,
,,,,,,,,,,,,,,a,1,0.715635,space,0.399065,0,106,106,121,1,0_targ_1_dist_red/trial22.png,,,0,1,redHorizontal,a,81,37,Female ,2021-03-02_13h01.47.910,exp11,2020.2.6,Win32,60,,,,,,,,,,,
,,,,,,,,,,,,,,p,1,0.865385,space,0.41679,0,107,107,34,1,3_dist_red/trial10.png,,,1,3,redHorizontal,p,81,37,Female ,2021-03-02_13h01.47.910,exp11,2020.2.6,Win32,60,,,,,,,,,,,
,,,,,,,,,,,,,,p,1,1.38447,space,0.45723,0,108,108,17,1,0_dist_red/trial18.png,,,1,0,redHorizontal,p,81,37,Female ,2021-03-02_13h01.47.910,exp11,2020.2.6,Win32,60,,,,,,,,,,,
,,,,,,,,,,,,,,p,1,0.82891,space,0.45059,0,109,109,10,1,0_dist_red/trial11.png,,,1,0,redHorizontal,p,81,37,Female ,2021-03-02_13h01.47.910,exp11,2020.2.6,Win32,60,,,,,,,,,,,
,,,,,,,,,,,,,,p,1,1.376115,space,0.46491,0,110,110,66,1,9_dist_red/trial17.png,,,1,9,redHorizontal,p,81,37,Female ,2021-03-02_13h01.47.910,exp11,2020.2.6,Win32,60,,,,,,,,,,,
,,,,,,,,,,,,,,a,1,0.896735,space,0.44969,0,111,111,149,1,0_targ_4_dist_red/trial25.png,,,0,4,redHorizontal,a,81,37,Female ,2021-03-02_13h01.47.910,exp11,2020.2.6,Win32,60,,,,,,,,,,,
,,,,,,,,,,,,,,a,1,0.927705,space,0.36647,0,112,112,135,1,0_targ_4_dist_red/trial11.png,,,0,4,redHorizontal,a,81,37,Female ,2021-03-02_13h01.47.910,exp11,2020.2.6,Win32,60,,,,,,,,,,,
,,,,,,,,,,,,,,p,1,0.983355,space,0.46966,0,113,113,0,1,0_dist_red/trial1.png,,,1,0,redHorizontal,p,81,37,Female ,2021-03-02_13h01.47.910,exp11,2020.2.6,Win32,60,,,,,,,,,,,
,,,,,,,,,,,,,,p,1,1.28437,space,1.24252,0,114,114,97,1,15_dist_red/trial23.png,,,1,15,redHorizontal,p,81,37,Female ,2021-03-02_13h01.47.910,exp11,2020.2.6,Win32,60,,,,,,,,,,,
,,,,,,,,,,,,,,a,1,1.71616,space,11.69413,0,115,115,138,1,0_targ_4_dist_red/trial14.png,,,0,4,redHorizontal,a,81,37,Female ,2021-03-02_13h01.47.910,exp11,2020.2.6,Win32,60,,,,,,,,,,,
,,,,,,,,,,,,,,p,1,0.842505,space,0.60054,0,116,116,21,1,0_dist_red/trial22.png,,,1,0,redHorizontal,p,81,37,Female ,2021-03-02_13h01.47.910,exp11,2020.2.6,Win32,60,,,,,,,,,,,
,,,,,,,,,,,,,,p,1,1.598685,space,0.63383,0,117,117,73,1,9_dist_red/trial24.png,,,1,9,redHorizontal,p,81,37,Female ,2021-03-02_13h01.47.910,exp11,2020.2.6,Win32,60,,,,,,,,,,,
,,,,,,,,,,,,,,a,1,1.08504,space,0.641745,0,118,118,163,1,0_targ_10_dist_red/trial14.png,,,0,10,redHorizontal,a,81,37,Female ,2021-03-02_13h01.47.910,exp11,2020.2.6,Win32,60,,,,,,,,,,,
,,,,,,,,,,,,,,p,1,1.24519,space,0.549605,0,119,119,86,1,15_dist_red/trial12.png,,,1,15,redHorizontal,p,81,37,Female ,2021-03-02_13h01.47.910,exp11,2020.2.6,Win32,60,,,,,,,,,,,
,,,,,,,,,,,,,,a,1,0.70505,space,0.43814,0,120,120,143,1,0_targ_4_dist_red/trial19.png,,,0,4,redHorizontal,a,81,37,Female ,2021-03-02_13h01.47.910,exp11,2020.2.6,Win32,60,,,,,,,,,,,
,,,,,,,,,,,,,,a,1,1.339475,space,0.36997,0,121,121,171,1,0_targ_10_dist_red/trial22.png,,,0,10,redHorizontal,a,81,37,Female ,2021-03-02_13h01.47.910,exp11,2020.2.6,Win32,60,,,,,,,,,,,
,,,,,,,,,,,,,,a,1,1.76886,space,0.41745,0,122,122,191,1,0_targ_16_dist_red/trial17.png,,,0,16,redHorizontal,a,81,37,Female ,2021-03-02_13h01.47.910,exp11,2020.2.6,Win32,60,,,,,,,,,,,
,,,,,,,,,,,,,,a,1,1.293385,space,0.391135,0,123,123,156,1,0_targ_10_dist_red/trial7.png,,,0,10,redHorizontal,a,81,37,Female ,2021-03-02_13h01.47.910,exp11,2020.2.6,Win32,60,,,,,,,,,,,
,,,,,,,,,,,,,,a,1,0.70751,space,0.44338,0,124,124,173,1,0_targ_10_dist_red/trial24.png,,,0,10,redHorizontal,a,81,37,Female ,2021-03-02_13h01.47.910,exp11,2020.2.6,Win32,60,,,,,,,,,,,
,,,,,,,,,,,,,,p,1,0.590955,space,0.333935,0,125,125,33,1,3_dist_red/trial9.png,,,1,3,redHorizontal,p,81,37,Female ,2021-03-02_13h01.47.910,exp11,2020.2.6,Win32,60,,,,,,,,,,,
,,,,,,,,,,,,,,a,1,2.554725,space,0.61607,0,126,126,186,1,0_targ_16_dist_red/trial12.png,,,0,16,redHorizontal,a,81,37,Female ,2021-03-02_13h01.47.910,exp11,2020.2.6,Win32,60,,,,,,,,,,,
,,,,,,,,,,,,,,a,1,0.72089,space,0.43688,0,127,127,108,1,0_targ_1_dist_red/trial9.png,,,0,1,redHorizontal,a,81,37,Female ,2021-03-02_13h01.47.910,exp11,2020.2.6,Win32,60,,,,,,,,,,,
,,,,,,,,,,,,,,a,1,0.723835,space,0.416985,0,128,128,164,1,0_targ_10_dist_red/trial15.png,,,0,10,redHorizontal,a,81,37,Female ,2021-03-02_13h01.47.910,exp11,2020.2.6,Win32,60,,,,,,,,,,,
,,,,,,,,,,,,,,a,1,0.781405,space,0.77519,0,129,129,147,1,0_targ_4_dist_red/trial23.png,,,0,4,redHorizontal,a,81,37,Female ,2021-03-02_13h01.47.910,exp11,2020.2.6,Win32,60,,,,,,,,,,,
,,,,,,,,,,,,,,p,1,0.577105,space,0.50605,0,130,130,42,1,3_dist_red/trial18.png,,,1,3,redHorizontal,p,81,37,Female ,2021-03-02_13h01.47.910,exp11,2020.2.6,Win32,60,,,,,,,,,,,
,,,,,,,,,,,,,,p,1,0.813355,space,0.437645,0,131,131,93,1,15_dist_red/trial19.png,,,1,15,redHorizontal,p,81,37,Female ,2021-03-02_13h01.47.910,exp11,2020.2.6,Win32,60,,,,,,,,,,,
,,,,,,,,,,,,,,p,1,0.75205,space,0.46753,0,132,132,39,1,3_dist_red/trial15.png,,,1,3,redHorizontal,p,81,37,Female ,2021-03-02_13h01.47.910,exp11,2020.2.6,Win32,60,,,,,,,,,,,
,,,,,,,,,,,,,,p,0,0.763735,space,6.357765,0,133,133,102,1,0_targ_1_dist_red/trial3.png,,,0,1,redHorizontal,a,81,37,Female ,2021-03-02_13h01.47.910,exp11,2020.2.6,Win32,60,,,,,,,,,,,
,,,,,,,,,,,,,,a,1,2.018415,space,0.514805,0,134,134,166,1,0_targ_10_dist_red/trial17.png,,,0,10,redHorizontal,a,81,37,Female ,2021-03-02_13h01.47.910,exp11,2020.2.6,Win32,60,,,,,,,,,,,
,,,,,,,,,,,,,,p,1,1.12168,space,0.78769,0,135,135,84,1,15_dist_red/trial10.png,,,1,15,redHorizontal,p,81,37,Female ,2021-03-02_13h01.47.910,exp11,2020.2.6,Win32,60,,,,,,,,,,,
,,,,,,,,,,,,,,a,1,1.41605,space,0.470045,0,136,136,177,1,0_targ_16_dist_red/trial3.png,,,0,16,redHorizontal,a,81,37,Female ,2021-03-02_13h01.47.910,exp11,2020.2.6,Win32,60,,,,,,,,,,,
,,,,,,,,,,,,,,a,1,0.931585,space,0.516635,0,137,137,152,1,0_targ_10_dist_red/trial3.png,,,0,10,redHorizontal,a,81,37,Female ,2021-03-02_13h01.47.910,exp11,2020.2.6,Win32,60,,,,,,,,,,,
,,,,,,,,,,,,,,p,1,0.52977,space,0.561925,0,138,138,13,1,0_dist_red/trial14.png,,,1,0,redHorizontal,p,81,37,Female ,2021-03-02_13h01.47.910,exp11,2020.2.6,Win32,60,,,,,,,,,,,
,,,,,,,,,,,,,,a,1,1.029905,space,0.985445,0,139,139,145,1,0_targ_4_dist_red/trial21.png,,,0,4,redHorizontal,a,81,37,Female ,2021-03-02_13h01.47.910,exp11,2020.2.6,Win32,60,,,,,,,,,,,
,,,,,,,,,,,,,,a,1,2.293605,space,0.42862,0,140,140,157,1,0_targ_10_dist_red/trial8.png,,,0,10,redHorizontal,a,81,37,Female ,2021-03-02_13h01.47.910,exp11,2020.2.6,Win32,60,,,,,,,,,,,
,,,,,,,,,,,,,,p,1,0.717325,space,0.38331,0,141,141,29,1,3_dist_red/trial5.png,,,1,3,redHorizontal,p,81,37,Female ,2021-03-02_13h01.47.910,exp11,2020.2.6,Win32,60,,,,,,,,,,,
,,,,,,,,,,,,,,a,0,2.615525,space,1.166015,0,142,142,79,1,15_dist_red/trial5.png,,,1,15,redHorizontal,p,81,37,Female ,2021-03-02_13h01.47.910,exp11,2020.2.6,Win32,60,,,,,,,,,,,
,,,,,,,,,,,,,,a,1,0.96244,space,0.39336,0,143,143,114,1,0_targ_1_dist_red/trial15.png,,,0,1,redHorizontal,a,81,37,Female ,2021-03-02_13h01.47.910,exp11,2020.2.6,Win32,60,,,,,,,,,,,
,,,,,,,,,,,,,,a,1,0.84397,space,0.619535,0,144,144,112,1,0_targ_1_dist_red/trial13.png,,,0,1,redHorizontal,a,81,37,Female ,2021-03-02_13h01.47.910,exp11,2020.2.6,Win32,60,,,,,,,,,,,
,,,,,,,,,,,,,,a,1,3.12408,space,0.61039,0,145,145,197,1,0_targ_16_dist_red/trial23.png,,,0,16,redHorizontal,a,81,37,Female ,2021-03-02_13h01.47.910,exp11,2020.2.6,Win32,60,,,,,,,,,,,
,,,,,,,,,,,,,,a,1,1.519825,space,0.71519,0,146,146,105,1,0_targ_1_dist_red/trial6.png,,,0,1,redHorizontal,a,81,37,Female ,2021-03-02_13h01.47.910,exp11,2020.2.6,Win32,60,,,,,,,,,,,
,,,,,,,,,,,,,,a,1,1.142665,space,0.6719,0,147,147,153,1,0_targ_10_dist_red/trial4.png,,,0,10,redHorizontal,a,81,37,Female ,2021-03-02_13h01.47.910,exp11,2020.2.6,Win32,60,,,,,,,,,,,
,,,,,,,,,,,,,,a,1,1.161705,space,0.475925,0,148,148,176,1,0_targ_16_dist_red/trial2.png,,,0,16,redHorizontal,a,81,37,Female ,2021-03-02_13h01.47.910,exp11,2020.2.6,Win32,60,,,,,,,,,,,
,,,,,,,,,,,,,,a,1,0.654865,space,0.633375,0,149,149,137,1,0_targ_4_dist_red/trial13.png,,,0,4,redHorizontal,a,81,37,Female ,2021-03-02_13h01.47.910,exp11,2020.2.6,Win32,60,,,,,,,,,,,
,,,,,,,,,,,,,,a,1,1.33397,space,0.47952,0,150,150,185,1,0_targ_16_dist_red/trial11.png,,,0,16,redHorizontal,a,81,37,Female ,2021-03-02_13h01.47.910,exp11,2020.2.6,Win32,60,,,,,,,,,,,
,,,,,,,,,,,,,,p,1,0.99781,space,0.49253,0,151,151,94,1,15_dist_red/trial20.png,,,1,15,redHorizontal,p,81,37,Female ,2021-03-02_13h01.47.910,exp11,2020.2.6,Win32,60,,,,,,,,,,,
,,,,,,,,,,,,,,p,1,1.16314,space,0.37819,0,152,152,61,1,9_dist_red/trial12.png,,,1,9,redHorizontal,p,81,37,Female ,2021-03-02_13h01.47.910,exp11,2020.2.6,Win32,60,,,,,,,,,,,
,,,,,,,,,,,,,,p,1,0.91421,space,0.603765,0,153,153,70,1,9_dist_red/trial21.png,,,1,9,redHorizontal,p,81,37,Female ,2021-03-02_13h01.47.910,exp11,2020.2.6,Win32,60,,,,,,,,,,,
,,,,,,,,,,,,,,p,1,0.819315,space,0.964775,0,154,154,64,1,9_dist_red/trial15.png,,,1,9,redHorizontal,p,81,37,Female ,2021-03-02_13h01.47.910,exp11,2020.2.6,Win32,60,,,,,,,,,,,
,,,,,,,,,,,,,,a,1,1.997795,space,0.48669,0,155,155,161,1,0_targ_10_dist_red/trial12.png,,,0,10,redHorizontal,a,81,37,Female ,2021-03-02_13h01.47.910,exp11,2020.2.6,Win32,60,,,,,,,,,,,
,,,,,,,,,,,,,,a,1,1.028455,space,0.44958,0,156,156,106,1,0_targ_1_dist_red/trial7.png,,,0,1,redHorizontal,a,81,37,Female ,2021-03-02_13h01.47.910,exp11,2020.2.6,Win32,60,,,,,,,,,,,
,,,,,,,,,,,,,,a,1,1.10871,space,0.55293,0,157,157,158,1,0_targ_10_dist_red/trial9.png,,,0,10,redHorizontal,a,81,37,Female ,2021-03-02_13h01.47.910,exp11,2020.2.6,Win32,60,,,,,,,,,,,
,,,,,,,,,,,,,,a,1,0.76852,space,0.43364,0,158,158,104,1,0_targ_1_dist_red/trial5.png,,,0,1,redHorizontal,a,81,37,Female ,2021-03-02_13h01.47.910,exp11,2020.2.6,Win32,60,,,,,,,,,,,
,,,,,,,,,,,,,,a,1,0.73298,space,0.421295,0,159,159,162,1,0_targ_10_dist_red/trial13.png,,,0,10,redHorizontal,a,81,37,Female ,2021-03-02_13h01.47.910,exp11,2020.2.6,Win32,60,,,,,,,,,,,
,,,,,,,,,,,,,,p,1,0.80601,space,0.499965,0,160,160,38,1,3_dist_red/trial14.png,,,1,3,redHorizontal,p,81,37,Female ,2021-03-02_13h01.47.910,exp11,2020.2.6,Win32,60,,,,,,,,,,,
,,,,,,,,,,,,,,a,1,1.06028,space,0.426555,0,161,161,160,1,0_targ_10_dist_red/trial11.png,,,0,10,redHorizontal,a,81,37,Female ,2021-03-02_13h01.47.910,exp11,2020.2.6,Win32,60,,,,,,,,,,,
,,,,,,,,,,,,,,a,1,1.93843,space,0.602785,0,162,162,144,1,0_targ_4_dist_red/trial20.png,,,0,4,redHorizontal,a,81,37,Female ,2021-03-02_13h01.47.910,exp11,2020.2.6,Win32,60,,,,,,,,,,,
,,,,,,,,,,,,,,a,1,0.55359,space,0.719485,0,163,163,136,1,0_targ_4_dist_red/trial12.png,,,0,4,redHorizontal,a,81,37,Female ,2021-03-02_13h01.47.910,exp11,2020.2.6,Win32,60,,,,,,,,,,,
,,,,,,,,,,,,,,a,1,1.88279,space,0.48373,0,164,164,183,1,0_targ_16_dist_red/trial9.png,,,0,16,redHorizontal,a,81,37,Female ,2021-03-02_13h01.47.910,exp11,2020.2.6,Win32,60,,,,,,,,,,,
,,,,,,,,,,,,,,p,1,0.818335,space,0.409335,0,165,165,62,1,9_dist_red/trial13.png,,,1,9,redHorizontal,p,81,37,Female ,2021-03-02_13h01.47.910,exp11,2020.2.6,Win32,60,,,,,,,,,,,
,,,,,,,,,,,,,,p,1,1.664565,space,0.441375,0,166,166,80,1,15_dist_red/trial6.png,,,1,15,redHorizontal,p,81,37,Female ,2021-03-02_13h01.47.910,exp11,2020.2.6,Win32,60,,,,,,,,,,,
,,,,,,,,,,,,,,p,1,1.17068,space,0.46558,0,167,167,27,1,3_dist_red/trial3.png,,,1,3,redHorizontal,p,81,37,Female ,2021-03-02_13h01.47.910,exp11,2020.2.6,Win32,60,,,,,,,,,,,
,,,,,,,,,,,,,,p,1,0.6097,space,0.36858,0,168,168,1,1,0_dist_red/trial2.png,,,1,0,redHorizontal,p,81,37,Female ,2021-03-02_13h01.47.910,exp11,2020.2.6,Win32,60,,,,,,,,,,,
,,,,,,,,,,,,,,p,1,0.52228,space,0.500325,0,169,169,4,1,0_dist_red/trial5.png,,,1,0,redHorizontal,p,81,37,Female ,2021-03-02_13h01.47.910,exp11,2020.2.6,Win32,60,,,,,,,,,,,
,,,,,,,,,,,,,,p,1,0.660445,space,0.30152,0,170,170,32,1,3_dist_red/trial8.png,,,1,3,redHorizontal,p,81,37,Female ,2021-03-02_13h01.47.910,exp11,2020.2.6,Win32,60,,,,,,,,,,,
,,,,,,,,,,,,,,a,1,1.005635,space,0.581165,0,171,171,151,1,0_targ_10_dist_red/trial2.png,,,0,10,redHorizontal,a,81,37,Female ,2021-03-02_13h01.47.910,exp11,2020.2.6,Win32,60,,,,,,,,,,,
,,,,,,,,,,,,,,p,1,0.90346,space,0.413475,0,172,172,82,1,15_dist_red/trial8.png,,,1,15,redHorizontal,p,81,37,Female ,2021-03-02_13h01.47.910,exp11,2020.2.6,Win32,60,,,,,,,,,,,
,,,,,,,,,,,,,,p,1,0.9323,space,0.40216,0,173,173,57,1,9_dist_red/trial8.png,,,1,9,redHorizontal,p,81,37,Female ,2021-03-02_13h01.47.910,exp11,2020.2.6,Win32,60,,,,,,,,,,,
,,,,,,,,,,,,,,p,1,0.66856,space,0.508225,0,174,174,65,1,9_dist_red/trial16.png,,,1,9,redHorizontal,p,81,37,Female ,2021-03-02_13h01.47.910,exp11,2020.2.6,Win32,60,,,,,,,,,,,
,,,,,,,,,,,,,,a,0,2.542385,space,0.804635,0,175,175,98,1,15_dist_red/trial24.png,,,1,15,redHorizontal,p,81,37,Female ,2021-03-02_13h01.47.910,exp11,2020.2.6,Win32,60,,,,,,,,,,,
,,,,,,,,,,,,,,a,1,1.21492,space,0.72125,0,176,176,131,1,0_targ_4_dist_red/trial7.png,,,0,4,redHorizontal,a,81,37,Female ,2021-03-02_13h01.47.910,exp11,2020.2.6,Win32,60,,,,,,,,,,,
,,,,,,,,,,,,,,p,1,0.930535,space,0.400895,0,177,177,71,1,9_dist_red/trial22.png,,,1,9,redHorizontal,p,81,37,Female ,2021-03-02_13h01.47.910,exp11,2020.2.6,Win32,60,,,,,,,,,,,
,,,,,,,,,,,,,,a,1,1.296875,space,0.495825,0,178,178,101,1,0_targ_1_dist_red/trial2.png,,,0,1,redHorizontal,a,81,37,Female ,2021-03-02_13h01.47.910,exp11,2020.2.6,Win32,60,,,,,,,,,,,
,,,,,,,,,,,,,,a,1,3.177995,space,0.772585,0,179,179,192,1,0_targ_16_dist_red/trial18.png,,,0,16,redHorizontal,a,81,37,Female ,2021-03-02_13h01.47.910,exp11,2020.2.6,Win32,60,,,,,,,,,,,
,,,,,,,,,,,,,,a,1,0.57908,space,0.510535,0,180,180,109,1,0_targ_1_dist_red/trial10.png,,,0,1,redHorizontal,a,81,37,Female ,2021-03-02_13h01.47.910,exp11,2020.2.6,Win32,60,,,,,,,,,,,
,,,,,,,,,,,,,,p,1,0.92139,space,0.283775,0,181,181,56,1,9_dist_red/trial7.png,,,1,9,redHorizontal,p,81,37,Female ,2021-03-02_13h01.47.910,exp11,2020.2.6,Win32,60,,,,,,,,,,,
,,,,,,,,,,,,,,p,1,1.34126,space,0.35275,0,182,182,89,1,15_dist_red/trial15.png,,,1,15,redHorizontal,p,81,37,Female ,2021-03-02_13h01.47.910,exp11,2020.2.6,Win32,60,,,,,,,,,,,
,,,,,,,,,,,,,,a,1,1.807445,space,0.568885,0,183,183,125,1,0_targ_4_dist_red/trial1.png,,,0,4,redHorizontal,a,81,37,Female ,2021-03-02_13h01.47.910,exp11,2020.2.6,Win32,60,,,,,,,,,,,
,,,,,,,,,,,,,,a,1,1.07414,space,0.555465,0,184,184,103,1,0_targ_1_dist_red/trial4.png,,,0,1,redHorizontal,a,81,37,Female ,2021-03-02_13h01.47.910,exp11,2020.2.6,Win32,60,,,,,,,,,,,
,,,,,,,,,,,,,,p,1,1.0091,space,0.609445,0,185,185,74,1,9_dist_red/trial25.png,,,1,9,redHorizontal,p,81,37,Female ,2021-03-02_13h01.47.910,exp11,2020.2.6,Win32,60,,,,,,,,,,,
,,,,,,,,,,,,,,a,1,0.99745,space,0.485025,0,186,186,115,1,0_targ_1_dist_red/trial6.png,,,0,1,redHorizontal,a,81,37,Female ,2021-03-02_13h01.47.910,exp11,2020.2.6,Win32,60,,,,,,,,,,,
,,,,,,,,,,,,,,p,1,0.63904,space,0.39958,0,187,187,11,1,0_dist_red/trial12.png,,,1,0,redHorizontal,p,81,37,Female ,2021-03-02_13h01.47.910,exp11,2020.2.6,Win32,60,,,,,,,,,,,
,,,,,,,,,,,,,,a,1,0.979775,space,0.343805,0,188,188,111,1,0_targ_1_dist_red/trial12.png,,,0,1,redHorizontal,a,81,37,Female ,2021-03-02_13h01.47.910,exp11,2020.2.6,Win32,60,,,,,,,,,,,
,,,,,,,,,,,,,,p,1,1.27488,space,0.40439,0,189,189,58,1,9_dist_red/trial9.png,,,1,9,redHorizontal,p,81,37,Female ,2021-03-02_13h01.47.910,exp11,2020.2.6,Win32,60,,,,,,,,,,,
,,,,,,,,,,,,,,p,1,0.957615,space,0.39557,0,190,190,6,1,0_dist_red/trial7.png,,,1,0,redHorizontal,p,81,37,Female ,2021-03-02_13h01.47.910,exp11,2020.2.6,Win32,60,,,,,,,,,,,
,,,,,,,,,,,,,,p,1,0.548605,space,0.588235,0,191,191,20,1,0_dist_red/trial21.png,,,1,0,redHorizontal,p,81,37,Female ,2021-03-02_13h01.47.910,exp11,2020.2.6,Win32,60,,,,,,,,,,,
,,,,,,,,,,,,,,p,1,0.62416,space,0.765805,0,192,192,19,1,0_dist_red/trial20.png,,,1,0,redHorizontal,p,81,37,Female ,2021-03-02_13h01.47.910,exp11,2020.2.6,Win32,60,,,,,,,,,,,
,,,,,,,,,,,,,,a,1,3.126595,space,0.417535,0,193,193,198,1,0_targ_16_dist_red/trial24.png,,,0,16,redHorizontal,a,81,37,Female ,2021-03-02_13h01.47.910,exp11,2020.2.6,Win32,60,,,,,,,,,,,
,,,,,,,,,,,,,,a,1,0.856195,space,0.60755,0,194,194,120,1,0_targ_1_dist_red/trial21.png,,,0,1,redHorizontal,a,81,37,Female ,2021-03-02_13h01.47.910,exp11,2020.2.6,Win32,60,,,,,,,,,,,
,,,,,,,,,,,,,,p,1,0.823165,space,0.61572,0,195,195,18,1,0_dist_red/trial19.png,,,1,0,redHorizontal,p,81,37,Female ,2021-03-02_13h01.47.910,exp11,2020.2.6,Win32,60,,,,,,,,,,,
,,,,,,,,,,,,,,p,1,1.749195,space,0.700215,0,196,196,55,1,9_dist_red/trial6.png,,,1,9,redHorizontal,p,81,37,Female ,2021-03-02_13h01.47.910,exp11,2020.2.6,Win32,60,,,,,,,,,,,
,,,,,,,,,,,,,,a,1,2.12968,space,1.15487,0,197,197,184,1,0_targ_16_dist_red/trial10.png,,,0,16,redHorizontal,a,81,37,Female ,2021-03-02_13h01.47.910,exp11,2020.2.6,Win32,60,,,,,,,,,,,
,,,,,,,,,,,,,,a,1,1.29741,space,0.37624,0,198,198,127,1,0_targ_4_dist_red/trial3.png,,,0,4,redHorizontal,a,81,37,Female ,2021-03-02_13h01.47.910,exp11,2020.2.6,Win32,60,,,,,,,,,,,
,,,,,,,,,,,,,,a,1,0.623415,space,0.368435,0,199,199,133,1,0_targ_4_dist_red/trial9.png,,,0,4,redHorizontal,a,81,37,Female ,2021-03-02_13h01.47.910,exp11,2020.2.6,Win32,60,,,,,,,,,,,
,,,,,,,,,,,,,,,,,,,,,,,,,,,,,,,81,37,Female ,2021-03-02_13h01.47.910,exp11,2020.2.6,Win32,60,0,0,0,1,1,conRed.xlsx,red horizontal,Look for red horizontal bar (target) and indicate if it is present or absent in the array. If red horizontal target is present press 'p' and if absent press 'a'. Press SPACE to start.,,,
,,,,,,,,,,space,21.698785,space,9.663065,p,1,0.64764,space,0.91331,0,0,0,14,1,0_dist_green/trial15.png,,,1,0,greenverival,p,81,37,Female ,2021-03-02_13h01.47.910,exp11,2020.2.6,Win32,60,,,,,,,,,,,
,,,,,,,,,,,,,,p,1,1.276055,space,0.846825,0,1,1,65,1,9_dist_green/trial16.png,,,1,9,greenverival,p,81,37,Female ,2021-03-02_13h01.47.910,exp11,2020.2.6,Win32,60,,,,,,,,,,,
,,,,,,,,,,,,,,p,1,0.80701,space,0.78674,0,2,2,16,1,0_dist_green/trial17.png,,,1,0,greenverival,p,81,37,Female ,2021-03-02_13h01.47.910,exp11,2020.2.6,Win32,60,,,,,,,,,,,
,,,,,,,,,,,,,,p,1,1.707705,space,0.457515,0,3,3,76,1,15_dist_green/trial2.png,,,1,15,greenverival,p,81,37,Female ,2021-03-02_13h01.47.910,exp11,2020.2.6,Win32,60,,,,,,,,,,,
,,,,,,,,,,,,,,p,1,0.577925,space,0.564225,0,4,4,20,1,0_dist_green/trial21.png,,,1,0,greenverival,p,81,37,Female ,2021-03-02_13h01.47.910,exp11,2020.2.6,Win32,60,,,,,,,,,,,
,,,,,,,,,,,,,,a,1,1.57328,space,0.387855,0,5,5,172,1,0_targ_10_dist_green/trial23.png,,,0,10,greenverival,a,81,37,Female ,2021-03-02_13h01.47.910,exp11,2020.2.6,Win32,60,,,,,,,,,,,
,,,,,,,,,,,,,,a,1,1.02006,space,0.36004,0,6,6,142,1,0_targ_4_dist_green/trial18.png,,,0,4,greenverival,a,81,37,Female ,2021-03-02_13h01.47.910,exp11,2020.2.6,Win32,60,,,,,,,,,,,
,,,,,,,,,,,,,,a,1,0.88432,space,0.422075,0,7,7,145,1,0_targ_4_dist_green/trial21.png,,,0,4,greenverival,a,81,37,Female ,2021-03-02_13h01.47.910,exp11,2020.2.6,Win32,60,,,,,,,,,,,
,,,,,,,,,,,,,,p,1,0.762385,space,0.36904,0,8,8,74,1,9_dist_green/trial25.png,,,1,9,greenverival,p,81,37,Female ,2021-03-02_13h01.47.910,exp11,2020.2.6,Win32,60,,,,,,,,,,,
,,,,,,,,,,,,,,p,1,1.167115,space,0.642765,0,9,9,66,1,9_dist_green/trial17.png,,,1,9,greenverival,p,81,37,Female ,2021-03-02_13h01.47.910,exp11,2020.2.6,Win32,60,,,,,,,,,,,
,,,,,,,,,,,,,,a,1,1.570515,space,0.342725,0,10,10,189,1,0_targ_16_dist_green/trial15.png,,,0,16,greenverival,a,81,37,Female ,2021-03-02_13h01.47.910,exp11,2020.2.6,Win32,60,,,,,,,,,,,
,,,,,,,,,,,,,,p,1,0.657495,space,0.506475,0,11,11,4,1,0_dist_green/trial5.png,,,1,0,greenverival,p,81,37,Female ,2021-03-02_13h01.47.910,exp11,2020.2.6,Win32,60,,,,,,,,,,,
,,,,,,,,,,,,,,a,1,1.49539,space,0.51703,0,12,12,101,1,0_targ_1_dist_green/trial2.png,,,0,1,greenverival,a,81,37,Female ,2021-03-02_13h01.47.910,exp11,2020.2.6,Win32,60,,,,,,,,,,,
,,,,,,,,,,,,,,p,1,1.60385,space,0.43775,0,13,13,58,1,9_dist_green/trial9.png,,,1,9,greenverival,p,81,37,Female ,2021-03-02_13h01.47.910,exp11,2020.2.6,Win32,60,,,,,,,,,,,
,,,,,,,,,,,,,,p,1,1.36828,space,0.3666,0,14,14,8,1,0_dist_green/trial9.png,,,1,0,greenverival,p,81,37,Female ,2021-03-02_13h01.47.910,exp11,2020.2.6,Win32,60,,,,,,,,,,,
,,,,,,,,,,,,,,p,1,0.828885,space,0.41656,0,15,15,30,1,3_dist_green/trial6.png,,,1,3,greenverival,p,81,37,Female ,2021-03-02_13h01.47.910,exp11,2020.2.6,Win32,60,,,,,,,,,,,
,,,,,,,,,,,,,,a,1,1.038955,space,0.38513,0,16,16,195,1,0_targ_16_dist_green/trial21.png,,,0,16,greenverival,a,81,37,Female ,2021-03-02_13h01.47.910,exp11,2020.2.6,Win32,60,,,,,,,,,,,
,,,,,,,,,,,,,,p,1,0.78224,space,0.469585,0,17,17,42,1,3_dist_green/trial18.png,,,1,3,greenverival,p,81,37,Female ,2021-03-02_13h01.47.910,exp11,2020.2.6,Win32,60,,,,,,,,,,,
,,,,,,,,,,,,,,p,1,1.524375,space,0.286895,0,18,18,85,1,15_dist_green/trial11.png,,,1,15,greenverival,p,81,37,Female ,2021-03-02_13h01.47.910,exp11,2020.2.6,Win32,60,,,,,,,,,,,
,,,,,,,,,,,,,,a,1,2.38635,space,0.32492,0,19,19,162,1,0_targ_10_dist_green/trial13.png,,,0,10,greenverival,a,81,37,Female ,2021-03-02_13h01.47.910,exp11,2020.2.6,Win32,60,,,,,,,,,,,
,,,,,,,,,,,,,,a,1,1.08558,space,0.287725,0,20,20,155,1,0_targ_10_dist_green/trial6.png,,,0,10,greenverival,a,81,37,Female ,2021-03-02_13h01.47.910,exp11,2020.2.6,Win32,60,,,,,,,,,,,
,,,,,,,,,,,,,,a,1,0.750995,space,0.25631,0,21,21,128,1,0_targ_4_dist_green/trial4.png,,,0,4,greenverival,a,81,37,Female ,2021-03-02_13h01.47.910,exp11,2020.2.6,Win32,60,,,,,,,,,,,
,,,,,,,,,,,,,,a,1,0.72598,space,0.37505,0,22,22,132,1,0_targ_4_dist_green/trial8.png,,,0,4,greenverival,a,81,37,Female ,2021-03-02_13h01.47.910,exp11,2020.2.6,Win32,60,,,,,,,,,,,
,,,,,,,,,,,,,,a,1,1.488675,space,0.6268,0,23,23,113,1,0_targ_1_dist_green/trial14.png,,,0,1,greenverival,a,81,37,Female ,2021-03-02_13h01.47.910,exp11,2020.2.6,Win32,60,,,,,,,,,,,
,,,,,,,,,,,,,,a,1,1.679315,space,0.407825,0,24,24,197,1,0_targ_16_dist_green/trial23.png,,,0,16,greenverival,a,81,37,Female ,2021-03-02_13h01.47.910,exp11,2020.2.6,Win32,60,,,,,,,,,,,
,,,,,,,,,,,,,,p,1,0.946845,space,0.342295,0,25,25,78,1,15_dist_green/trial4.png,,,1,15,greenverival,p,81,37,Female ,2021-03-02_13h01.47.910,exp11,2020.2.6,Win32,60,,,,,,,,,,,
,,,,,,,,,,,,,,a,1,0.80622,space,0.44493,0,26,26,170,1,0_targ_10_dist_green/trial21.png,,,0,10,greenverival,a,81,37,Female ,2021-03-02_13h01.47.910,exp11,2020.2.6,Win32,60,,,,,,,,,,,
,,,,,,,,,,,,,,a,1,1.0344,space,0.40132,0,27,27,153,1,0_targ_10_dist_green/trial4.png,,,0,10,greenverival,a,81,37,Female ,2021-03-02_13h01.47.910,exp11,2020.2.6,Win32,60,,,,,,,,,,,
,,,,,,,,,,,,,,p,1,0.82812,space,0.389,0,28,28,28,1,3_dist_green/trial4.png,,,1,3,greenverival,p,81,37,Female ,2021-03-02_13h01.47.910,exp11,2020.2.6,Win32,60,,,,,,,,,,,
,,,,,,,,,,,,,,p,1,0.976545,space,0.372605,0,29,29,72,1,9_dist_green/trial23.png,,,1,9,greenverival,p,81,37,Female ,2021-03-02_13h01.47.910,exp11,2020.2.6,Win32,60,,,,,,,,,,,
,,,,,,,,,,,,,,p,1,1.155735,space,0.36535,0,30,30,80,1,15_dist_green/trial6.png,,,1,15,greenverival,p,81,37,Female ,2021-03-02_13h01.47.910,exp11,2020.2.6,Win32,60,,,,,,,,,,,
,,,,,,,,,,,,,,p,1,0.55796,space,0.516655,0,31,31,18,1,0_dist_green/trial19.png,,,1,0,greenverival,p,81,37,Female ,2021-03-02_13h01.47.910,exp11,2020.2.6,Win32,60,,,,,,,,,,,
,,,,,,,,,,,,,,p,1,0.46317,space,0.44986,0,32,32,22,1,0_dist_green/trial23.png,,,1,0,greenverival,p,81,37,Female ,2021-03-02_13h01.47.910,exp11,2020.2.6,Win32,60,,,,,,,,,,,
,,,,,,,,,,,,,,a,1,0.805685,space,0.30816,0,33,33,117,1,0_targ_1_dist_green/trial18.png,,,0,1,greenverival,a,81,37,Female ,2021-03-02_13h01.47.910,exp11,2020.2.6,Win32,60,,,,,,,,,,,
,,,,,,,,,,,,,,p,1,1.742485,space,0.353115,0,34,34,97,1,15_dist_green/trial23.png,,,1,15,greenverival,p,81,37,Female ,2021-03-02_13h01.47.910,exp11,2020.2.6,Win32,60,,,,,,,,,,,
,,,,,,,,,,,,,,a,1,1.931375,space,0.422535,0,35,35,186,1,0_targ_16_dist_green/trial12.png,,,0,16,greenverival,a,81,37,Female ,2021-03-02_13h01.47.910,exp11,2020.2.6,Win32,60,,,,,,,,,,,
,,,,,,,,,,,,,,a,1,1.5572,space,0.345045,0,36,36,190,1,0_targ_16_dist_green/trial16.png,,,0,16,greenverival,a,81,37,Female ,2021-03-02_13h01.47.910,exp11,2020.2.6,Win32,60,,,,,,,,,,,
,,,,,,,,,,,,,,p,1,0.54603,space,0.28446,0,37,37,49,1,3_dist_green/trial25.png,,,1,3,greenverival,p,81,37,Female ,2021-03-02_13h01.47.910,exp11,2020.2.6,Win32,60,,,,,,,,,,,
,,,,,,,,,,,,,,p,1,0.819635,space,0.34929,0,38,38,68,1,9_dist_green/trial19.png,,,1,9,greenverival,p,81,37,Female ,2021-03-02_13h01.47.910,exp11,2020.2.6,Win32,60,,,,,,,,,,,
,,,,,,,,,,,,,,p,1,0.536295,space,0.349865,0,39,39,46,1,3_dist_green/trial22.png,,,1,3,greenverival,p,81,37,Female ,2021-03-02_13h01.47.910,exp11,2020.2.6,Win32,60,,,,,,,,,,,
,,,,,,,,,,,,,,a,1,1.54213,space,0.421765,0,40,40,198,1,0_targ_16_dist_green/trial24.png,,,0,16,greenverival,a,81,37,Female ,2021-03-02_13h01.47.910,exp11,2020.2.6,Win32,60,,,,,,,,,,,
,,,,,,,,,,,,,,p,1,0.90861,space,0.35037,0,41,41,63,1,9_dist_green/trial14.png,,,1,9,greenverival,p,81,37,Female ,2021-03-02_13h01.47.910,exp11,2020.2.6,Win32,60,,,,,,,,,,,
,,,,,,,,,,,,,,a,1,0.922565,space,0.38676,0,42,42,112,1,0_targ_1_dist_green/trial13.png,,,0,1,greenverival,a,81,37,Female ,2021-03-02_13h01.47.910,exp11,2020.2.6,Win32,60,,,,,,,,,,,
,,,,,,,,,,,,,,a,1,0.895815,space,0.405525,0,43,43,175,1,0_targ_16_dist_green/trial1.png,,,0,16,greenverival,a,81,37,Female ,2021-03-02_13h01.47.910,exp11,2020.2.6,Win32,60,,,,,,,,,,,
,,,,,,,,,,,,,,p,1,0.593685,space,0.4165,0,44,44,44,1,3_dist_green/trial20.png,,,1,3,greenverival,p,81,37,Female ,2021-03-02_13h01.47.910,exp11,2020.2.6,Win32,60,,,,,,,,,,,
,,,,,,,,,,,,,,p,1,0.47977,space,0.37603,0,45,45,24,1,0_dist_green/trial25.png,,,1,0,greenverival,p,81,37,Female ,2021-03-02_13h01.47.910,exp11,2020.2.6,Win32,60,,,,,,,,,,,
,,,,,,,,,,,,,,p,1,0.99014,space,0.356315,0,46,46,83,1,15_dist_green/trial9.png,,,1,15,greenverival,p,81,37,Female ,2021-03-02_13h01.47.910,exp11,2020.2.6,Win32,60,,,,,,,,,,,
,,,,,,,,,,,,,,p,1,0.5326,space,0.366075,0,47,47,43,1,3_dist_green/trial19.png,,,1,3,greenverival,p,81,37,Female ,2021-03-02_13h01.47.910,exp11,2020.2.6,Win32,60,,,,,,,,,,,
,,,,,,,,,,,,,,a,1,0.843845,space,0.467555,0,48,48,131,1,0_targ_4_dist_green/trial7.png,,,0,4,greenverival,a,81,37,Female ,2021-03-02_13h01.47.910,exp11,2020.2.6,Win32,60,,,,,,,,,,,
,,,,,,,,,,,,,,p,1,0.98769,space,0.29075,0,49,49,55,1,9_dist_green/trial6.png,,,1,9,greenverival,p,81,37,Female ,2021-03-02_13h01.47.910,exp11,2020.2.6,Win32,60,,,,,,,,,,,
,,,,,,,,,,,,,,p,1,0.55706,space,0.319965,0,50,50,1,1,0_dist_green/trial2.png,,,1,0,greenverival,p,81,37,Female ,2021-03-02_13h01.47.910,exp11,2020.2.6,Win32,60,,,,,,,,,,,
,,,,,,,,,,,,,,a,1,1.22237,space,0.33506,0,51,51,144,1,0_targ_4_dist_green/trial20.png,,,0,4,greenverival,a,81,37,Female ,2021-03-02_13h01.47.910,exp11,2020.2.6,Win32,60,,,,,,,,,,,
,,,,,,,,,,,,,,p,1,0.474015,space,0.332765,0,52,52,39,1,3_dist_green/trial15.png,,,1,3,greenverival,p,81,37,Female ,2021-03-02_13h01.47.910,exp11,2020.2.6,Win32,60,,,,,,,,,,,
,,,,,,,,,,,,,,a,1,1.32632,space,0.371715,0,53,53,191,1,0_targ_16_dist_green/trial17.png,,,0,16,greenverival,a,81,37,Female ,2021-03-02_13h01.47.910,exp11,2020.2.6,Win32,60,,,,,,,,,,,
,,,,,,,,,,,,,,a,1,0.647625,space,0.35374,0,54,54,102,1,0_targ_1_dist_green/trial3.png,,,0,1,greenverival,a,81,37,Female ,2021-03-02_13h01.47.910,exp11,2020.2.6,Win32,60,,,,,,,,,,,
,,,,,,,,,,,,,,p,1,0.51156,space,0.302215,0,55,55,34,1,3_dist_green/trial10.png,,,1,3,greenverival,p,81,37,Female ,2021-03-02_13h01.47.910,exp11,2020.2.6,Win32,60,,,,,,,,,,,
,,,,,,,,,,,,,,a,1,0.668395,space,0.53583,0,56,56,110,1,0_targ_1_dist_green/trial11.png,,,0,1,greenverival,a,81,37,Female ,2021-03-02_13h01.47.910,exp11,2020.2.6,Win32,60,,,,,,,,,,,
,,,,,,,,,,,,,,a,1,1.68318,space,0.402205,0,57,57,185,1,0_targ_16_dist_green/trial11.png,,,0,16,greenverival,a,81,37,Female ,2021-03-02_13h01.47.910,exp11,2020.2.6,Win32,60,,,,,,,,,,,
,,,,,,,,,,,,,,a,1,1.28876,space,0.34275,0,58,58,184,1,0_targ_16_dist_green/trial10.png,,,0,16,greenverival,a,81,37,Female ,2021-03-02_13h01.47.910,exp11,2020.2.6,Win32,60,,,,,,,,,,,
,,,,,,,,,,,,,,p,1,0.570015,space,0.407745,0,59,59,6,1,0_dist_green/trial7.png,,,1,0,greenverival,p,81,37,Female ,2021-03-02_13h01.47.910,exp11,2020.2.6,Win32,60,,,,,,,,,,,
,,,,,,,,,,,,,,p,1,0.997625,space,0.365915,0,60,60,79,1,15_dist_green/trial5.png,,,1,15,greenverival,p,81,37,Female ,2021-03-02_13h01.47.910,exp11,2020.2.6,Win32,60,,,,,,,,,,,
,,,,,,,,,,,,,,p,1,1.08071,space,0.417315,0,61,61,51,1,9_dist_green/trial2.png,,,1,9,greenverival,p,81,37,Female ,2021-03-02_13h01.47.910,exp11,2020.2.6,Win32,60,,,,,,,,,,,
,,,,,,,,,,,,,,p,1,0.861425,space,0.436165,0,62,62,47,1,3_dist_green/trial23.png,,,1,3,greenverival,p,81,37,Female ,2021-03-02_13h01.47.910,exp11,2020.2.6,Win32,60,,,,,,,,,,,
,,,,,,,,,,,,,,a,0,1.072345,space,4.205815,0,63,63,70,1,9_dist_green/trial21.png,,,1,9,greenverival,p,81,37,Female ,2021-03-02_13h01.47.910,exp11,2020.2.6,Win32,60,,,,,,,,,,,
,,,,,,,,,,,,,,a,1,2.961275,space,0.670975,0,64,64,151,1,0_targ_10_dist_green/trial2.png,,,0,10,greenverival,a,81,37,Female ,2021-03-02_13h01.47.910,exp11,2020.2.6,Win32,60,,,,,,,,,,,
,,,,,,,,,,,,,,a,1,1.45248,space,0.703955,0,65,65,180,1,0_targ_16_dist_green/trial6.png,,,0,16,greenverival,a,81,37,Female ,2021-03-02_13h01.47.910,exp11,2020.2.6,Win32,60,,,,,,,,,,,
,,,,,,,,,,,,,,p,1,0.791175,space,0.354315,0,66,66,88,1,15_dist_green/trial14.png,,,1,15,greenverival,p,81,37,Female ,2021-03-02_13h01.47.910,exp11,2020.2.6,Win32,60,,,,,,,,,,,
,,,,,,,,,,,,,,a,1,0.650565,space,0.48366,0,67,67,108,1,0_targ_1_dist_green/trial9.png,,,0,1,greenverival,a,81,37,Female ,2021-03-02_13h01.47.910,exp11,2020.2.6,Win32,60,,,,,,,,,,,
,,,,,,,,,,,,,,p,1,0.50277,space,0.37944,0,68,68,23,1,0_dist_green/trial24.png,,,1,0,greenverival,p,81,37,Female ,2021-03-02_13h01.47.910,exp11,2020.2.6,Win32,60,,,,,,,,,,,
,,,,,,,,,,,,,,a,1,0.84788,space,0.52916,0,69,69,111,1,0_targ_1_dist_green/trial12.png,,,0,1,greenverival,a,81,37,Female ,2021-03-02_13h01.47.910,exp11,2020.2.6,Win32,60,,,,,,,,,,,
,,,,,,,,,,,,,,p,1,1.961555,space,0.30514,0,70,70,61,1,9_dist_green/trial12.png,,,1,9,greenverival,p,81,37,Female ,2021-03-02_13h01.47.910,exp11,2020.2.6,Win32,60,,,,,,,,,,,
,,,,,,,,,,,,,,p,1,0.785795,space,0.329275,0,71,71,26,1,3_dist_green/trial2.png,,,1,3,greenverival,p,81,37,Female ,2021-03-02_13h01.47.910,exp11,2020.2.6,Win32,60,,,,,,,,,,,
,,,,,,,,,,,,,,p,1,0.501315,space,0.40341,0,72,72,21,1,0_dist_green/trial22.png,,,1,0,greenverival,p,81,37,Female ,2021-03-02_13h01.47.910,exp11,2020.2.6,Win32,60,,,,,,,,,,,
,,,,,,,,,,,,,,a,1,1.14074,space,0.4321,0,73,73,139,1,0_targ_4_dist_green/trial15.png,,,0,4,greenverival,a,81,37,Female ,2021-03-02_13h01.47.910,exp11,2020.2.6,Win32,60,,,,,,,,,,,
,,,,,,,,,,,,,,a,1,2.109185,space,0.39144,0,74,74,178,1,0_targ_16_dist_green/trial4.png,,,0,16,greenverival,a,81,37,Female ,2021-03-02_13h01.47.910,exp11,2020.2.6,Win32,60,,,,,,,,,,,
,,,,,,,,,,,,,,p,1,0.607175,space,0.355,0,75,75,89,1,15_dist_green/trial15.png,,,1,15,greenverival,p,81,37,Female ,2021-03-02_13h01.47.910,exp11,2020.2.6,Win32,60,,,,,,,,,,,
,,,,,,,,,,,,,,a,1,1.61036,space,0.426385,0,76,76,196,1,0_targ_16_dist_green/trial22.png,,,0,16,greenverival,a,81,37,Female ,2021-03-02_13h01.47.910,exp11,2020.2.6,Win32,60,,,,,,,,,,,
,,,,,,,,,,,,,,a,1,0.71926,space,0.454315,0,77,77,143,1,0_targ_4_dist_green/trial19.png,,,0,4,greenverival,a,81,37,Female ,2021-03-02_13h01.47.910,exp11,2020.2.6,Win32,60,,,,,,,,,,,
,,,,,,,,,,,,,,p,1,0.57625,space,0.38459,0,78,78,3,1,0_dist_green/trial4.png,,,1,0,greenverival,p,81,37,Female ,2021-03-02_13h01.47.910,exp11,2020.2.6,Win32,60,,,,,,,,,,,
,,,,,,,,,,,,,,p,1,0.968815,space,0.46114,0,79,79,62,1,9_dist_green/trial13.png,,,1,9,greenverival,p,81,37,Female ,2021-03-02_13h01.47.910,exp11,2020.2.6,Win32,60,,,,,,,,,,,
,,,,,,,,,,,,,,p,1,1.174795,space,0.459915,0,80,80,60,1,9_dist_green/trial11.png,,,1,9,greenverival,p,81,37,Female ,2021-03-02_13h01.47.910,exp11,2020.2.6,Win32,60,,,,,,,,,,,
,,,,,,,,,,,,,,a,1,1.190895,space,0.45021,0,81,81,168,1,0_targ_10_dist_green/trial19.png,,,0,10,greenverival,a,81,37,Female ,2021-03-02_13h01.47.910,exp11,2020.2.6,Win32,60,,,,,,,,,,,
,,,,,,,,,,,,,,p,1,1.024745,space,0.38802,0,82,82,59,1,9_dist_green/trial10.png,,,1,9,greenverival,p,81,37,Female ,2021-03-02_13h01.47.910,exp11,2020.2.6,Win32,60,,,,,,,,,,,
,,,,,,,,,,,,,,a,1,2.97847,space,0.523515,0,83,83,174,1,0_targ_10_dist_green/trial25.png,,,0,10,greenverival,a,81,37,Female ,2021-03-02_13h01.47.910,exp11,2020.2.6,Win32,60,,,,,,,,,,,
,,,,,,,,,,,,,,p,1,0.73127,space,0.440475,0,84,84,45,1,3_dist_green/trial21.png,,,1,3,greenverival,p,81,37,Female ,2021-03-02_13h01.47.910,exp11,2020.2.6,Win32,60,,,,,,,,,,,
,,,,,,,,,,,,,,p,1,1.552505,space,0.319415,0,85,85,64,1,9_dist_green/trial15.png,,,1,9,greenverival,p,81,37,Female ,2021-03-02_13h01.47.910,exp11,2020.2.6,Win32,60,,,,,,,,,,,
,,,,,,,,,,,,,,a,1,0.941305,space,0.32477,0,86,86,152,1,0_targ_10_dist_green/trial3.png,,,0,10,greenverival,a,81,37,Female ,2021-03-02_13h01.47.910,exp11,2020.2.6,Win32,60,,,,,,,,,,,
,,,,,,,,,,,,,,p,1,1.437195,space,0.384645,0,87,87,84,1,15_dist_green/trial10.png,,,1,15,greenverival,p,81,37,Female ,2021-03-02_13h01.47.910,exp11,2020.2.6,Win32,60,,,,,,,,,,,
,,,,,,,,,,,,,,p,1,0.99862,space,0.38898,0,88,88,71,1,9_dist_green/trial22.png,,,1,9,greenverival,p,81,37,Female ,2021-03-02_13h01.47.910,exp11,2020.2.6,Win32,60,,,,,,,,,,,
,,,,,,,,,,,,,,p,1,1.02234,space,0.319375,0,89,89,75,1,15_dist_green/trial1.png,,,1,15,greenverival,p,81,37,Female ,2021-03-02_13h01.47.910,exp11,2020.2.6,Win32,60,,,,,,,,,,,
,,,,,,,,,,,,,,a,1,0.811435,space,0.403205,0,90,90,140,1,0_targ_4_dist_green/trial6.png,,,0,4,greenverival,a,81,37,Female ,2021-03-02_13h01.47.910,exp11,2020.2.6,Win32,60,,,,,,,,,,,
,,,,,,,,,,,,,,a,1,3.11787,space,0.368545,0,91,91,179,1,0_targ_16_dist_green/trial5.png,,,0,16,greenverival,a,81,37,Female ,2021-03-02_13h01.47.910,exp11,2020.2.6,Win32,60,,,,,,,,,,,
,,,,,,,,,,,,,,p,1,1.040165,space,0.423285,0,92,92,40,1,3_dist_green/trial16.png,,,1,3,greenverival,p,81,37,Female ,2021-03-02_13h01.47.910,exp11,2020.2.6,Win32,60,,,,,,,,,,,
,,,,,,,,,,,,,,p,1,2.29184,space,0.37023,0,93,93,32,1,3_dist_green/trial8.png,,,1,3,greenverival,p,81,37,Female ,2021-03-02_13h01.47.910,exp11,2020.2.6,Win32,60,,,,,,,,,,,
,,,,,,,,,,,,,,p,1,1.338265,space,0.45033,0,94,94,56,1,9_dist_green/trial7.png,,,1,9,greenverival,p,81,37,Female ,2021-03-02_13h01.47.910,exp11,2020.2.6,Win32,60,,,,,,,,,,,
,,,,,,,,,,,,,,a,1,1.58727,space,0.445685,0,95,95,164,1,0_targ_10_dist_green/trial15.png,,,0,10,greenverival,a,81,37,Female ,2021-03-02_13h01.47.910,exp11,2020.2.6,Win32,60,,,,,,,,,,,
,,,,,,,,,,,,,,p,1,0.616585,space,0.48262,0,96,96,27,1,3_dist_green/trial3.png,,,1,3,greenverival,p,81,37,Female ,2021-03-02_13h01.47.910,exp11,2020.2.6,Win32,60,,,,,,,,,,,
,,,,,,,,,,,,,,p,1,1.67433,space,0.37098,0,97,97,91,1,15_dist_green/trial17.png,,,1,15,greenverival,p,81,37,Female ,2021-03-02_13h01.47.910,exp11,2020.2.6,Win32,60,,,,,,,,,,,
,,,,,,,,,,,,,,p,1,0.721535,space,0.388405,0,98,98,48,1,3_dist_green/trial24.png,,,1,3,greenverival,p,81,37,Female ,2021-03-02_13h01.47.910,exp11,2020.2.6,Win32,60,,,,,,,,,,,
,,,,,,,,,,,,,,p,1,0.431975,space,0.43606,0,99,99,19,1,0_dist_green/trial20.png,,,1,0,greenverival,p,81,37,Female ,2021-03-02_13h01.47.910,exp11,2020.2.6,Win32,60,,,,,,,,,,,
,,,,,,,,,,,,,,a,1,1.462905,space,0.501795,0,100,100,121,1,0_targ_1_dist_green/trial22.png,,,0,1,greenverival,a,81,37,Female ,2021-03-02_13h01.47.910,exp11,2020.2.6,Win32,60,,,,,,,,,,,
,,,,,,,,,,,,,,a,1,0.597825,space,0.38304,0,101,101,116,1,0_targ_1_dist_green/trial17.png,,,0,1,greenverival,a,81,37,Female ,2021-03-02_13h01.47.910,exp11,2020.2.6,Win32,60,,,,,,,,,,,
,,,,,,,,,,,,,,p,1,0.596495,space,0.3255,0,102,102,17,1,0_dist_green/trial18.png,,,1,0,greenverival,p,81,37,Female ,2021-03-02_13h01.47.910,exp11,2020.2.6,Win32,60,,,,,,,,,,,
,,,,,,,,,,,,,,p,1,1.415005,space,0.306655,0,103,103,95,1,15_dist_green/trial21.png,,,1,15,greenverival,p,81,37,Female ,2021-03-02_13h01.47.910,exp11,2020.2.6,Win32,60,,,,,,,,,,,
,,,,,,,,,,,,,,p,1,1.24443,space,0.326255,0,104,104,90,1,15_dist_green/trial16.png,,,1,15,greenverival,p,81,37,Female ,2021-03-02_13h01.47.910,exp11,2020.2.6,Win32,60,,,,,,,,,,,
,,,,,,,,,,,,,,a,1,1.77988,space,0.382955,0,105,105,187,1,0_targ_16_dist_green/trial13.png,,,0,16,greenverival,a,81,37,Female ,2021-03-02_13h01.47.910,exp11,2020.2.6,Win32,60,,,,,,,,,,,
,,,,,,,,,,,,,,a,1,1.199435,space,0.377945,0,106,106,115,1,0_targ_1_dist_green/trial6.png,,,0,1,greenverival,a,81,37,Female ,2021-03-02_13h01.47.910,exp11,2020.2.6,Win32,60,,,,,,,,,,,
,,,,,,,,,,,,,,p,1,0.67766,space,0.27256,0,107,107,92,1,15_dist_green/trial18.png,,,1,15,greenverival,p,81,37,Female ,2021-03-02_13h01.47.910,exp11,2020.2.6,Win32,60,,,,,,,,,,,
,,,,,,,,,,,,,,a,1,1.18196,space,0.41877,0,108,108,122,1,0_targ_1_dist_green/trial23.png,,,0,1,greenverival,a,81,37,Female ,2021-03-02_13h01.47.910,exp11,2020.2.6,Win32,60,,,,,,,,,,,
,,,,,,,,,,,,,,p,1,0.866665,space,0.39462,0,109,109,53,1,9_dist_green/trial4.png,,,1,9,greenverival,p,81,37,Female ,2021-03-02_13h01.47.910,exp11,2020.2.6,Win32,60,,,,,,,,,,,
,,,,,,,,,,,,,,a,1,0.93179,space,0.33,0,110,110,176,1,0_targ_16_dist_green/trial2.png,,,0,16,greenverival,a,81,37,Female ,2021-03-02_13h01.47.910,exp11,2020.2.6,Win32,60,,,,,,,,,,,
,,,,,,,,,,,,,,p,1,0.624785,space,0.27089,0,111,111,69,1,9_dist_green/trial20.png,,,1,9,greenverival,p,81,37,Female ,2021-03-02_13h01.47.910,exp11,2020.2.6,Win32,60,,,,,,,,,,,
,,,,,,,,,,,,,,a,1,0.80913,space,0.719155,0,112,112,107,1,0_targ_1_dist_green/trial8.png,,,0,1,greenverival,a,81,37,Female ,2021-03-02_13h01.47.910,exp11,2020.2.6,Win32,60,,,,,,,,,,,
,,,,,,,,,,,,,,p,1,1.23024,space,0.366705,0,113,113,81,1,15_dist_green/trial7.png,,,1,15,greenverival,p,81,37,Female ,2021-03-02_13h01.47.910,exp11,2020.2.6,Win32,60,,,,,,,,,,,
,,,,,,,,,,,,,,a,1,0.978,space,0.439665,0,114,114,120,1,0_targ_1_dist_green/trial21.png,,,0,1,greenverival,a,81,37,Female ,2021-03-02_13h01.47.910,exp11,2020.2.6,Win32,60,,,,,,,,,,,
,,,,,,,,,,,,,,p,1,1.06697,space,0.309395,0,115,115,50,1,9_dist_green/trial1.png,,,1,9,greenverival,p,81,37,Female ,2021-03-02_13h01.47.910,exp11,2020.2.6,Win32,60,,,,,,,,,,,
,,,,,,,,,,,,,,p,1,0.68038,space,0.34195,0,116,116,57,1,9_dist_green/trial8.png,,,1,9,greenverival,p,81,37,Female ,2021-03-02_13h01.47.910,exp11,2020.2.6,Win32,60,,,,,,,,,,,
,,,,,,,,,,,,,,a,1,1.32822,space,0.400525,0,117,117,138,1,0_targ_4_dist_green/trial14.png,,,0,4,greenverival,a,81,37,Female ,2021-03-02_13h01.47.910,exp11,2020.2.6,Win32,60,,,,,,,,,,,
,,,,,,,,,,,,,,a,1,1.15943,space,0.652415,0,118,118,150,1,0_targ_10_dist_green/trial1.png,,,0,10,greenverival,a,81,37,Female ,2021-03-02_13h01.47.910,exp11,2020.2.6,Win32,60,,,,,,,,,,,
,,,,,,,,,,,,,,p,1,1.02708,space,0.34053,0,119,119,25,1,3_dist_green/trial1.png,,,1,3,greenverival,p,81,37,Female ,2021-03-02_13h01.47.910,exp11,2020.2.6,Win32,60,,,,,,,,,,,
,,,,,,,,,,,,,,a,1,1.449725,space,0.37251,0,120,120,157,1,0_targ_10_dist_green/trial8.png,,,0,10,greenverival,a,81,37,Female ,2021-03-02_13h01.47.910,exp11,2020.2.6,Win32,60,,,,,,,,,,,
,,,,,,,,,,,,,,p,1,0.534715,space,0.283965,0,121,121,0,1,0_dist_green/trial1.png,,,1,0,greenverival,p,81,37,Female ,2021-03-02_13h01.47.910,exp11,2020.2.6,Win32,60,,,,,,,,,,,
,,,,,,,,,,,,,,a,1,0.966845,space,0.38287,0,122,122,135,1,0_targ_4_dist_green/trial11.png,,,0,4,greenverival,a,81,37,Female ,2021-03-02_13h01.47.910,exp11,2020.2.6,Win32,60,,,,,,,,,,,
,,,,,,,,,,,,,,a,1,0.800585,space,0.43871,0,123,123,125,1,0_targ_4_dist_green/trial1.png,,,0,4,greenverival,a,81,37,Female ,2021-03-02_13h01.47.910,exp11,2020.2.6,Win32,60,,,,,,,,,,,
,,,,,,,,,,,,,,a,1,1.388285,space,0.54944,0,124,124,146,1,0_targ_4_dist_green/trial22.png,,,0,4,greenverival,a,81,37,Female ,2021-03-02_13h01.47.910,exp11,2020.2.6,Win32,60,,,,,,,,,,,
,,,,,,,,,,,,,,p,1,1.753895,space,0.2852,0,125,125,87,1,15_dist_green/trial13.png,,,1,15,greenverival,p,81,37,Female ,2021-03-02_13h01.47.910,exp11,2020.2.6,Win32,60,,,,,,,,,,,
,,,,,,,,,,,,,,a,1,2.1492,space,0.29043,0,126,126,177,1,0_targ_16_dist_green/trial3.png,,,0,16,greenverival,a,81,37,Female ,2021-03-02_13h01.47.910,exp11,2020.2.6,Win32,60,,,,,,,,,,,
,,,,,,,,,,,,,,p,1,0.580785,space,0.2487,0,127,127,38,1,3_dist_green/trial14.png,,,1,3,greenverival,p,81,37,Female ,2021-03-02_13h01.47.910,exp11,2020.2.6,Win32,60,,,,,,,,,,,
,,,,,,,,,,,,,,p,1,0.506635,space,0.40067,0,128,128,10,1,0_dist_green/trial11.png,,,1,0,greenverival,p,81,37,Female ,2021-03-02_13h01.47.910,exp11,2020.2.6,Win32,60,,,,,,,,,,,
,,,,,,,,,,,,,,p,1,0.43257,space,0.398135,0,129,129,12,1,0_dist_green/trial13.png,,,1,0,greenverival,p,81,37,Female ,2021-03-02_13h01.47.910,exp11,2020.2.6,Win32,60,,,,,,,,,,,
,,,,,,,,,,,,,,a,1,0.835395,space,0.33377,0,130,130,137,1,0_targ_4_dist_green/trial13.png,,,0,4,greenverival,a,81,37,Female ,2021-03-02_13h01.47.910,exp11,2020.2.6,Win32,60,,,,,,,,,,,
,,,,,,,,,,,,,,a,1,1.05222,space,0.43419,0,131,131,106,1,0_targ_1_dist_green/trial7.png,,,0,1,greenverival,a,81,37,Female ,2021-03-02_13h01.47.910,exp11,2020.2.6,Win32,60,,,,,,,,,,,
,,,,,,,,,,,,,,p,1,0.77264,space,0.351265,0,132,132,93,1,15_dist_green/trial19.png,,,1,15,greenverival,p,81,37,Female ,2021-03-02_13h01.47.910,exp11,2020.2.6,Win32,60,,,,,,,,,,,
,,,,,,,,,,,,,,a,1,1.2708,space,0.37703,0,133,133,166,1,0_targ_10_dist_green/trial17.png,,,0,10,greenverival,a,81,37,Female ,2021-03-02_13h01.47.910,exp11,2020.2.6,Win32,60,,,,,,,,,,,
,,,,,,,,,,,,,,a,1,1.53015,space,0.365695,0,134,134,161,1,0_targ_10_dist_green/trial12.png,,,0,10,greenverival,a,81,37,Female ,2021-03-02_13h01.47.910,exp11,2020.2.6,Win32,60,,,,,,,,,,,
,,,,,,,,,,,,,,a,1,0.841,space,0.38302,0,135,135,163,1,0_targ_10_dist_green/trial14.png,,,0,10,greenverival,a,81,37,Female ,2021-03-02_13h01.47.910,exp11,2020.2.6,Win32,60,,,,,,,,,,,
,,,,,,,,,,,,,,a,1,1.102375,space,0.428165,0,136,136,192,1,0_targ_16_dist_green/trial18.png,,,0,16,greenverival,a,81,37,Female ,2021-03-02_13h01.47.910,exp11,2020.2.6,Win32,60,,,,,,,,,,,
,,,,,,,,,,,,,,p,1,1.359555,space,0.31945,0,137,137,77,1,15_dist_green/trial3.png,,,1,15,greenverival,p,81,37,Female ,2021-03-02_13h01.47.910,exp11,2020.2.6,Win32,60,,,,,,,,,,,
,,,,,,,,,,,,,,a,1,1.248595,space,0.4593,0,138,138,105,1,0_targ_1_dist_green/trial6.png,,,0,1,greenverival,a,81,37,Female ,2021-03-02_13h01.47.910,exp11,2020.2.6,Win32,60,,,,,,,,,,,
,,,,,,,,,,,,,,a,1,1.8395,space,0.352655,0,139,139,194,1,0_targ_16_dist_green/trial20.png,,,0,16,greenverival,a,81,37,Female ,2021-03-02_13h01.47.910,exp11,2020.2.6,Win32,60,,,,,,,,,,,
,,,,,,,,,,,,,,a,1,1.579705,space,0.399955,0,140,140,181,1,0_targ_16_dist_green/trial7.png,,,0,16,greenverival,a,81,37,Female ,2021-03-02_13h01.47.910,exp11,2020.2.6,Win32,60,,,,,,,,,,,
,,,,,,,,,,,,,,p,1,0.699075,space,0.30062,0,141,141,73,1,9_dist_green/trial24.png,,,1,9,greenverival,p,81,37,Female ,2021-03-02_13h01.47.910,exp11,2020.2.6,Win32,60,,,,,,,,,,,
,,,,,,,,,,,,,,a,1,1.842205,space,0.285695,0,142,142,141,1,0_targ_4_dist_green/trial17.png,,,0,4,greenverival,a,81,37,Female ,2021-03-02_13h01.47.910,exp11,2020.2.6,Win32,60,,,,,,,,,,,
,,,,,,,,,,,,,,a,1,0.81434,space,0.477225,0,143,143,129,1,0_targ_4_dist_green/trial5.png,,,0,4,greenverival,a,81,37,Female ,2021-03-02_13h01.47.910,exp11,2020.2.6,Win32,60,,,,,,,,,,,
,,,,,,,,,,,,,,p,1,0.606785,space,1.314375,0,144,144,15,1,0_dist_green/trial16.png,,,1,0,greenverival,p,81,37,Female ,2021-03-02_13h01.47.910,exp11,2020.2.6,Win32,60,,,,,,,,,,,
,,,,,,,,,,,,,,a,1,1.224745,space,0.315625,0,145,145,147,1,0_targ_4_dist_green/trial23.png,,,0,4,greenverival,a,81,37,Female ,2021-03-02_13h01.47.910,exp11,2020.2.6,Win32,60,,,,,,,,,,,
,,,,,,,,,,,,,,p,1,0.700365,space,0.26152,0,146,146,54,1,9_dist_green/trial5.png,,,1,9,greenverival,p,81,37,Female ,2021-03-02_13h01.47.910,exp11,2020.2.6,Win32,60,,,,,,,,,,,
,,,,,,,,,,,,,,p,1,0.673785,space,0.43209,0,147,147,37,1,3_dist_green/trial13.png,,,1,3,greenverival,p,81,37,Female ,2021-03-02_13h01.47.910,exp11,2020.2.6,Win32,60,,,,,,,,,,,
,,,,,,,,,,,,,,p,1,0.63502,space,0.419485,0,148,148,5,1,0_dist_green/trial6.png,,,1,0,greenverival,p,81,37,Female ,2021-03-02_13h01.47.910,exp11,2020.2.6,Win32,60,,,,,,,,,,,
,,,,,,,,,,,,,,p,1,0.45441,space,0.303165,0,149,149,2,1,0_dist_green/trial3.png,,,1,0,greenverival,p,81,37,Female ,2021-03-02_13h01.47.910,exp11,2020.2.6,Win32,60,,,,,,,,,,,
,,,,,,,,,,,,,,p,1,1.23173,space,0.26765,0,150,150,86,1,15_dist_green/trial12.png,,,1,15,greenverival,p,81,37,Female ,2021-03-02_13h01.47.910,exp11,2020.2.6,Win32,60,,,,,,,,,,,
,,,,,,,,,,,,,,a,1,0.79507,space,0.466115,0,151,151,103,1,0_targ_1_dist_green/trial4.png,,,0,1,greenverival,a,81,37,Female ,2021-03-02_13h01.47.910,exp11,2020.2.6,Win32,60,,,,,,,,,,,
,,,,,,,,,,,,,,a,1,1.00895,space,0.46718,0,152,152,126,1,0_targ_4_dist_green/trial2.png,,,0,4,greenverival,a,81,37,Female ,2021-03-02_13h01.47.910,exp11,2020.2.6,Win32,60,,,,,,,,,,,
,,,,,,,,,,,,,,p,1,0.56625,space,0.340485,0,153,153,13,1,0_dist_green/trial14.png,,,1,0,greenverival,p,81,37,Female ,2021-03-02_13h01.47.910,exp11,2020.2.6,Win32,60,,,,,,,,,,,
,,,,,,,,,,,,,,a,1,1.47108,space,0.360915,0,154,154,171,1,0_targ_10_dist_green/trial22.png,,,0,10,greenverival,a,81,37,Female ,2021-03-02_13h01.47.910,exp11,2020.2.6,Win32,60,,,,,,,,,,,
,,,,,,,,,,,,,,a,1,1.18411,space,0.35842,0,155,155,158,1,0_targ_10_dist_green/trial9.png,,,0,10,greenverival,a,81,37,Female ,2021-03-02_13h01.47.910,exp11,2020.2.6,Win32,60,,,,,,,,,,,
,,,,,,,,,,,,,,a,1,1.16328,space,0.44669,0,156,156,188,1,0_targ_16_dist_green/trial14.png,,,0,16,greenverival,a,81,37,Female ,2021-03-02_13h01.47.910,exp11,2020.2.6,Win32,60,,,,,,,,,,,
,,,,,,,,,,,,,,p,1,0.8864,space,0.452545,0,157,157,94,1,15_dist_green/trial20.png,,,1,15,greenverival,p,81,37,Female ,2021-03-02_13h01.47.910,exp11,2020.2.6,Win32,60,,,,,,,,,,,
,,,,,,,,,,,,,,p,1,0.71636,space,0.360515,0,158,158,98,1,15_dist_green/trial24.png,,,1,15,greenverival,p,81,37,Female ,2021-03-02_13h01.47.910,exp11,2020.2.6,Win32,60,,,,,,,,,,,
,,,,,,,,,,,,,,p,1,0.73553,space,0.351245,0,159,159,35,1,3_dist_green/trial11.png,,,1,3,greenverival,p,81,37,Female ,2021-03-02_13h01.47.910,exp11,2020.2.6,Win32,60,,,,,,,,,,,
,,,,,,,,,,,,,,p,1,0.48324,space,0.37866,0,160,160,9,1,0_dist_green/trial10.png,,,1,0,greenverival,p,81,37,Female ,2021-03-02_13h01.47.910,exp11,2020.2.6,Win32,60,,,,,,,,,,,
,,,,,,,,,,,,,,a,1,0.89865,space,0.27257,0,161,161,100,1,0_targ_1_dist_green/trial1.png,,,0,1,greenverival,a,81,37,Female ,2021-03-02_13h01.47.910,exp11,2020.2.6,Win32,60,,,,,,,,,,,
,,,,,,,,,,,,,,a,1,1.83142,space,0.28636,0,162,162,167,1,0_targ_10_dist_green/trial18.png,,,0,10,greenverival,a,81,37,Female ,2021-03-02_13h01.47.910,exp11,2020.2.6,Win32,60,,,,,,,,,,,
,,,,,,,,,,,,,,a,1,0.659215,space,0.45876,0,163,163,104,1,0_targ_1_dist_green/trial5.png,,,0,1,greenverival,a,81,37,Female ,2021-03-02_13h01.47.910,exp11,2020.2.6,Win32,60,,,,,,,,,,,
,,,,,,,,,,,,,,p,1,0.70104,space,0.267005,0,164,164,41,1,3_dist_green/trial17.png,,,1,3,greenverival,p,81,37,Female ,2021-03-02_13h01.47.910,exp11,2020.2.6,Win32,60,,,,,,,,,,,
,,,,,,,,,,,,,,p,1,1.149055,space,0.414195,0,165,165,96,1,15_dist_green/trial22.png,,,1,15,greenverival,p,81,37,Female ,2021-03-02_13h01.47.910,exp11,2020.2.6,Win32,60,,,,,,,,,,,
,,,,,,,,,,,,,,a,1,1.086425,space,0.4166,0,166,166,173,1,0_targ_10_dist_green/trial24.png,,,0,10,greenverival,a,81,37,Female ,2021-03-02_13h01.47.910,exp11,2020.2.6,Win32,60,,,,,,,,,,,
,,,,,,,,,,,,,,a,1,1.0971,space,0.241925,0,167,167,160,1,0_targ_10_dist_green/trial11.png,,,0,10,greenverival,a,81,37,Female ,2021-03-02_13h01.47.910,exp11,2020.2.6,Win32,60,,,,,,,,,,,
,,,,,,,,,,,,,,a,1,0.711435,space,0.54078,0,168,168,119,1,0_targ_1_dist_green/trial20.png,,,0,1,greenverival,a,81,37,Female ,2021-03-02_13h01.47.910,exp11,2020.2.6,Win32,60,,,,,,,,,,,
,,,,,,,,,,,,,,a,1,1.28022,space,0.317035,0,169,169,156,1,0_targ_10_dist_green/trial7.png,,,0,10,greenverival,a,81,37,Female ,2021-03-02_13h01.47.910,exp11,2020.2.6,Win32,60,,,,,,,,,,,
,,,,,,,,,,,,,,a,1,0.991215,space,0.50027,0,170,170,136,1,0_targ_4_dist_green/trial12.png,,,0,4,greenverival,a,81,37,Female ,2021-03-02_13h01.47.910,exp11,2020.2.6,Win32,60,,,,,,,,,,,
,,,,,,,,,,,,,,p,1,0.57225,space,0.29682,0,171,171,11,1,0_dist_green/trial12.png,,,1,0,greenverival,p,81,37,Female ,2021-03-02_13h01.47.910,exp11,2020.2.6,Win32,60,,,,,,,,,,,
,,,,,,,,,,,,,,a,1,0.993845,space,0.577,0,172,172,123,1,0_targ_1_dist_green/trial24.png,,,0,1,greenverival,a,81,37,Female ,2021-03-02_13h01.47.910,exp11,2020.2.6,Win32,60,,,,,,,,,,,
,,,,,,,,,,,,,,a,1,1.635335,space,0.391075,0,173,173,182,1,0_targ_16_dist_green/trial8.png,,,0,16,greenverival,a,81,37,Female ,2021-03-02_13h01.47.910,exp11,2020.2.6,Win32,60,,,,,,,,,,,
,,,,,,,,,,,,,,a,1,0.794765,space,0.53778,0,174,174,130,1,0_targ_4_dist_green/trial6.png,,,0,4,greenverival,a,81,37,Female ,2021-03-02_13h01.47.910,exp11,2020.2.6,Win32,60,,,,,,,,,,,
,,,,,,,,,,,,,,p,1,0.571255,space,0.304475,0,175,175,36,1,3_dist_green/trial12.png,,,1,3,greenverival,p,81,37,Female ,2021-03-02_13h01.47.910,exp11,2020.2.6,Win32,60,,,,,,,,,,,
,,,,,,,,,,,,,,a,1,0.83993,space,0.32415,0,176,176,148,1,0_targ_4_dist_green/trial24.png,,,0,4,greenverival,a,81,37,Female ,2021-03-02_13h01.47.910,exp11,2020.2.6,Win32,60,,,,,,,,,,,
,,,,,,,,,,,,,,a,1,0.75295,space,0.366955,0,177,177,118,1,0_targ_1_dist_green/trial19.png,,,0,1,greenverival,a,81,37,Female ,2021-03-02_13h01.47.910,exp11,2020.2.6,Win32,60,,,,,,,,,,,
,,,,,,,,,,,,,,a,1,0.492055,space,0.411575,0,178,178,124,1,0_targ_1_dist_green/trial25.png,,,0,1,greenverival,a,81,37,Female ,2021-03-02_13h01.47.910,exp11,2020.2.6,Win32,60,,,,,,,,,,,
,,,,,,,,,,,,,,p,1,0.726,space,0.25537,0,179,179,52,1,9_dist_green/trial3.png,,,1,9,greenverival,p,81,37,Female ,2021-03-02_13h01.47.910,exp11,2020.2.6,Win32,60,,,,,,,,,,,
,,,,,,,,,,,,,,p,1,0.980825,space,0.433355,0,180,180,99,1,15_dist_green/trial25.png,,,1,15,greenverival,p,81,37,Female ,2021-03-02_13h01.47.910,exp11,2020.2.6,Win32,60,,,,,,,,,,,
,,,,,,,,,,,,,,a,1,1.79921,space,0.491395,0,181,181,199,1,0_targ_16_dist_green/trial25.png,,,0,16,greenverival,a,81,37,Female ,2021-03-02_13h01.47.910,exp11,2020.2.6,Win32,60,,,,,,,,,,,
,,,,,,,,,,,,,,a,1,0.54935,space,0.383265,0,182,182,109,1,0_targ_1_dist_green/trial10.png,,,0,1,greenverival,a,81,37,Female ,2021-03-02_13h01.47.910,exp11,2020.2.6,Win32,60,,,,,,,,,,,
,,,,,,,,,,,,,,a,1,0.98468,space,0.387465,0,183,183,165,1,0_targ_10_dist_green/trial16.png,,,0,10,greenverival,a,81,37,Female ,2021-03-02_13h01.47.910,exp11,2020.2.6,Win32,60,,,,,,,,,,,
,,,,,,,,,,,,,,a,1,1.285825,space,0.34933,0,184,184,169,1,0_targ_10_dist_green/trial20.png,,,0,10,greenverival,a,81,37,Female ,2021-03-02_13h01.47.910,exp11,2020.2.6,Win32,60,,,,,,,,,,,
,,,,,,,,,,,,,,p,1,0.637325,space,0.32173,0,185,185,29,1,3_dist_green/trial5.png,,,1,3,greenverival,p,81,37,Female ,2021-03-02_13h01.47.910,exp11,2020.2.6,Win32,60,,,,,,,,,,,
,,,,,,,,,,,,,,a,1,1.25051,space,0.365845,0,186,186,134,1,0_targ_4_dist_green/trial10.png,,,0,4,greenverival,a,81,37,Female ,2021-03-02_13h01.47.910,exp11,2020.2.6,Win32,60,,,,,,,,,,,
,,,,,,,,,,,,,,a,1,0.897525,space,0.312555,0,187,187,127,1,0_targ_4_dist_green/trial3.png,,,0,4,greenverival,a,81,37,Female ,2021-03-02_13h01.47.910,exp11,2020.2.6,Win32,60,,,,,,,,,,,
,,,,,,,,,,,,,,p,1,0.7652,space,0.4188,0,188,188,31,1,3_dist_green/trial7.png,,,1,3,greenverival,p,81,37,Female ,2021-03-02_13h01.47.910,exp11,2020.2.6,Win32,60,,,,,,,,,,,
,,,,,,,,,,,,,,a,1,1.9687,space,0.37319,0,189,189,183,1,0_targ_16_dist_green/trial9.png,,,0,16,greenverival,a,81,37,Female ,2021-03-02_13h01.47.910,exp11,2020.2.6,Win32,60,,,,,,,,,,,
,,,,,,,,,,,,,,a,1,1.05637,space,0.27273,0,190,190,114,1,0_targ_1_dist_green/trial15.png,,,0,1,greenverival,a,81,37,Female ,2021-03-02_13h01.47.910,exp11,2020.2.6,Win32,60,,,,,,,,,,,
,,,,,,,,,,,,,,p,1,0.61274,space,0.25723,0,191,191,33,1,3_dist_green/trial9.png,,,1,3,greenverival,p,81,37,Female ,2021-03-02_13h01.47.910,exp11,2020.2.6,Win32,60,,,,,,,,,,,
,,,,,,,,,,,,,,a,1,0.840765,space,0.31662,0,192,192,149,1,0_targ_4_dist_green/trial25.png,,,0,4,greenverival,a,81,37,Female ,2021-03-02_13h01.47.910,exp11,2020.2.6,Win32,60,,,,,,,,,,,
,,,,,,,,,,,,,,p,1,0.67531,space,0.285925,0,193,193,82,1,15_dist_green/trial8.png,,,1,15,greenverival,p,81,37,Female ,2021-03-02_13h01.47.910,exp11,2020.2.6,Win32,60,,,,,,,,,,,
,,,,,,,,,,,,,,a,1,1.38158,space,0.36753,0,194,194,154,1,0_targ_10_dist_green/trial5.png,,,0,10,greenverival,a,81,37,Female ,2021-03-02_13h01.47.910,exp11,2020.2.6,Win32,60,,,,,,,,,,,
,,,,,,,,,,,,,,a,1,1.180595,space,0.452515,0,195,195,159,1,0_targ_10_dist_green/trial10.png,,,0,10,greenverival,a,81,37,Female ,2021-03-02_13h01.47.910,exp11,2020.2.6,Win32,60,,,,,,,,,,,
,,,,,,,,,,,,,,a,1,1.632045,space,0.333795,0,196,196,193,1,0_targ_16_dist_green/trial19.png,,,0,16,greenverival,a,81,37,Female ,2021-03-02_13h01.47.910,exp11,2020.2.6,Win32,60,,,,,,,,,,,
,,,,,,,,,,,,,,p,1,0.536975,space,0.30905,0,197,197,67,1,9_dist_green/trial18.png,,,1,9,greenverival,p,81,37,Female ,2021-03-02_13h01.47.910,exp11,2020.2.6,Win32,60,,,,,,,,,,,
,,,,,,,,,,,,,,a,1,0.75641,space,0.386395,0,198,198,133,1,0_targ_4_dist_green/trial9.png,,,0,4,greenverival,a,81,37,Female ,2021-03-02_13h01.47.910,exp11,2020.2.6,Win32,60,,,,,,,,,,,
,,,,,,,,,,,,,,p,1,0.6542,space,0.333965,0,199,199,7,1,0_dist_green/trial8.png,,,1,0,greenverival,p,81,37,Female ,2021-03-02_13h01.47.910,exp11,2020.2.6,Win32,60,,,,,,,,,,,
,,,,,,,,,,,,,,,,,,,,,,,,,,,,,,,81,37,Female ,2021-03-02_13h01.47.910,exp11,2020.2.6,Win32,60,0,1,1,0,1,conGreen.xlsx,green vertical,Look for green vertical bar (target) and indicate if it is present or absent in the array. If green vertical target is present press 'p' and if absent press 'a'. Press SPACE to start.,,,
