key_resp_6.keys,key_resp_6.rt,key_resp_7.keys,key_resp_7.rt,key_resp_8.keys,key_resp_8.rt,key_resp_10.keys,key_resp_10.rt,key_resp_9.keys,key_resp_9.rt,key_resp_3.keys,key_resp_3.rt,key_resp_5.keys,key_resp_5.rt,key_resp.keys,key_resp.corr,key_resp.rt,key_resp_4.keys,key_resp_4.rt,trials.thisRepN,trials.thisTrialN,trials.thisN,trials.thisIndex,trials.ran,ImageFile,tarPos,tarSize,targPres,numDist,targetName,correctAns,participant,age,sex,date,expName,psychopyVersion,OS,frameRate,fbclid,trials_2.thisRepN,trials_2.thisTrialN,trials_2.thisN,trials_2.thisIndex,trials_2.ran,condsFile,targName,instructionText,colTarget,sizeTarg,posit
space,1.877,space,26.252,space,14.584,space,26.674,space,5.988,space,19.662,space,8.937,p,1,1.211,space,1.633,0,0,0,25,1,3_dist_green/trial1.png,,,1,3,greenverival,p,82,23,female,2021-03-02_13h15.41.328,exp11,2020.2.6,MacIntel,60,IwAR3GL60oPAnBkY7WQ984XcOwOfLGElnCJkT7eARhQbioXZf8HO34PhEWrpA,,,,,,,,,,,
,,,,,,,,,,,,,,p,1,0.956,space,0.451,0,1,1,23,1,0_dist_green/trial24.png,,,1,0,greenverival,p,82,23,female,2021-03-02_13h15.41.328,exp11,2020.2.6,MacIntel,60,IwAR3GL60oPAnBkY7WQ984XcOwOfLGElnCJkT7eARhQbioXZf8HO34PhEWrpA,,,,,,,,,,,
,,,,,,,,,,,,,,p,1,0.759,space,0.438,0,2,2,41,1,3_dist_green/trial17.png,,,1,3,greenverival,p,82,23,female,2021-03-02_13h15.41.328,exp11,2020.2.6,MacIntel,60,IwAR3GL60oPAnBkY7WQ984XcOwOfLGElnCJkT7eARhQbioXZf8HO34PhEWrpA,,,,,,,,,,,
,,,,,,,,,,,,,,p,1,0.51,space,0.341,0,3,3,10,1,0_dist_green/trial11.png,,,1,0,greenverival,p,82,23,female,2021-03-02_13h15.41.328,exp11,2020.2.6,MacIntel,60,IwAR3GL60oPAnBkY7WQ984XcOwOfLGElnCJkT7eARhQbioXZf8HO34PhEWrpA,,,,,,,,,,,
,,,,,,,,,,,,,,p,1,1.038,space,0.25,0,4,4,95,1,15_dist_green/trial21.png,,,1,15,greenverival,p,82,23,female,2021-03-02_13h15.41.328,exp11,2020.2.6,MacIntel,60,IwAR3GL60oPAnBkY7WQ984XcOwOfLGElnCJkT7eARhQbioXZf8HO34PhEWrpA,,,,,,,,,,,
,,,,,,,,,,,,,,a,1,1.093,space,0.31,0,5,5,104,1,0_targ_1_dist_green/trial5.png,,,0,1,greenverival,a,82,23,female,2021-03-02_13h15.41.328,exp11,2020.2.6,MacIntel,60,IwAR3GL60oPAnBkY7WQ984XcOwOfLGElnCJkT7eARhQbioXZf8HO34PhEWrpA,,,,,,,,,,,
,,,,,,,,,,,,,,p,1,1.387,space,0.318,0,6,6,81,1,15_dist_green/trial7.png,,,1,15,greenverival,p,82,23,female,2021-03-02_13h15.41.328,exp11,2020.2.6,MacIntel,60,IwAR3GL60oPAnBkY7WQ984XcOwOfLGElnCJkT7eARhQbioXZf8HO34PhEWrpA,,,,,,,,,,,
,,,,,,,,,,,,,,a,1,1.635,space,0.451,0,7,7,137,1,0_targ_4_dist_green/trial13.png,,,0,4,greenverival,a,82,23,female,2021-03-02_13h15.41.328,exp11,2020.2.6,MacIntel,60,IwAR3GL60oPAnBkY7WQ984XcOwOfLGElnCJkT7eARhQbioXZf8HO34PhEWrpA,,,,,,,,,,,
,,,,,,,,,,,,,,a,1,1.444,space,0.514,0,8,8,152,1,0_targ_10_dist_green/trial3.png,,,0,10,greenverival,a,82,23,female,2021-03-02_13h15.41.328,exp11,2020.2.6,MacIntel,60,IwAR3GL60oPAnBkY7WQ984XcOwOfLGElnCJkT7eARhQbioXZf8HO34PhEWrpA,,,,,,,,,,,
,,,,,,,,,,,,,,p,1,0.944,space,0.417,0,9,9,73,1,9_dist_green/trial24.png,,,1,9,greenverival,p,82,23,female,2021-03-02_13h15.41.328,exp11,2020.2.6,MacIntel,60,IwAR3GL60oPAnBkY7WQ984XcOwOfLGElnCJkT7eARhQbioXZf8HO34PhEWrpA,,,,,,,,,,,
,,,,,,,,,,,,,,a,1,0.837,space,0.343,0,10,10,146,1,0_targ_4_dist_green/trial22.png,,,0,4,greenverival,a,82,23,female,2021-03-02_13h15.41.328,exp11,2020.2.6,MacIntel,60,IwAR3GL60oPAnBkY7WQ984XcOwOfLGElnCJkT7eARhQbioXZf8HO34PhEWrpA,,,,,,,,,,,
,,,,,,,,,,,,,,p,1,0.637,space,0.338,0,11,11,47,1,3_dist_green/trial23.png,,,1,3,greenverival,p,82,23,female,2021-03-02_13h15.41.328,exp11,2020.2.6,MacIntel,60,IwAR3GL60oPAnBkY7WQ984XcOwOfLGElnCJkT7eARhQbioXZf8HO34PhEWrpA,,,,,,,,,,,
,,,,,,,,,,,,,,a,1,1.354,space,0.326,0,12,12,164,1,0_targ_10_dist_green/trial15.png,,,0,10,greenverival,a,82,23,female,2021-03-02_13h15.41.328,exp11,2020.2.6,MacIntel,60,IwAR3GL60oPAnBkY7WQ984XcOwOfLGElnCJkT7eARhQbioXZf8HO34PhEWrpA,,,,,,,,,,,
,,,,,,,,,,,,,,p,1,0.857,space,0.238,0,13,13,32,1,3_dist_green/trial8.png,,,1,3,greenverival,p,82,23,female,2021-03-02_13h15.41.328,exp11,2020.2.6,MacIntel,60,IwAR3GL60oPAnBkY7WQ984XcOwOfLGElnCJkT7eARhQbioXZf8HO34PhEWrpA,,,,,,,,,,,
,,,,,,,,,,,,,,a,1,1.028,space,0.243,0,14,14,151,1,0_targ_10_dist_green/trial2.png,,,0,10,greenverival,a,82,23,female,2021-03-02_13h15.41.328,exp11,2020.2.6,MacIntel,60,IwAR3GL60oPAnBkY7WQ984XcOwOfLGElnCJkT7eARhQbioXZf8HO34PhEWrpA,,,,,,,,,,,
,,,,,,,,,,,,,,a,1,1.197,space,0.237,0,15,15,187,1,0_targ_16_dist_green/trial13.png,,,0,16,greenverival,a,82,23,female,2021-03-02_13h15.41.328,exp11,2020.2.6,MacIntel,60,IwAR3GL60oPAnBkY7WQ984XcOwOfLGElnCJkT7eARhQbioXZf8HO34PhEWrpA,,,,,,,,,,,
,,,,,,,,,,,,,,a,1,1.898,space,0.25,0,16,16,184,1,0_targ_16_dist_green/trial10.png,,,0,16,greenverival,a,82,23,female,2021-03-02_13h15.41.328,exp11,2020.2.6,MacIntel,60,IwAR3GL60oPAnBkY7WQ984XcOwOfLGElnCJkT7eARhQbioXZf8HO34PhEWrpA,,,,,,,,,,,
,,,,,,,,,,,,,,p,1,0.762,space,0.255,0,17,17,44,1,3_dist_green/trial20.png,,,1,3,greenverival,p,82,23,female,2021-03-02_13h15.41.328,exp11,2020.2.6,MacIntel,60,IwAR3GL60oPAnBkY7WQ984XcOwOfLGElnCJkT7eARhQbioXZf8HO34PhEWrpA,,,,,,,,,,,
,,,,,,,,,,,,,,a,1,1.279,space,0.239,0,18,18,120,1,0_targ_1_dist_green/trial21.png,,,0,1,greenverival,a,82,23,female,2021-03-02_13h15.41.328,exp11,2020.2.6,MacIntel,60,IwAR3GL60oPAnBkY7WQ984XcOwOfLGElnCJkT7eARhQbioXZf8HO34PhEWrpA,,,,,,,,,,,
,,,,,,,,,,,,,,a,1,0.785,space,0.243,0,19,19,108,1,0_targ_1_dist_green/trial9.png,,,0,1,greenverival,a,82,23,female,2021-03-02_13h15.41.328,exp11,2020.2.6,MacIntel,60,IwAR3GL60oPAnBkY7WQ984XcOwOfLGElnCJkT7eARhQbioXZf8HO34PhEWrpA,,,,,,,,,,,
,,,,,,,,,,,,,,a,0,0.586,space,1.672,0,20,20,11,1,0_dist_green/trial12.png,,,1,0,greenverival,p,82,23,female,2021-03-02_13h15.41.328,exp11,2020.2.6,MacIntel,60,IwAR3GL60oPAnBkY7WQ984XcOwOfLGElnCJkT7eARhQbioXZf8HO34PhEWrpA,,,,,,,,,,,
,,,,,,,,,,,,,,a,1,2.929,space,1.205,0,21,21,171,1,0_targ_10_dist_green/trial22.png,,,0,10,greenverival,a,82,23,female,2021-03-02_13h15.41.328,exp11,2020.2.6,MacIntel,60,IwAR3GL60oPAnBkY7WQ984XcOwOfLGElnCJkT7eARhQbioXZf8HO34PhEWrpA,,,,,,,,,,,
,,,,,,,,,,,,,,p,1,0.911,space,0.292,0,22,22,99,1,15_dist_green/trial25.png,,,1,15,greenverival,p,82,23,female,2021-03-02_13h15.41.328,exp11,2020.2.6,MacIntel,60,IwAR3GL60oPAnBkY7WQ984XcOwOfLGElnCJkT7eARhQbioXZf8HO34PhEWrpA,,,,,,,,,,,
,,,,,,,,,,,,,,p,1,0.676,space,0.201,0,23,23,16,1,0_dist_green/trial17.png,,,1,0,greenverival,p,82,23,female,2021-03-02_13h15.41.328,exp11,2020.2.6,MacIntel,60,IwAR3GL60oPAnBkY7WQ984XcOwOfLGElnCJkT7eARhQbioXZf8HO34PhEWrpA,,,,,,,,,,,
,,,,,,,,,,,,,,p,1,0.71,space,0.235,0,24,24,50,1,9_dist_green/trial1.png,,,1,9,greenverival,p,82,23,female,2021-03-02_13h15.41.328,exp11,2020.2.6,MacIntel,60,IwAR3GL60oPAnBkY7WQ984XcOwOfLGElnCJkT7eARhQbioXZf8HO34PhEWrpA,,,,,,,,,,,
,,,,,,,,,,,,,,a,1,0.887,space,0.365,0,25,25,198,1,0_targ_16_dist_green/trial24.png,,,0,16,greenverival,a,82,23,female,2021-03-02_13h15.41.328,exp11,2020.2.6,MacIntel,60,IwAR3GL60oPAnBkY7WQ984XcOwOfLGElnCJkT7eARhQbioXZf8HO34PhEWrpA,,,,,,,,,,,
,,,,,,,,,,,,,,p,1,0.737,space,0.416,0,26,26,29,1,3_dist_green/trial5.png,,,1,3,greenverival,p,82,23,female,2021-03-02_13h15.41.328,exp11,2020.2.6,MacIntel,60,IwAR3GL60oPAnBkY7WQ984XcOwOfLGElnCJkT7eARhQbioXZf8HO34PhEWrpA,,,,,,,,,,,
,,,,,,,,,,,,,,p,1,1.71,space,0.216,0,27,27,54,1,9_dist_green/trial5.png,,,1,9,greenverival,p,82,23,female,2021-03-02_13h15.41.328,exp11,2020.2.6,MacIntel,60,IwAR3GL60oPAnBkY7WQ984XcOwOfLGElnCJkT7eARhQbioXZf8HO34PhEWrpA,,,,,,,,,,,
,,,,,,,,,,,,,,p,1,1.043,space,0.236,0,28,28,36,1,3_dist_green/trial12.png,,,1,3,greenverival,p,82,23,female,2021-03-02_13h15.41.328,exp11,2020.2.6,MacIntel,60,IwAR3GL60oPAnBkY7WQ984XcOwOfLGElnCJkT7eARhQbioXZf8HO34PhEWrpA,,,,,,,,,,,
,,,,,,,,,,,,,,a,1,0.73,space,0.294,0,29,29,110,1,0_targ_1_dist_green/trial11.png,,,0,1,greenverival,a,82,23,female,2021-03-02_13h15.41.328,exp11,2020.2.6,MacIntel,60,IwAR3GL60oPAnBkY7WQ984XcOwOfLGElnCJkT7eARhQbioXZf8HO34PhEWrpA,,,,,,,,,,,
,,,,,,,,,,,,,,a,1,1.386,space,0.254,0,30,30,178,1,0_targ_16_dist_green/trial4.png,,,0,16,greenverival,a,82,23,female,2021-03-02_13h15.41.328,exp11,2020.2.6,MacIntel,60,IwAR3GL60oPAnBkY7WQ984XcOwOfLGElnCJkT7eARhQbioXZf8HO34PhEWrpA,,,,,,,,,,,
,,,,,,,,,,,,,,a,0,0.899,space,8.177,0,31,31,7,1,0_dist_green/trial8.png,,,1,0,greenverival,p,82,23,female,2021-03-02_13h15.41.328,exp11,2020.2.6,MacIntel,60,IwAR3GL60oPAnBkY7WQ984XcOwOfLGElnCJkT7eARhQbioXZf8HO34PhEWrpA,,,,,,,,,,,
,,,,,,,,,,,,,,a,1,1.306,space,0.499,0,32,32,180,1,0_targ_16_dist_green/trial6.png,,,0,16,greenverival,a,82,23,female,2021-03-02_13h15.41.328,exp11,2020.2.6,MacIntel,60,IwAR3GL60oPAnBkY7WQ984XcOwOfLGElnCJkT7eARhQbioXZf8HO34PhEWrpA,,,,,,,,,,,
,,,,,,,,,,,,,,p,1,0.704,space,0.287,0,33,33,45,1,3_dist_green/trial21.png,,,1,3,greenverival,p,82,23,female,2021-03-02_13h15.41.328,exp11,2020.2.6,MacIntel,60,IwAR3GL60oPAnBkY7WQ984XcOwOfLGElnCJkT7eARhQbioXZf8HO34PhEWrpA,,,,,,,,,,,
,,,,,,,,,,,,,,a,1,1.041,space,0.275,0,34,34,166,1,0_targ_10_dist_green/trial17.png,,,0,10,greenverival,a,82,23,female,2021-03-02_13h15.41.328,exp11,2020.2.6,MacIntel,60,IwAR3GL60oPAnBkY7WQ984XcOwOfLGElnCJkT7eARhQbioXZf8HO34PhEWrpA,,,,,,,,,,,
,,,,,,,,,,,,,,a,1,0.735,space,0.236,0,35,35,113,1,0_targ_1_dist_green/trial14.png,,,0,1,greenverival,a,82,23,female,2021-03-02_13h15.41.328,exp11,2020.2.6,MacIntel,60,IwAR3GL60oPAnBkY7WQ984XcOwOfLGElnCJkT7eARhQbioXZf8HO34PhEWrpA,,,,,,,,,,,
,,,,,,,,,,,,,,a,0,0.538,space,0.417,0,36,36,5,1,0_dist_green/trial6.png,,,1,0,greenverival,p,82,23,female,2021-03-02_13h15.41.328,exp11,2020.2.6,MacIntel,60,IwAR3GL60oPAnBkY7WQ984XcOwOfLGElnCJkT7eARhQbioXZf8HO34PhEWrpA,,,,,,,,,,,
,,,,,,,,,,,,,,p,0,0.071,space,0.844,0,37,37,179,1,0_targ_16_dist_green/trial5.png,,,0,16,greenverival,a,82,23,female,2021-03-02_13h15.41.328,exp11,2020.2.6,MacIntel,60,IwAR3GL60oPAnBkY7WQ984XcOwOfLGElnCJkT7eARhQbioXZf8HO34PhEWrpA,,,,,,,,,,,
,,,,,,,,,,,,,,p,1,1.096,space,0.283,0,38,38,63,1,9_dist_green/trial14.png,,,1,9,greenverival,p,82,23,female,2021-03-02_13h15.41.328,exp11,2020.2.6,MacIntel,60,IwAR3GL60oPAnBkY7WQ984XcOwOfLGElnCJkT7eARhQbioXZf8HO34PhEWrpA,,,,,,,,,,,
,,,,,,,,,,,,,,p,1,0.54,space,0.284,0,39,39,14,1,0_dist_green/trial15.png,,,1,0,greenverival,p,82,23,female,2021-03-02_13h15.41.328,exp11,2020.2.6,MacIntel,60,IwAR3GL60oPAnBkY7WQ984XcOwOfLGElnCJkT7eARhQbioXZf8HO34PhEWrpA,,,,,,,,,,,
,,,,,,,,,,,,,,p,1,1.094,space,0.197,0,40,40,59,1,9_dist_green/trial10.png,,,1,9,greenverival,p,82,23,female,2021-03-02_13h15.41.328,exp11,2020.2.6,MacIntel,60,IwAR3GL60oPAnBkY7WQ984XcOwOfLGElnCJkT7eARhQbioXZf8HO34PhEWrpA,,,,,,,,,,,
,,,,,,,,,,,,,,p,1,0.876,space,0.25,0,41,41,58,1,9_dist_green/trial9.png,,,1,9,greenverival,p,82,23,female,2021-03-02_13h15.41.328,exp11,2020.2.6,MacIntel,60,IwAR3GL60oPAnBkY7WQ984XcOwOfLGElnCJkT7eARhQbioXZf8HO34PhEWrpA,,,,,,,,,,,
,,,,,,,,,,,,,,a,1,1.626,space,0.403,0,42,42,181,1,0_targ_16_dist_green/trial7.png,,,0,16,greenverival,a,82,23,female,2021-03-02_13h15.41.328,exp11,2020.2.6,MacIntel,60,IwAR3GL60oPAnBkY7WQ984XcOwOfLGElnCJkT7eARhQbioXZf8HO34PhEWrpA,,,,,,,,,,,
,,,,,,,,,,,,,,p,1,1.243,space,0.166,0,43,43,90,1,15_dist_green/trial16.png,,,1,15,greenverival,p,82,23,female,2021-03-02_13h15.41.328,exp11,2020.2.6,MacIntel,60,IwAR3GL60oPAnBkY7WQ984XcOwOfLGElnCJkT7eARhQbioXZf8HO34PhEWrpA,,,,,,,,,,,
,,,,,,,,,,,,,,p,1,0.702,space,0.15,0,44,44,71,1,9_dist_green/trial22.png,,,1,9,greenverival,p,82,23,female,2021-03-02_13h15.41.328,exp11,2020.2.6,MacIntel,60,IwAR3GL60oPAnBkY7WQ984XcOwOfLGElnCJkT7eARhQbioXZf8HO34PhEWrpA,,,,,,,,,,,
,,,,,,,,,,,,,,p,1,0.725,space,0.169,0,45,45,56,1,9_dist_green/trial7.png,,,1,9,greenverival,p,82,23,female,2021-03-02_13h15.41.328,exp11,2020.2.6,MacIntel,60,IwAR3GL60oPAnBkY7WQ984XcOwOfLGElnCJkT7eARhQbioXZf8HO34PhEWrpA,,,,,,,,,,,
,,,,,,,,,,,,,,p,1,0.433,space,0.292,0,46,46,21,1,0_dist_green/trial22.png,,,1,0,greenverival,p,82,23,female,2021-03-02_13h15.41.328,exp11,2020.2.6,MacIntel,60,IwAR3GL60oPAnBkY7WQ984XcOwOfLGElnCJkT7eARhQbioXZf8HO34PhEWrpA,,,,,,,,,,,
,,,,,,,,,,,,,,a,1,0.74,space,0.238,0,47,47,115,1,0_targ_1_dist_green/trial6.png,,,0,1,greenverival,a,82,23,female,2021-03-02_13h15.41.328,exp11,2020.2.6,MacIntel,60,IwAR3GL60oPAnBkY7WQ984XcOwOfLGElnCJkT7eARhQbioXZf8HO34PhEWrpA,,,,,,,,,,,
,,,,,,,,,,,,,,a,1,0.401,space,0.244,0,48,48,106,1,0_targ_1_dist_green/trial7.png,,,0,1,greenverival,a,82,23,female,2021-03-02_13h15.41.328,exp11,2020.2.6,MacIntel,60,IwAR3GL60oPAnBkY7WQ984XcOwOfLGElnCJkT7eARhQbioXZf8HO34PhEWrpA,,,,,,,,,,,
,,,,,,,,,,,,,,a,1,1.568,space,0.268,0,49,49,192,1,0_targ_16_dist_green/trial18.png,,,0,16,greenverival,a,82,23,female,2021-03-02_13h15.41.328,exp11,2020.2.6,MacIntel,60,IwAR3GL60oPAnBkY7WQ984XcOwOfLGElnCJkT7eARhQbioXZf8HO34PhEWrpA,,,,,,,,,,,
,,,,,,,,,,,,,,a,1,0.888,space,0.206,0,50,50,189,1,0_targ_16_dist_green/trial15.png,,,0,16,greenverival,a,82,23,female,2021-03-02_13h15.41.328,exp11,2020.2.6,MacIntel,60,IwAR3GL60oPAnBkY7WQ984XcOwOfLGElnCJkT7eARhQbioXZf8HO34PhEWrpA,,,,,,,,,,,
,,,,,,,,,,,,,,p,1,0.81,space,0.199,0,51,51,6,1,0_dist_green/trial7.png,,,1,0,greenverival,p,82,23,female,2021-03-02_13h15.41.328,exp11,2020.2.6,MacIntel,60,IwAR3GL60oPAnBkY7WQ984XcOwOfLGElnCJkT7eARhQbioXZf8HO34PhEWrpA,,,,,,,,,,,
,,,,,,,,,,,,,,p,1,0.631,space,0.19,0,52,52,96,1,15_dist_green/trial22.png,,,1,15,greenverival,p,82,23,female,2021-03-02_13h15.41.328,exp11,2020.2.6,MacIntel,60,IwAR3GL60oPAnBkY7WQ984XcOwOfLGElnCJkT7eARhQbioXZf8HO34PhEWrpA,,,,,,,,,,,
,,,,,,,,,,,,,,a,1,1.044,space,0.212,0,53,53,186,1,0_targ_16_dist_green/trial12.png,,,0,16,greenverival,a,82,23,female,2021-03-02_13h15.41.328,exp11,2020.2.6,MacIntel,60,IwAR3GL60oPAnBkY7WQ984XcOwOfLGElnCJkT7eARhQbioXZf8HO34PhEWrpA,,,,,,,,,,,
,,,,,,,,,,,,,,p,1,0.607,space,0.166,0,54,54,12,1,0_dist_green/trial13.png,,,1,0,greenverival,p,82,23,female,2021-03-02_13h15.41.328,exp11,2020.2.6,MacIntel,60,IwAR3GL60oPAnBkY7WQ984XcOwOfLGElnCJkT7eARhQbioXZf8HO34PhEWrpA,,,,,,,,,,,
,,,,,,,,,,,,,,a,1,0.675,space,0.229,0,55,55,161,1,0_targ_10_dist_green/trial12.png,,,0,10,greenverival,a,82,23,female,2021-03-02_13h15.41.328,exp11,2020.2.6,MacIntel,60,IwAR3GL60oPAnBkY7WQ984XcOwOfLGElnCJkT7eARhQbioXZf8HO34PhEWrpA,,,,,,,,,,,
,,,,,,,,,,,,,,p,1,0.684,space,0.505,0,56,56,67,1,9_dist_green/trial18.png,,,1,9,greenverival,p,82,23,female,2021-03-02_13h15.41.328,exp11,2020.2.6,MacIntel,60,IwAR3GL60oPAnBkY7WQ984XcOwOfLGElnCJkT7eARhQbioXZf8HO34PhEWrpA,,,,,,,,,,,
,,,,,,,,,,,,,,a,1,0.762,space,0.193,0,57,57,143,1,0_targ_4_dist_green/trial19.png,,,0,4,greenverival,a,82,23,female,2021-03-02_13h15.41.328,exp11,2020.2.6,MacIntel,60,IwAR3GL60oPAnBkY7WQ984XcOwOfLGElnCJkT7eARhQbioXZf8HO34PhEWrpA,,,,,,,,,,,
,,,,,,,,,,,,,,a,1,0.699,space,0.191,0,58,58,142,1,0_targ_4_dist_green/trial18.png,,,0,4,greenverival,a,82,23,female,2021-03-02_13h15.41.328,exp11,2020.2.6,MacIntel,60,IwAR3GL60oPAnBkY7WQ984XcOwOfLGElnCJkT7eARhQbioXZf8HO34PhEWrpA,,,,,,,,,,,
,,,,,,,,,,,,,,p,1,0.891,space,0.204,0,59,59,84,1,15_dist_green/trial10.png,,,1,15,greenverival,p,82,23,female,2021-03-02_13h15.41.328,exp11,2020.2.6,MacIntel,60,IwAR3GL60oPAnBkY7WQ984XcOwOfLGElnCJkT7eARhQbioXZf8HO34PhEWrpA,,,,,,,,,,,
,,,,,,,,,,,,,,p,1,0.802,space,0.212,0,60,60,60,1,9_dist_green/trial11.png,,,1,9,greenverival,p,82,23,female,2021-03-02_13h15.41.328,exp11,2020.2.6,MacIntel,60,IwAR3GL60oPAnBkY7WQ984XcOwOfLGElnCJkT7eARhQbioXZf8HO34PhEWrpA,,,,,,,,,,,
,,,,,,,,,,,,,,a,1,0.687,space,0.205,0,61,61,176,1,0_targ_16_dist_green/trial2.png,,,0,16,greenverival,a,82,23,female,2021-03-02_13h15.41.328,exp11,2020.2.6,MacIntel,60,IwAR3GL60oPAnBkY7WQ984XcOwOfLGElnCJkT7eARhQbioXZf8HO34PhEWrpA,,,,,,,,,,,
,,,,,,,,,,,,,,a,0,0.569,space,0.383,0,62,62,34,1,3_dist_green/trial10.png,,,1,3,greenverival,p,82,23,female,2021-03-02_13h15.41.328,exp11,2020.2.6,MacIntel,60,IwAR3GL60oPAnBkY7WQ984XcOwOfLGElnCJkT7eARhQbioXZf8HO34PhEWrpA,,,,,,,,,,,
,,,,,,,,,,,,,,p,1,0.821,space,0.133,0,63,63,40,1,3_dist_green/trial16.png,,,1,3,greenverival,p,82,23,female,2021-03-02_13h15.41.328,exp11,2020.2.6,MacIntel,60,IwAR3GL60oPAnBkY7WQ984XcOwOfLGElnCJkT7eARhQbioXZf8HO34PhEWrpA,,,,,,,,,,,
,,,,,,,,,,,,,,a,1,0.649,space,0.103,0,64,64,126,1,0_targ_4_dist_green/trial2.png,,,0,4,greenverival,a,82,23,female,2021-03-02_13h15.41.328,exp11,2020.2.6,MacIntel,60,IwAR3GL60oPAnBkY7WQ984XcOwOfLGElnCJkT7eARhQbioXZf8HO34PhEWrpA,,,,,,,,,,,
,,,,,,,,,,,,,,a,1,0.752,space,0.125,0,65,65,163,1,0_targ_10_dist_green/trial14.png,,,0,10,greenverival,a,82,23,female,2021-03-02_13h15.41.328,exp11,2020.2.6,MacIntel,60,IwAR3GL60oPAnBkY7WQ984XcOwOfLGElnCJkT7eARhQbioXZf8HO34PhEWrpA,,,,,,,,,,,
,,,,,,,,,,,,,,p,1,0.77,space,0.192,0,66,66,88,1,15_dist_green/trial14.png,,,1,15,greenverival,p,82,23,female,2021-03-02_13h15.41.328,exp11,2020.2.6,MacIntel,60,IwAR3GL60oPAnBkY7WQ984XcOwOfLGElnCJkT7eARhQbioXZf8HO34PhEWrpA,,,,,,,,,,,
,,,,,,,,,,,,,,p,1,0.687,space,0.116,0,67,67,85,1,15_dist_green/trial11.png,,,1,15,greenverival,p,82,23,female,2021-03-02_13h15.41.328,exp11,2020.2.6,MacIntel,60,IwAR3GL60oPAnBkY7WQ984XcOwOfLGElnCJkT7eARhQbioXZf8HO34PhEWrpA,,,,,,,,,,,
,,,,,,,,,,,,,,a,1,0.781,space,0.152,0,68,68,167,1,0_targ_10_dist_green/trial18.png,,,0,10,greenverival,a,82,23,female,2021-03-02_13h15.41.328,exp11,2020.2.6,MacIntel,60,IwAR3GL60oPAnBkY7WQ984XcOwOfLGElnCJkT7eARhQbioXZf8HO34PhEWrpA,,,,,,,,,,,
,,,,,,,,,,,,,,a,1,0.727,space,0.135,0,69,69,185,1,0_targ_16_dist_green/trial11.png,,,0,16,greenverival,a,82,23,female,2021-03-02_13h15.41.328,exp11,2020.2.6,MacIntel,60,IwAR3GL60oPAnBkY7WQ984XcOwOfLGElnCJkT7eARhQbioXZf8HO34PhEWrpA,,,,,,,,,,,
,,,,,,,,,,,,,,p,1,0.635,space,0.123,0,70,70,55,1,9_dist_green/trial6.png,,,1,9,greenverival,p,82,23,female,2021-03-02_13h15.41.328,exp11,2020.2.6,MacIntel,60,IwAR3GL60oPAnBkY7WQ984XcOwOfLGElnCJkT7eARhQbioXZf8HO34PhEWrpA,,,,,,,,,,,
,,,,,,,,,,,,,,a,0,0.715,space,2.334,0,71,71,80,1,15_dist_green/trial6.png,,,1,15,greenverival,p,82,23,female,2021-03-02_13h15.41.328,exp11,2020.2.6,MacIntel,60,IwAR3GL60oPAnBkY7WQ984XcOwOfLGElnCJkT7eARhQbioXZf8HO34PhEWrpA,,,,,,,,,,,
,,,,,,,,,,,,,,p,1,0.711,space,0.124,0,72,72,62,1,9_dist_green/trial13.png,,,1,9,greenverival,p,82,23,female,2021-03-02_13h15.41.328,exp11,2020.2.6,MacIntel,60,IwAR3GL60oPAnBkY7WQ984XcOwOfLGElnCJkT7eARhQbioXZf8HO34PhEWrpA,,,,,,,,,,,
,,,,,,,,,,,,,,a,1,0.944,space,0.195,0,73,73,162,1,0_targ_10_dist_green/trial13.png,,,0,10,greenverival,a,82,23,female,2021-03-02_13h15.41.328,exp11,2020.2.6,MacIntel,60,IwAR3GL60oPAnBkY7WQ984XcOwOfLGElnCJkT7eARhQbioXZf8HO34PhEWrpA,,,,,,,,,,,
,,,,,,,,,,,,,,a,0,0.485,space,1.246,0,74,74,0,1,0_dist_green/trial1.png,,,1,0,greenverival,p,82,23,female,2021-03-02_13h15.41.328,exp11,2020.2.6,MacIntel,60,IwAR3GL60oPAnBkY7WQ984XcOwOfLGElnCJkT7eARhQbioXZf8HO34PhEWrpA,,,,,,,,,,,
,,,,,,,,,,,,,,p,1,1.241,space,0.156,0,75,75,83,1,15_dist_green/trial9.png,,,1,15,greenverival,p,82,23,female,2021-03-02_13h15.41.328,exp11,2020.2.6,MacIntel,60,IwAR3GL60oPAnBkY7WQ984XcOwOfLGElnCJkT7eARhQbioXZf8HO34PhEWrpA,,,,,,,,,,,
,,,,,,,,,,,,,,a,1,0.637,space,0.209,0,76,76,107,1,0_targ_1_dist_green/trial8.png,,,0,1,greenverival,a,82,23,female,2021-03-02_13h15.41.328,exp11,2020.2.6,MacIntel,60,IwAR3GL60oPAnBkY7WQ984XcOwOfLGElnCJkT7eARhQbioXZf8HO34PhEWrpA,,,,,,,,,,,
,,,,,,,,,,,,,,p,1,0.736,space,0.146,0,77,77,61,1,9_dist_green/trial12.png,,,1,9,greenverival,p,82,23,female,2021-03-02_13h15.41.328,exp11,2020.2.6,MacIntel,60,IwAR3GL60oPAnBkY7WQ984XcOwOfLGElnCJkT7eARhQbioXZf8HO34PhEWrpA,,,,,,,,,,,
,,,,,,,,,,,,,,a,1,0.826,space,0.169,0,78,78,136,1,0_targ_4_dist_green/trial12.png,,,0,4,greenverival,a,82,23,female,2021-03-02_13h15.41.328,exp11,2020.2.6,MacIntel,60,IwAR3GL60oPAnBkY7WQ984XcOwOfLGElnCJkT7eARhQbioXZf8HO34PhEWrpA,,,,,,,,,,,
,,,,,,,,,,,,,,a,1,1.061,space,0.22,0,79,79,144,1,0_targ_4_dist_green/trial20.png,,,0,4,greenverival,a,82,23,female,2021-03-02_13h15.41.328,exp11,2020.2.6,MacIntel,60,IwAR3GL60oPAnBkY7WQ984XcOwOfLGElnCJkT7eARhQbioXZf8HO34PhEWrpA,,,,,,,,,,,
,,,,,,,,,,,,,,a,1,0.818,space,0.185,0,80,80,168,1,0_targ_10_dist_green/trial19.png,,,0,10,greenverival,a,82,23,female,2021-03-02_13h15.41.328,exp11,2020.2.6,MacIntel,60,IwAR3GL60oPAnBkY7WQ984XcOwOfLGElnCJkT7eARhQbioXZf8HO34PhEWrpA,,,,,,,,,,,
,,,,,,,,,,,,,,a,1,1.157,space,0.205,0,81,81,119,1,0_targ_1_dist_green/trial20.png,,,0,1,greenverival,a,82,23,female,2021-03-02_13h15.41.328,exp11,2020.2.6,MacIntel,60,IwAR3GL60oPAnBkY7WQ984XcOwOfLGElnCJkT7eARhQbioXZf8HO34PhEWrpA,,,,,,,,,,,
,,,,,,,,,,,,,,p,1,0.708,space,0.189,0,82,82,33,1,3_dist_green/trial9.png,,,1,3,greenverival,p,82,23,female,2021-03-02_13h15.41.328,exp11,2020.2.6,MacIntel,60,IwAR3GL60oPAnBkY7WQ984XcOwOfLGElnCJkT7eARhQbioXZf8HO34PhEWrpA,,,,,,,,,,,
,,,,,,,,,,,,,,a,1,0.96,space,0.138,0,83,83,149,1,0_targ_4_dist_green/trial25.png,,,0,4,greenverival,a,82,23,female,2021-03-02_13h15.41.328,exp11,2020.2.6,MacIntel,60,IwAR3GL60oPAnBkY7WQ984XcOwOfLGElnCJkT7eARhQbioXZf8HO34PhEWrpA,,,,,,,,,,,
,,,,,,,,,,,,,,p,1,0.777,space,0.159,0,84,84,2,1,0_dist_green/trial3.png,,,1,0,greenverival,p,82,23,female,2021-03-02_13h15.41.328,exp11,2020.2.6,MacIntel,60,IwAR3GL60oPAnBkY7WQ984XcOwOfLGElnCJkT7eARhQbioXZf8HO34PhEWrpA,,,,,,,,,,,
,,,,,,,,,,,,,,a,1,1.161,space,0.15,0,85,85,196,1,0_targ_16_dist_green/trial22.png,,,0,16,greenverival,a,82,23,female,2021-03-02_13h15.41.328,exp11,2020.2.6,MacIntel,60,IwAR3GL60oPAnBkY7WQ984XcOwOfLGElnCJkT7eARhQbioXZf8HO34PhEWrpA,,,,,,,,,,,
,,,,,,,,,,,,,,a,1,0.92,space,0.184,0,86,86,177,1,0_targ_16_dist_green/trial3.png,,,0,16,greenverival,a,82,23,female,2021-03-02_13h15.41.328,exp11,2020.2.6,MacIntel,60,IwAR3GL60oPAnBkY7WQ984XcOwOfLGElnCJkT7eARhQbioXZf8HO34PhEWrpA,,,,,,,,,,,
,,,,,,,,,,,,,,p,1,0.752,space,0.196,0,87,87,94,1,15_dist_green/trial20.png,,,1,15,greenverival,p,82,23,female,2021-03-02_13h15.41.328,exp11,2020.2.6,MacIntel,60,IwAR3GL60oPAnBkY7WQ984XcOwOfLGElnCJkT7eARhQbioXZf8HO34PhEWrpA,,,,,,,,,,,
,,,,,,,,,,,,,,p,1,1.034,space,0.146,0,88,88,3,1,0_dist_green/trial4.png,,,1,0,greenverival,p,82,23,female,2021-03-02_13h15.41.328,exp11,2020.2.6,MacIntel,60,IwAR3GL60oPAnBkY7WQ984XcOwOfLGElnCJkT7eARhQbioXZf8HO34PhEWrpA,,,,,,,,,,,
,,,,,,,,,,,,,,p,1,0.886,space,0.184,0,89,89,86,1,15_dist_green/trial12.png,,,1,15,greenverival,p,82,23,female,2021-03-02_13h15.41.328,exp11,2020.2.6,MacIntel,60,IwAR3GL60oPAnBkY7WQ984XcOwOfLGElnCJkT7eARhQbioXZf8HO34PhEWrpA,,,,,,,,,,,
,,,,,,,,,,,,,,a,1,0.585,space,0.152,0,90,90,125,1,0_targ_4_dist_green/trial1.png,,,0,4,greenverival,a,82,23,female,2021-03-02_13h15.41.328,exp11,2020.2.6,MacIntel,60,IwAR3GL60oPAnBkY7WQ984XcOwOfLGElnCJkT7eARhQbioXZf8HO34PhEWrpA,,,,,,,,,,,
,,,,,,,,,,,,,,a,1,0.642,space,0.147,0,91,91,153,1,0_targ_10_dist_green/trial4.png,,,0,10,greenverival,a,82,23,female,2021-03-02_13h15.41.328,exp11,2020.2.6,MacIntel,60,IwAR3GL60oPAnBkY7WQ984XcOwOfLGElnCJkT7eARhQbioXZf8HO34PhEWrpA,,,,,,,,,,,
,,,,,,,,,,,,,,a,1,0.628,space,0.185,0,92,92,197,1,0_targ_16_dist_green/trial23.png,,,0,16,greenverival,a,82,23,female,2021-03-02_13h15.41.328,exp11,2020.2.6,MacIntel,60,IwAR3GL60oPAnBkY7WQ984XcOwOfLGElnCJkT7eARhQbioXZf8HO34PhEWrpA,,,,,,,,,,,
,,,,,,,,,,,,,,p,1,0.569,space,0.226,0,93,93,31,1,3_dist_green/trial7.png,,,1,3,greenverival,p,82,23,female,2021-03-02_13h15.41.328,exp11,2020.2.6,MacIntel,60,IwAR3GL60oPAnBkY7WQ984XcOwOfLGElnCJkT7eARhQbioXZf8HO34PhEWrpA,,,,,,,,,,,
,,,,,,,,,,,,,,a,1,1.181,space,0.177,0,94,94,117,1,0_targ_1_dist_green/trial18.png,,,0,1,greenverival,a,82,23,female,2021-03-02_13h15.41.328,exp11,2020.2.6,MacIntel,60,IwAR3GL60oPAnBkY7WQ984XcOwOfLGElnCJkT7eARhQbioXZf8HO34PhEWrpA,,,,,,,,,,,
,,,,,,,,,,,,,,p,1,0.75,space,0.228,0,95,95,74,1,9_dist_green/trial25.png,,,1,9,greenverival,p,82,23,female,2021-03-02_13h15.41.328,exp11,2020.2.6,MacIntel,60,IwAR3GL60oPAnBkY7WQ984XcOwOfLGElnCJkT7eARhQbioXZf8HO34PhEWrpA,,,,,,,,,,,
,,,,,,,,,,,,,,a,1,0.656,space,0.213,0,96,96,130,1,0_targ_4_dist_green/trial6.png,,,0,4,greenverival,a,82,23,female,2021-03-02_13h15.41.328,exp11,2020.2.6,MacIntel,60,IwAR3GL60oPAnBkY7WQ984XcOwOfLGElnCJkT7eARhQbioXZf8HO34PhEWrpA,,,,,,,,,,,
,,,,,,,,,,,,,,a,1,0.527,space,0.176,0,97,97,105,1,0_targ_1_dist_green/trial6.png,,,0,1,greenverival,a,82,23,female,2021-03-02_13h15.41.328,exp11,2020.2.6,MacIntel,60,IwAR3GL60oPAnBkY7WQ984XcOwOfLGElnCJkT7eARhQbioXZf8HO34PhEWrpA,,,,,,,,,,,
,,,,,,,,,,,,,,p,1,0.711,space,0.168,0,98,98,28,1,3_dist_green/trial4.png,,,1,3,greenverival,p,82,23,female,2021-03-02_13h15.41.328,exp11,2020.2.6,MacIntel,60,IwAR3GL60oPAnBkY7WQ984XcOwOfLGElnCJkT7eARhQbioXZf8HO34PhEWrpA,,,,,,,,,,,
,,,,,,,,,,,,,,a,1,0.673,space,0.166,0,99,99,109,1,0_targ_1_dist_green/trial10.png,,,0,1,greenverival,a,82,23,female,2021-03-02_13h15.41.328,exp11,2020.2.6,MacIntel,60,IwAR3GL60oPAnBkY7WQ984XcOwOfLGElnCJkT7eARhQbioXZf8HO34PhEWrpA,,,,,,,,,,,
,,,,,,,,,,,,,,a,1,0.65,space,0.169,0,100,100,147,1,0_targ_4_dist_green/trial23.png,,,0,4,greenverival,a,82,23,female,2021-03-02_13h15.41.328,exp11,2020.2.6,MacIntel,60,IwAR3GL60oPAnBkY7WQ984XcOwOfLGElnCJkT7eARhQbioXZf8HO34PhEWrpA,,,,,,,,,,,
,,,,,,,,,,,,,,p,1,0.538,space,0.169,0,101,101,97,1,15_dist_green/trial23.png,,,1,15,greenverival,p,82,23,female,2021-03-02_13h15.41.328,exp11,2020.2.6,MacIntel,60,IwAR3GL60oPAnBkY7WQ984XcOwOfLGElnCJkT7eARhQbioXZf8HO34PhEWrpA,,,,,,,,,,,
,,,,,,,,,,,,,,a,1,1.006,space,0.22,0,102,102,173,1,0_targ_10_dist_green/trial24.png,,,0,10,greenverival,a,82,23,female,2021-03-02_13h15.41.328,exp11,2020.2.6,MacIntel,60,IwAR3GL60oPAnBkY7WQ984XcOwOfLGElnCJkT7eARhQbioXZf8HO34PhEWrpA,,,,,,,,,,,
,,,,,,,,,,,,,,a,1,1.122,space,0.162,0,103,103,156,1,0_targ_10_dist_green/trial7.png,,,0,10,greenverival,a,82,23,female,2021-03-02_13h15.41.328,exp11,2020.2.6,MacIntel,60,IwAR3GL60oPAnBkY7WQ984XcOwOfLGElnCJkT7eARhQbioXZf8HO34PhEWrpA,,,,,,,,,,,
,,,,,,,,,,,,,,p,1,0.711,space,0.203,0,104,104,78,1,15_dist_green/trial4.png,,,1,15,greenverival,p,82,23,female,2021-03-02_13h15.41.328,exp11,2020.2.6,MacIntel,60,IwAR3GL60oPAnBkY7WQ984XcOwOfLGElnCJkT7eARhQbioXZf8HO34PhEWrpA,,,,,,,,,,,
,,,,,,,,,,,,,,p,1,0.56,space,0.2,0,105,105,57,1,9_dist_green/trial8.png,,,1,9,greenverival,p,82,23,female,2021-03-02_13h15.41.328,exp11,2020.2.6,MacIntel,60,IwAR3GL60oPAnBkY7WQ984XcOwOfLGElnCJkT7eARhQbioXZf8HO34PhEWrpA,,,,,,,,,,,
,,,,,,,,,,,,,,a,1,1.085,space,0.243,0,106,106,159,1,0_targ_10_dist_green/trial10.png,,,0,10,greenverival,a,82,23,female,2021-03-02_13h15.41.328,exp11,2020.2.6,MacIntel,60,IwAR3GL60oPAnBkY7WQ984XcOwOfLGElnCJkT7eARhQbioXZf8HO34PhEWrpA,,,,,,,,,,,
,,,,,,,,,,,,,,p,1,0.611,space,0.146,0,107,107,22,1,0_dist_green/trial23.png,,,1,0,greenverival,p,82,23,female,2021-03-02_13h15.41.328,exp11,2020.2.6,MacIntel,60,IwAR3GL60oPAnBkY7WQ984XcOwOfLGElnCJkT7eARhQbioXZf8HO34PhEWrpA,,,,,,,,,,,
,,,,,,,,,,,,,,p,1,0.62,space,0.117,0,108,108,64,1,9_dist_green/trial15.png,,,1,9,greenverival,p,82,23,female,2021-03-02_13h15.41.328,exp11,2020.2.6,MacIntel,60,IwAR3GL60oPAnBkY7WQ984XcOwOfLGElnCJkT7eARhQbioXZf8HO34PhEWrpA,,,,,,,,,,,
,,,,,,,,,,,,,,p,1,0.469,space,0.177,0,109,109,43,1,3_dist_green/trial19.png,,,1,3,greenverival,p,82,23,female,2021-03-02_13h15.41.328,exp11,2020.2.6,MacIntel,60,IwAR3GL60oPAnBkY7WQ984XcOwOfLGElnCJkT7eARhQbioXZf8HO34PhEWrpA,,,,,,,,,,,
,,,,,,,,,,,,,,p,1,0.478,space,0.149,0,110,110,39,1,3_dist_green/trial15.png,,,1,3,greenverival,p,82,23,female,2021-03-02_13h15.41.328,exp11,2020.2.6,MacIntel,60,IwAR3GL60oPAnBkY7WQ984XcOwOfLGElnCJkT7eARhQbioXZf8HO34PhEWrpA,,,,,,,,,,,
,,,,,,,,,,,,,,a,1,0.764,space,0.154,0,111,111,134,1,0_targ_4_dist_green/trial10.png,,,0,4,greenverival,a,82,23,female,2021-03-02_13h15.41.328,exp11,2020.2.6,MacIntel,60,IwAR3GL60oPAnBkY7WQ984XcOwOfLGElnCJkT7eARhQbioXZf8HO34PhEWrpA,,,,,,,,,,,
,,,,,,,,,,,,,,p,1,0.653,space,0.117,0,112,112,68,1,9_dist_green/trial19.png,,,1,9,greenverival,p,82,23,female,2021-03-02_13h15.41.328,exp11,2020.2.6,MacIntel,60,IwAR3GL60oPAnBkY7WQ984XcOwOfLGElnCJkT7eARhQbioXZf8HO34PhEWrpA,,,,,,,,,,,
,,,,,,,,,,,,,,a,1,0.56,space,0.159,0,113,113,138,1,0_targ_4_dist_green/trial14.png,,,0,4,greenverival,a,82,23,female,2021-03-02_13h15.41.328,exp11,2020.2.6,MacIntel,60,IwAR3GL60oPAnBkY7WQ984XcOwOfLGElnCJkT7eARhQbioXZf8HO34PhEWrpA,,,,,,,,,,,
,,,,,,,,,,,,,,p,1,0.497,space,0.21,0,114,114,24,1,0_dist_green/trial25.png,,,1,0,greenverival,p,82,23,female,2021-03-02_13h15.41.328,exp11,2020.2.6,MacIntel,60,IwAR3GL60oPAnBkY7WQ984XcOwOfLGElnCJkT7eARhQbioXZf8HO34PhEWrpA,,,,,,,,,,,
,,,,,,,,,,,,,,a,1,0.67,space,0.191,0,115,115,154,1,0_targ_10_dist_green/trial5.png,,,0,10,greenverival,a,82,23,female,2021-03-02_13h15.41.328,exp11,2020.2.6,MacIntel,60,IwAR3GL60oPAnBkY7WQ984XcOwOfLGElnCJkT7eARhQbioXZf8HO34PhEWrpA,,,,,,,,,,,
,,,,,,,,,,,,,,a,1,0.511,space,0.191,0,116,116,129,1,0_targ_4_dist_green/trial5.png,,,0,4,greenverival,a,82,23,female,2021-03-02_13h15.41.328,exp11,2020.2.6,MacIntel,60,IwAR3GL60oPAnBkY7WQ984XcOwOfLGElnCJkT7eARhQbioXZf8HO34PhEWrpA,,,,,,,,,,,
,,,,,,,,,,,,,,a,1,1.444,space,0.159,0,117,117,195,1,0_targ_16_dist_green/trial21.png,,,0,16,greenverival,a,82,23,female,2021-03-02_13h15.41.328,exp11,2020.2.6,MacIntel,60,IwAR3GL60oPAnBkY7WQ984XcOwOfLGElnCJkT7eARhQbioXZf8HO34PhEWrpA,,,,,,,,,,,
,,,,,,,,,,,,,,p,1,0.538,space,0.161,0,118,118,8,1,0_dist_green/trial9.png,,,1,0,greenverival,p,82,23,female,2021-03-02_13h15.41.328,exp11,2020.2.6,MacIntel,60,IwAR3GL60oPAnBkY7WQ984XcOwOfLGElnCJkT7eARhQbioXZf8HO34PhEWrpA,,,,,,,,,,,
,,,,,,,,,,,,,,p,1,1.019,space,0.087,0,119,119,93,1,15_dist_green/trial19.png,,,1,15,greenverival,p,82,23,female,2021-03-02_13h15.41.328,exp11,2020.2.6,MacIntel,60,IwAR3GL60oPAnBkY7WQ984XcOwOfLGElnCJkT7eARhQbioXZf8HO34PhEWrpA,,,,,,,,,,,
,,,,,,,,,,,,,,p,1,0.464,space,0.119,0,120,120,19,1,0_dist_green/trial20.png,,,1,0,greenverival,p,82,23,female,2021-03-02_13h15.41.328,exp11,2020.2.6,MacIntel,60,IwAR3GL60oPAnBkY7WQ984XcOwOfLGElnCJkT7eARhQbioXZf8HO34PhEWrpA,,,,,,,,,,,
,,,,,,,,,,,,,,p,1,0.529,space,0.093,0,121,121,46,1,3_dist_green/trial22.png,,,1,3,greenverival,p,82,23,female,2021-03-02_13h15.41.328,exp11,2020.2.6,MacIntel,60,IwAR3GL60oPAnBkY7WQ984XcOwOfLGElnCJkT7eARhQbioXZf8HO34PhEWrpA,,,,,,,,,,,
,,,,,,,,,,,,,,a,1,0.602,space,0.121,0,122,122,158,1,0_targ_10_dist_green/trial9.png,,,0,10,greenverival,a,82,23,female,2021-03-02_13h15.41.328,exp11,2020.2.6,MacIntel,60,IwAR3GL60oPAnBkY7WQ984XcOwOfLGElnCJkT7eARhQbioXZf8HO34PhEWrpA,,,,,,,,,,,
,,,,,,,,,,,,,,a,1,0.922,space,0.096,0,123,123,182,1,0_targ_16_dist_green/trial8.png,,,0,16,greenverival,a,82,23,female,2021-03-02_13h15.41.328,exp11,2020.2.6,MacIntel,60,IwAR3GL60oPAnBkY7WQ984XcOwOfLGElnCJkT7eARhQbioXZf8HO34PhEWrpA,,,,,,,,,,,
,,,,,,,,,,,,,,a,1,0.503,space,0.134,0,124,124,124,1,0_targ_1_dist_green/trial25.png,,,0,1,greenverival,a,82,23,female,2021-03-02_13h15.41.328,exp11,2020.2.6,MacIntel,60,IwAR3GL60oPAnBkY7WQ984XcOwOfLGElnCJkT7eARhQbioXZf8HO34PhEWrpA,,,,,,,,,,,
,,,,,,,,,,,,,,a,1,1.029,space,0.1,0,125,125,191,1,0_targ_16_dist_green/trial17.png,,,0,16,greenverival,a,82,23,female,2021-03-02_13h15.41.328,exp11,2020.2.6,MacIntel,60,IwAR3GL60oPAnBkY7WQ984XcOwOfLGElnCJkT7eARhQbioXZf8HO34PhEWrpA,,,,,,,,,,,
,,,,,,,,,,,,,,a,1,0.905,space,0.074,0,126,126,165,1,0_targ_10_dist_green/trial16.png,,,0,10,greenverival,a,82,23,female,2021-03-02_13h15.41.328,exp11,2020.2.6,MacIntel,60,IwAR3GL60oPAnBkY7WQ984XcOwOfLGElnCJkT7eARhQbioXZf8HO34PhEWrpA,,,,,,,,,,,
,,,,,,,,,,,,,,a,1,1.045,space,0.111,0,127,127,160,1,0_targ_10_dist_green/trial11.png,,,0,10,greenverival,a,82,23,female,2021-03-02_13h15.41.328,exp11,2020.2.6,MacIntel,60,IwAR3GL60oPAnBkY7WQ984XcOwOfLGElnCJkT7eARhQbioXZf8HO34PhEWrpA,,,,,,,,,,,
,,,,,,,,,,,,,,a,1,0.781,space,0.085,0,128,128,102,1,0_targ_1_dist_green/trial3.png,,,0,1,greenverival,a,82,23,female,2021-03-02_13h15.41.328,exp11,2020.2.6,MacIntel,60,IwAR3GL60oPAnBkY7WQ984XcOwOfLGElnCJkT7eARhQbioXZf8HO34PhEWrpA,,,,,,,,,,,
,,,,,,,,,,,,,,a,1,0.577,space,0.089,0,129,129,174,1,0_targ_10_dist_green/trial25.png,,,0,10,greenverival,a,82,23,female,2021-03-02_13h15.41.328,exp11,2020.2.6,MacIntel,60,IwAR3GL60oPAnBkY7WQ984XcOwOfLGElnCJkT7eARhQbioXZf8HO34PhEWrpA,,,,,,,,,,,
,,,,,,,,,,,,,,a,1,0.624,space,0.095,0,130,130,123,1,0_targ_1_dist_green/trial24.png,,,0,1,greenverival,a,82,23,female,2021-03-02_13h15.41.328,exp11,2020.2.6,MacIntel,60,IwAR3GL60oPAnBkY7WQ984XcOwOfLGElnCJkT7eARhQbioXZf8HO34PhEWrpA,,,,,,,,,,,
,,,,,,,,,,,,,,a,1,0.554,space,0.071,0,131,131,121,1,0_targ_1_dist_green/trial22.png,,,0,1,greenverival,a,82,23,female,2021-03-02_13h15.41.328,exp11,2020.2.6,MacIntel,60,IwAR3GL60oPAnBkY7WQ984XcOwOfLGElnCJkT7eARhQbioXZf8HO34PhEWrpA,,,,,,,,,,,
,,,,,,,,,,,,,,a,1,0.663,space,0.092,0,132,132,141,1,0_targ_4_dist_green/trial17.png,,,0,4,greenverival,a,82,23,female,2021-03-02_13h15.41.328,exp11,2020.2.6,MacIntel,60,IwAR3GL60oPAnBkY7WQ984XcOwOfLGElnCJkT7eARhQbioXZf8HO34PhEWrpA,,,,,,,,,,,
,,,,,,,,,,,,,,p,1,0.685,space,0.082,0,133,133,72,1,9_dist_green/trial23.png,,,1,9,greenverival,p,82,23,female,2021-03-02_13h15.41.328,exp11,2020.2.6,MacIntel,60,IwAR3GL60oPAnBkY7WQ984XcOwOfLGElnCJkT7eARhQbioXZf8HO34PhEWrpA,,,,,,,,,,,
,,,,,,,,,,,,,,p,1,0.636,space,0.07,0,134,134,35,1,3_dist_green/trial11.png,,,1,3,greenverival,p,82,23,female,2021-03-02_13h15.41.328,exp11,2020.2.6,MacIntel,60,IwAR3GL60oPAnBkY7WQ984XcOwOfLGElnCJkT7eARhQbioXZf8HO34PhEWrpA,,,,,,,,,,,
,,,,,,,,,,,,,,a,1,1.106,space,0.104,0,135,135,188,1,0_targ_16_dist_green/trial14.png,,,0,16,greenverival,a,82,23,female,2021-03-02_13h15.41.328,exp11,2020.2.6,MacIntel,60,IwAR3GL60oPAnBkY7WQ984XcOwOfLGElnCJkT7eARhQbioXZf8HO34PhEWrpA,,,,,,,,,,,
,,,,,,,,,,,,,,p,1,0.592,space,0.108,0,136,136,66,1,9_dist_green/trial17.png,,,1,9,greenverival,p,82,23,female,2021-03-02_13h15.41.328,exp11,2020.2.6,MacIntel,60,IwAR3GL60oPAnBkY7WQ984XcOwOfLGElnCJkT7eARhQbioXZf8HO34PhEWrpA,,,,,,,,,,,
,,,,,,,,,,,,,,p,1,0.555,space,0.084,0,137,137,13,1,0_dist_green/trial14.png,,,1,0,greenverival,p,82,23,female,2021-03-02_13h15.41.328,exp11,2020.2.6,MacIntel,60,IwAR3GL60oPAnBkY7WQ984XcOwOfLGElnCJkT7eARhQbioXZf8HO34PhEWrpA,,,,,,,,,,,
,,,,,,,,,,,,,,a,1,0.674,space,0.089,0,138,138,133,1,0_targ_4_dist_green/trial9.png,,,0,4,greenverival,a,82,23,female,2021-03-02_13h15.41.328,exp11,2020.2.6,MacIntel,60,IwAR3GL60oPAnBkY7WQ984XcOwOfLGElnCJkT7eARhQbioXZf8HO34PhEWrpA,,,,,,,,,,,
,,,,,,,,,,,,,,p,1,0.636,space,0.085,0,139,139,20,1,0_dist_green/trial21.png,,,1,0,greenverival,p,82,23,female,2021-03-02_13h15.41.328,exp11,2020.2.6,MacIntel,60,IwAR3GL60oPAnBkY7WQ984XcOwOfLGElnCJkT7eARhQbioXZf8HO34PhEWrpA,,,,,,,,,,,
,,,,,,,,,,,,,,p,1,0.617,space,0.097,0,140,140,87,1,15_dist_green/trial13.png,,,1,15,greenverival,p,82,23,female,2021-03-02_13h15.41.328,exp11,2020.2.6,MacIntel,60,IwAR3GL60oPAnBkY7WQ984XcOwOfLGElnCJkT7eARhQbioXZf8HO34PhEWrpA,,,,,,,,,,,
,,,,,,,,,,,,,,a,1,0.971,space,0.052,0,141,141,128,1,0_targ_4_dist_green/trial4.png,,,0,4,greenverival,a,82,23,female,2021-03-02_13h15.41.328,exp11,2020.2.6,MacIntel,60,IwAR3GL60oPAnBkY7WQ984XcOwOfLGElnCJkT7eARhQbioXZf8HO34PhEWrpA,,,,,,,,,,,
,,,,,,,,,,,,,,p,1,1.106,space,0.102,0,142,142,51,1,9_dist_green/trial2.png,,,1,9,greenverival,p,82,23,female,2021-03-02_13h15.41.328,exp11,2020.2.6,MacIntel,60,IwAR3GL60oPAnBkY7WQ984XcOwOfLGElnCJkT7eARhQbioXZf8HO34PhEWrpA,,,,,,,,,,,
,,,,,,,,,,,,,,a,1,0.644,space,0.133,0,143,143,100,1,0_targ_1_dist_green/trial1.png,,,0,1,greenverival,a,82,23,female,2021-03-02_13h15.41.328,exp11,2020.2.6,MacIntel,60,IwAR3GL60oPAnBkY7WQ984XcOwOfLGElnCJkT7eARhQbioXZf8HO34PhEWrpA,,,,,,,,,,,
,,,,,,,,,,,,,,a,0,0.588,space,1.876,0,144,144,15,1,0_dist_green/trial16.png,,,1,0,greenverival,p,82,23,female,2021-03-02_13h15.41.328,exp11,2020.2.6,MacIntel,60,IwAR3GL60oPAnBkY7WQ984XcOwOfLGElnCJkT7eARhQbioXZf8HO34PhEWrpA,,,,,,,,,,,
,,,,,,,,,,,,,,a,1,0.861,space,0.158,0,145,145,140,1,0_targ_4_dist_green/trial6.png,,,0,4,greenverival,a,82,23,female,2021-03-02_13h15.41.328,exp11,2020.2.6,MacIntel,60,IwAR3GL60oPAnBkY7WQ984XcOwOfLGElnCJkT7eARhQbioXZf8HO34PhEWrpA,,,,,,,,,,,
,,,,,,,,,,,,,,a,1,0.654,space,0.257,0,146,146,116,1,0_targ_1_dist_green/trial17.png,,,0,1,greenverival,a,82,23,female,2021-03-02_13h15.41.328,exp11,2020.2.6,MacIntel,60,IwAR3GL60oPAnBkY7WQ984XcOwOfLGElnCJkT7eARhQbioXZf8HO34PhEWrpA,,,,,,,,,,,
,,,,,,,,,,,,,,p,1,0.553,space,0.117,0,147,147,92,1,15_dist_green/trial18.png,,,1,15,greenverival,p,82,23,female,2021-03-02_13h15.41.328,exp11,2020.2.6,MacIntel,60,IwAR3GL60oPAnBkY7WQ984XcOwOfLGElnCJkT7eARhQbioXZf8HO34PhEWrpA,,,,,,,,,,,
,,,,,,,,,,,,,,a,1,4.131,space,0.144,0,148,148,183,1,0_targ_16_dist_green/trial9.png,,,0,16,greenverival,a,82,23,female,2021-03-02_13h15.41.328,exp11,2020.2.6,MacIntel,60,IwAR3GL60oPAnBkY7WQ984XcOwOfLGElnCJkT7eARhQbioXZf8HO34PhEWrpA,,,,,,,,,,,
,,,,,,,,,,,,,,a,1,1.548,space,0.175,0,149,149,150,1,0_targ_10_dist_green/trial1.png,,,0,10,greenverival,a,82,23,female,2021-03-02_13h15.41.328,exp11,2020.2.6,MacIntel,60,IwAR3GL60oPAnBkY7WQ984XcOwOfLGElnCJkT7eARhQbioXZf8HO34PhEWrpA,,,,,,,,,,,
,,,,,,,,,,,,,,p,1,2.656,space,0.087,0,150,150,77,1,15_dist_green/trial3.png,,,1,15,greenverival,p,82,23,female,2021-03-02_13h15.41.328,exp11,2020.2.6,MacIntel,60,IwAR3GL60oPAnBkY7WQ984XcOwOfLGElnCJkT7eARhQbioXZf8HO34PhEWrpA,,,,,,,,,,,
,,,,,,,,,,,,,,a,1,1.669,space,0.152,0,151,151,148,1,0_targ_4_dist_green/trial24.png,,,0,4,greenverival,a,82,23,female,2021-03-02_13h15.41.328,exp11,2020.2.6,MacIntel,60,IwAR3GL60oPAnBkY7WQ984XcOwOfLGElnCJkT7eARhQbioXZf8HO34PhEWrpA,,,,,,,,,,,
,,,,,,,,,,,,,,a,1,1.782,space,0.176,0,152,152,199,1,0_targ_16_dist_green/trial25.png,,,0,16,greenverival,a,82,23,female,2021-03-02_13h15.41.328,exp11,2020.2.6,MacIntel,60,IwAR3GL60oPAnBkY7WQ984XcOwOfLGElnCJkT7eARhQbioXZf8HO34PhEWrpA,,,,,,,,,,,
,,,,,,,,,,,,,,p,1,2.572,space,0.107,0,153,153,30,1,3_dist_green/trial6.png,,,1,3,greenverival,p,82,23,female,2021-03-02_13h15.41.328,exp11,2020.2.6,MacIntel,60,IwAR3GL60oPAnBkY7WQ984XcOwOfLGElnCJkT7eARhQbioXZf8HO34PhEWrpA,,,,,,,,,,,
,,,,,,,,,,,,,,a,1,0.903,space,0.118,0,154,154,190,1,0_targ_16_dist_green/trial16.png,,,0,16,greenverival,a,82,23,female,2021-03-02_13h15.41.328,exp11,2020.2.6,MacIntel,60,IwAR3GL60oPAnBkY7WQ984XcOwOfLGElnCJkT7eARhQbioXZf8HO34PhEWrpA,,,,,,,,,,,
,,,,,,,,,,,,,,p,1,0.823,space,0.111,0,155,155,48,1,3_dist_green/trial24.png,,,1,3,greenverival,p,82,23,female,2021-03-02_13h15.41.328,exp11,2020.2.6,MacIntel,60,IwAR3GL60oPAnBkY7WQ984XcOwOfLGElnCJkT7eARhQbioXZf8HO34PhEWrpA,,,,,,,,,,,
,,,,,,,,,,,,,,a,1,0.973,space,0.142,0,156,156,132,1,0_targ_4_dist_green/trial8.png,,,0,4,greenverival,a,82,23,female,2021-03-02_13h15.41.328,exp11,2020.2.6,MacIntel,60,IwAR3GL60oPAnBkY7WQ984XcOwOfLGElnCJkT7eARhQbioXZf8HO34PhEWrpA,,,,,,,,,,,
,,,,,,,,,,,,,,a,1,1.138,space,0.145,0,157,157,111,1,0_targ_1_dist_green/trial12.png,,,0,1,greenverival,a,82,23,female,2021-03-02_13h15.41.328,exp11,2020.2.6,MacIntel,60,IwAR3GL60oPAnBkY7WQ984XcOwOfLGElnCJkT7eARhQbioXZf8HO34PhEWrpA,,,,,,,,,,,
,,,,,,,,,,,,,,p,1,0.527,space,0.158,0,158,158,49,1,3_dist_green/trial25.png,,,1,3,greenverival,p,82,23,female,2021-03-02_13h15.41.328,exp11,2020.2.6,MacIntel,60,IwAR3GL60oPAnBkY7WQ984XcOwOfLGElnCJkT7eARhQbioXZf8HO34PhEWrpA,,,,,,,,,,,
,,,,,,,,,,,,,,p,1,0.705,space,0.113,0,159,159,65,1,9_dist_green/trial16.png,,,1,9,greenverival,p,82,23,female,2021-03-02_13h15.41.328,exp11,2020.2.6,MacIntel,60,IwAR3GL60oPAnBkY7WQ984XcOwOfLGElnCJkT7eARhQbioXZf8HO34PhEWrpA,,,,,,,,,,,
,,,,,,,,,,,,,,p,1,0.212,space,2.271,0,160,160,79,1,15_dist_green/trial5.png,,,1,15,greenverival,p,82,23,female,2021-03-02_13h15.41.328,exp11,2020.2.6,MacIntel,60,IwAR3GL60oPAnBkY7WQ984XcOwOfLGElnCJkT7eARhQbioXZf8HO34PhEWrpA,,,,,,,,,,,
,,,,,,,,,,,,,,a,1,1.385,space,0.166,0,161,161,193,1,0_targ_16_dist_green/trial19.png,,,0,16,greenverival,a,82,23,female,2021-03-02_13h15.41.328,exp11,2020.2.6,MacIntel,60,IwAR3GL60oPAnBkY7WQ984XcOwOfLGElnCJkT7eARhQbioXZf8HO34PhEWrpA,,,,,,,,,,,
,,,,,,,,,,,,,,a,0,0.715,space,0.237,0,162,162,4,1,0_dist_green/trial5.png,,,1,0,greenverival,p,82,23,female,2021-03-02_13h15.41.328,exp11,2020.2.6,MacIntel,60,IwAR3GL60oPAnBkY7WQ984XcOwOfLGElnCJkT7eARhQbioXZf8HO34PhEWrpA,,,,,,,,,,,
,,,,,,,,,,,,,,p,1,0.74,space,0.122,0,163,163,9,1,0_dist_green/trial10.png,,,1,0,greenverival,p,82,23,female,2021-03-02_13h15.41.328,exp11,2020.2.6,MacIntel,60,IwAR3GL60oPAnBkY7WQ984XcOwOfLGElnCJkT7eARhQbioXZf8HO34PhEWrpA,,,,,,,,,,,
,,,,,,,,,,,,,,p,1,0.584,space,0.043,0,164,164,1,1,0_dist_green/trial2.png,,,1,0,greenverival,p,82,23,female,2021-03-02_13h15.41.328,exp11,2020.2.6,MacIntel,60,IwAR3GL60oPAnBkY7WQ984XcOwOfLGElnCJkT7eARhQbioXZf8HO34PhEWrpA,,,,,,,,,,,
,,,,,,,,,,,,,,p,1,0.869,space,0.094,0,165,165,52,1,9_dist_green/trial3.png,,,1,9,greenverival,p,82,23,female,2021-03-02_13h15.41.328,exp11,2020.2.6,MacIntel,60,IwAR3GL60oPAnBkY7WQ984XcOwOfLGElnCJkT7eARhQbioXZf8HO34PhEWrpA,,,,,,,,,,,
,,,,,,,,,,,,,,a,1,0.512,space,0.16,0,166,166,118,1,0_targ_1_dist_green/trial19.png,,,0,1,greenverival,a,82,23,female,2021-03-02_13h15.41.328,exp11,2020.2.6,MacIntel,60,IwAR3GL60oPAnBkY7WQ984XcOwOfLGElnCJkT7eARhQbioXZf8HO34PhEWrpA,,,,,,,,,,,
,,,,,,,,,,,,,,p,1,0.822,space,0.085,0,167,167,27,1,3_dist_green/trial3.png,,,1,3,greenverival,p,82,23,female,2021-03-02_13h15.41.328,exp11,2020.2.6,MacIntel,60,IwAR3GL60oPAnBkY7WQ984XcOwOfLGElnCJkT7eARhQbioXZf8HO34PhEWrpA,,,,,,,,,,,
,,,,,,,,,,,,,,a,1,0.659,space,0.137,0,168,168,194,1,0_targ_16_dist_green/trial20.png,,,0,16,greenverival,a,82,23,female,2021-03-02_13h15.41.328,exp11,2020.2.6,MacIntel,60,IwAR3GL60oPAnBkY7WQ984XcOwOfLGElnCJkT7eARhQbioXZf8HO34PhEWrpA,,,,,,,,,,,
,,,,,,,,,,,,,,a,1,1.322,space,0.166,0,169,169,175,1,0_targ_16_dist_green/trial1.png,,,0,16,greenverival,a,82,23,female,2021-03-02_13h15.41.328,exp11,2020.2.6,MacIntel,60,IwAR3GL60oPAnBkY7WQ984XcOwOfLGElnCJkT7eARhQbioXZf8HO34PhEWrpA,,,,,,,,,,,
,,,,,,,,,,,,,,a,1,0.684,space,0.288,0,170,170,101,1,0_targ_1_dist_green/trial2.png,,,0,1,greenverival,a,82,23,female,2021-03-02_13h15.41.328,exp11,2020.2.6,MacIntel,60,IwAR3GL60oPAnBkY7WQ984XcOwOfLGElnCJkT7eARhQbioXZf8HO34PhEWrpA,,,,,,,,,,,
,,,,,,,,,,,,,,a,1,0.611,space,0.171,0,171,171,131,1,0_targ_4_dist_green/trial7.png,,,0,4,greenverival,a,82,23,female,2021-03-02_13h15.41.328,exp11,2020.2.6,MacIntel,60,IwAR3GL60oPAnBkY7WQ984XcOwOfLGElnCJkT7eARhQbioXZf8HO34PhEWrpA,,,,,,,,,,,
,,,,,,,,,,,,,,a,1,0.464,space,0.209,0,172,172,122,1,0_targ_1_dist_green/trial23.png,,,0,1,greenverival,a,82,23,female,2021-03-02_13h15.41.328,exp11,2020.2.6,MacIntel,60,IwAR3GL60oPAnBkY7WQ984XcOwOfLGElnCJkT7eARhQbioXZf8HO34PhEWrpA,,,,,,,,,,,
,,,,,,,,,,,,,,p,1,0.618,space,0.1,0,173,173,69,1,9_dist_green/trial20.png,,,1,9,greenverival,p,82,23,female,2021-03-02_13h15.41.328,exp11,2020.2.6,MacIntel,60,IwAR3GL60oPAnBkY7WQ984XcOwOfLGElnCJkT7eARhQbioXZf8HO34PhEWrpA,,,,,,,,,,,
,,,,,,,,,,,,,,a,1,0.808,space,0.107,0,174,174,114,1,0_targ_1_dist_green/trial15.png,,,0,1,greenverival,a,82,23,female,2021-03-02_13h15.41.328,exp11,2020.2.6,MacIntel,60,IwAR3GL60oPAnBkY7WQ984XcOwOfLGElnCJkT7eARhQbioXZf8HO34PhEWrpA,,,,,,,,,,,
,,,,,,,,,,,,,,p,1,0.818,space,0.137,0,175,175,76,1,15_dist_green/trial2.png,,,1,15,greenverival,p,82,23,female,2021-03-02_13h15.41.328,exp11,2020.2.6,MacIntel,60,IwAR3GL60oPAnBkY7WQ984XcOwOfLGElnCJkT7eARhQbioXZf8HO34PhEWrpA,,,,,,,,,,,
,,,,,,,,,,,,,,p,1,0.559,space,0.066,0,176,176,18,1,0_dist_green/trial19.png,,,1,0,greenverival,p,82,23,female,2021-03-02_13h15.41.328,exp11,2020.2.6,MacIntel,60,IwAR3GL60oPAnBkY7WQ984XcOwOfLGElnCJkT7eARhQbioXZf8HO34PhEWrpA,,,,,,,,,,,
,,,,,,,,,,,,,,a,1,0.861,space,0.377,0,177,177,169,1,0_targ_10_dist_green/trial20.png,,,0,10,greenverival,a,82,23,female,2021-03-02_13h15.41.328,exp11,2020.2.6,MacIntel,60,IwAR3GL60oPAnBkY7WQ984XcOwOfLGElnCJkT7eARhQbioXZf8HO34PhEWrpA,,,,,,,,,,,
,,,,,,,,,,,,,,p,1,0.603,space,0.108,0,178,178,42,1,3_dist_green/trial18.png,,,1,3,greenverival,p,82,23,female,2021-03-02_13h15.41.328,exp11,2020.2.6,MacIntel,60,IwAR3GL60oPAnBkY7WQ984XcOwOfLGElnCJkT7eARhQbioXZf8HO34PhEWrpA,,,,,,,,,,,
,,,,,,,,,,,,,,p,1,0.694,space,0.102,0,179,179,53,1,9_dist_green/trial4.png,,,1,9,greenverival,p,82,23,female,2021-03-02_13h15.41.328,exp11,2020.2.6,MacIntel,60,IwAR3GL60oPAnBkY7WQ984XcOwOfLGElnCJkT7eARhQbioXZf8HO34PhEWrpA,,,,,,,,,,,
,,,,,,,,,,,,,,a,1,0.912,space,0.112,0,180,180,155,1,0_targ_10_dist_green/trial6.png,,,0,10,greenverival,a,82,23,female,2021-03-02_13h15.41.328,exp11,2020.2.6,MacIntel,60,IwAR3GL60oPAnBkY7WQ984XcOwOfLGElnCJkT7eARhQbioXZf8HO34PhEWrpA,,,,,,,,,,,
,,,,,,,,,,,,,,a,0,0.847,space,1.392,0,181,181,98,1,15_dist_green/trial24.png,,,1,15,greenverival,p,82,23,female,2021-03-02_13h15.41.328,exp11,2020.2.6,MacIntel,60,IwAR3GL60oPAnBkY7WQ984XcOwOfLGElnCJkT7eARhQbioXZf8HO34PhEWrpA,,,,,,,,,,,
,,,,,,,,,,,,,,p,1,0.658,space,0.087,0,182,182,38,1,3_dist_green/trial14.png,,,1,3,greenverival,p,82,23,female,2021-03-02_13h15.41.328,exp11,2020.2.6,MacIntel,60,IwAR3GL60oPAnBkY7WQ984XcOwOfLGElnCJkT7eARhQbioXZf8HO34PhEWrpA,,,,,,,,,,,
,,,,,,,,,,,,,,a,1,0.928,space,0.203,0,183,183,112,1,0_targ_1_dist_green/trial13.png,,,0,1,greenverival,a,82,23,female,2021-03-02_13h15.41.328,exp11,2020.2.6,MacIntel,60,IwAR3GL60oPAnBkY7WQ984XcOwOfLGElnCJkT7eARhQbioXZf8HO34PhEWrpA,,,,,,,,,,,
,,,,,,,,,,,,,,a,1,0.993,space,0.091,0,184,184,172,1,0_targ_10_dist_green/trial23.png,,,0,10,greenverival,a,82,23,female,2021-03-02_13h15.41.328,exp11,2020.2.6,MacIntel,60,IwAR3GL60oPAnBkY7WQ984XcOwOfLGElnCJkT7eARhQbioXZf8HO34PhEWrpA,,,,,,,,,,,
,,,,,,,,,,,,,,a,1,0.853,space,0.057,0,185,185,135,1,0_targ_4_dist_green/trial11.png,,,0,4,greenverival,a,82,23,female,2021-03-02_13h15.41.328,exp11,2020.2.6,MacIntel,60,IwAR3GL60oPAnBkY7WQ984XcOwOfLGElnCJkT7eARhQbioXZf8HO34PhEWrpA,,,,,,,,,,,
,,,,,,,,,,,,,,a,1,0.844,space,0.061,0,186,186,170,1,0_targ_10_dist_green/trial21.png,,,0,10,greenverival,a,82,23,female,2021-03-02_13h15.41.328,exp11,2020.2.6,MacIntel,60,IwAR3GL60oPAnBkY7WQ984XcOwOfLGElnCJkT7eARhQbioXZf8HO34PhEWrpA,,,,,,,,,,,
,,,,,,,,,,,,,,a,1,0.621,space,0.056,0,187,187,145,1,0_targ_4_dist_green/trial21.png,,,0,4,greenverival,a,82,23,female,2021-03-02_13h15.41.328,exp11,2020.2.6,MacIntel,60,IwAR3GL60oPAnBkY7WQ984XcOwOfLGElnCJkT7eARhQbioXZf8HO34PhEWrpA,,,,,,,,,,,
,,,,,,,,,,,,,,a,1,0.532,space,0.058,0,188,188,103,1,0_targ_1_dist_green/trial4.png,,,0,1,greenverival,a,82,23,female,2021-03-02_13h15.41.328,exp11,2020.2.6,MacIntel,60,IwAR3GL60oPAnBkY7WQ984XcOwOfLGElnCJkT7eARhQbioXZf8HO34PhEWrpA,,,,,,,,,,,
,,,,,,,,,,,,,,p,1,0.571,space,0.074,0,189,189,17,1,0_dist_green/trial18.png,,,1,0,greenverival,p,82,23,female,2021-03-02_13h15.41.328,exp11,2020.2.6,MacIntel,60,IwAR3GL60oPAnBkY7WQ984XcOwOfLGElnCJkT7eARhQbioXZf8HO34PhEWrpA,,,,,,,,,,,
,,,,,,,,,,,,,,a,1,0.639,space,0.044,0,190,190,127,1,0_targ_4_dist_green/trial3.png,,,0,4,greenverival,a,82,23,female,2021-03-02_13h15.41.328,exp11,2020.2.6,MacIntel,60,IwAR3GL60oPAnBkY7WQ984XcOwOfLGElnCJkT7eARhQbioXZf8HO34PhEWrpA,,,,,,,,,,,
,,,,,,,,,,,,,,p,1,0.603,space,0.061,0,191,191,37,1,3_dist_green/trial13.png,,,1,3,greenverival,p,82,23,female,2021-03-02_13h15.41.328,exp11,2020.2.6,MacIntel,60,IwAR3GL60oPAnBkY7WQ984XcOwOfLGElnCJkT7eARhQbioXZf8HO34PhEWrpA,,,,,,,,,,,
,,,,,,,,,,,,,,a,1,0.886,space,0.323,0,192,192,157,1,0_targ_10_dist_green/trial8.png,,,0,10,greenverival,a,82,23,female,2021-03-02_13h15.41.328,exp11,2020.2.6,MacIntel,60,IwAR3GL60oPAnBkY7WQ984XcOwOfLGElnCJkT7eARhQbioXZf8HO34PhEWrpA,,,,,,,,,,,
,,,,,,,,,,,,,,p,1,0.928,space,0.653,0,193,193,91,1,15_dist_green/trial17.png,,,1,15,greenverival,p,82,23,female,2021-03-02_13h15.41.328,exp11,2020.2.6,MacIntel,60,IwAR3GL60oPAnBkY7WQ984XcOwOfLGElnCJkT7eARhQbioXZf8HO34PhEWrpA,,,,,,,,,,,
,,,,,,,,,,,,,,p,1,1.538,space,0.545,0,194,194,70,1,9_dist_green/trial21.png,,,1,9,greenverival,p,82,23,female,2021-03-02_13h15.41.328,exp11,2020.2.6,MacIntel,60,IwAR3GL60oPAnBkY7WQ984XcOwOfLGElnCJkT7eARhQbioXZf8HO34PhEWrpA,,,,,,,,,,,
,,,,,,,,,,,,,,p,1,0.887,space,0.165,0,195,195,26,1,3_dist_green/trial2.png,,,1,3,greenverival,p,82,23,female,2021-03-02_13h15.41.328,exp11,2020.2.6,MacIntel,60,IwAR3GL60oPAnBkY7WQ984XcOwOfLGElnCJkT7eARhQbioXZf8HO34PhEWrpA,,,,,,,,,,,
,,,,,,,,,,,,,,p,1,0.737,space,0.08,0,196,196,82,1,15_dist_green/trial8.png,,,1,15,greenverival,p,82,23,female,2021-03-02_13h15.41.328,exp11,2020.2.6,MacIntel,60,IwAR3GL60oPAnBkY7WQ984XcOwOfLGElnCJkT7eARhQbioXZf8HO34PhEWrpA,,,,,,,,,,,
,,,,,,,,,,,,,,a,1,0.87,space,0.177,0,197,197,139,1,0_targ_4_dist_green/trial15.png,,,0,4,greenverival,a,82,23,female,2021-03-02_13h15.41.328,exp11,2020.2.6,MacIntel,60,IwAR3GL60oPAnBkY7WQ984XcOwOfLGElnCJkT7eARhQbioXZf8HO34PhEWrpA,,,,,,,,,,,
,,,,,,,,,,,,,,p,1,0.964,space,0.102,0,198,198,89,1,15_dist_green/trial15.png,,,1,15,greenverival,p,82,23,female,2021-03-02_13h15.41.328,exp11,2020.2.6,MacIntel,60,IwAR3GL60oPAnBkY7WQ984XcOwOfLGElnCJkT7eARhQbioXZf8HO34PhEWrpA,,,,,,,,,,,
,,,,,,,,,,,,,,p,1,0.992,space,0.111,0,199,199,75,1,15_dist_green/trial1.png,,,1,15,greenverival,p,82,23,female,2021-03-02_13h15.41.328,exp11,2020.2.6,MacIntel,60,IwAR3GL60oPAnBkY7WQ984XcOwOfLGElnCJkT7eARhQbioXZf8HO34PhEWrpA,,,,,,,,,,,
,,,,,,,,,,,,,,,,,,,,,,,,,,,,,,,82,23,female,2021-03-02_13h15.41.328,exp11,2020.2.6,MacIntel,60,IwAR3GL60oPAnBkY7WQ984XcOwOfLGElnCJkT7eARhQbioXZf8HO34PhEWrpA,0,0,0,0,1,conGreen.xlsx,green vertical,Look for green vertical bar (target) and indicate if it is present or absent in the array. If green vertical target is present press 'p' and if absent press 'a'. Press SPACE to start.,,,
,,,,,,,,,,space,12.853,space,3.48,p,1,1.217,space,0.8,0,0,0,43,1,3_dist_red/trial19.png,,,1,3,redHorizontal,p,82,23,female,2021-03-02_13h15.41.328,exp11,2020.2.6,MacIntel,60,IwAR3GL60oPAnBkY7WQ984XcOwOfLGElnCJkT7eARhQbioXZf8HO34PhEWrpA,,,,,,,,,,,
,,,,,,,,,,,,,,p,1,1.272,space,0.522,0,1,1,74,1,9_dist_red/trial25.png,,,1,9,redHorizontal,p,82,23,female,2021-03-02_13h15.41.328,exp11,2020.2.6,MacIntel,60,IwAR3GL60oPAnBkY7WQ984XcOwOfLGElnCJkT7eARhQbioXZf8HO34PhEWrpA,,,,,,,,,,,
,,,,,,,,,,,,,,a,1,0.745,space,0.387,0,2,2,147,1,0_targ_4_dist_red/trial23.png,,,0,4,redHorizontal,a,82,23,female,2021-03-02_13h15.41.328,exp11,2020.2.6,MacIntel,60,IwAR3GL60oPAnBkY7WQ984XcOwOfLGElnCJkT7eARhQbioXZf8HO34PhEWrpA,,,,,,,,,,,
,,,,,,,,,,,,,,p,1,1.222,space,0.353,0,3,3,52,1,9_dist_red/trial3.png,,,1,9,redHorizontal,p,82,23,female,2021-03-02_13h15.41.328,exp11,2020.2.6,MacIntel,60,IwAR3GL60oPAnBkY7WQ984XcOwOfLGElnCJkT7eARhQbioXZf8HO34PhEWrpA,,,,,,,,,,,
,,,,,,,,,,,,,,p,1,0.543,space,0.261,0,4,4,13,1,0_dist_red/trial14.png,,,1,0,redHorizontal,p,82,23,female,2021-03-02_13h15.41.328,exp11,2020.2.6,MacIntel,60,IwAR3GL60oPAnBkY7WQ984XcOwOfLGElnCJkT7eARhQbioXZf8HO34PhEWrpA,,,,,,,,,,,
,,,,,,,,,,,,,,p,1,0.412,space,0.259,0,5,5,24,1,0_dist_red/trial25.png,,,1,0,redHorizontal,p,82,23,female,2021-03-02_13h15.41.328,exp11,2020.2.6,MacIntel,60,IwAR3GL60oPAnBkY7WQ984XcOwOfLGElnCJkT7eARhQbioXZf8HO34PhEWrpA,,,,,,,,,,,
,,,,,,,,,,,,,,a,1,0.872,space,0.196,0,6,6,183,1,0_targ_16_dist_red/trial9.png,,,0,16,redHorizontal,a,82,23,female,2021-03-02_13h15.41.328,exp11,2020.2.6,MacIntel,60,IwAR3GL60oPAnBkY7WQ984XcOwOfLGElnCJkT7eARhQbioXZf8HO34PhEWrpA,,,,,,,,,,,
,,,,,,,,,,,,,,a,1,0.677,space,0.125,0,7,7,140,1,0_targ_4_dist_red/trial6.png,,,0,4,redHorizontal,a,82,23,female,2021-03-02_13h15.41.328,exp11,2020.2.6,MacIntel,60,IwAR3GL60oPAnBkY7WQ984XcOwOfLGElnCJkT7eARhQbioXZf8HO34PhEWrpA,,,,,,,,,,,
,,,,,,,,,,,,,,a,0,0.425,space,0.379,0,8,8,18,1,0_dist_red/trial19.png,,,1,0,redHorizontal,p,82,23,female,2021-03-02_13h15.41.328,exp11,2020.2.6,MacIntel,60,IwAR3GL60oPAnBkY7WQ984XcOwOfLGElnCJkT7eARhQbioXZf8HO34PhEWrpA,,,,,,,,,,,
,,,,,,,,,,,,,,a,1,1.025,space,0.158,0,9,9,146,1,0_targ_4_dist_red/trial22.png,,,0,4,redHorizontal,a,82,23,female,2021-03-02_13h15.41.328,exp11,2020.2.6,MacIntel,60,IwAR3GL60oPAnBkY7WQ984XcOwOfLGElnCJkT7eARhQbioXZf8HO34PhEWrpA,,,,,,,,,,,
,,,,,,,,,,,,,,a,0,0.752,space,1.217,0,10,10,95,1,15_dist_red/trial21.png,,,1,15,redHorizontal,p,82,23,female,2021-03-02_13h15.41.328,exp11,2020.2.6,MacIntel,60,IwAR3GL60oPAnBkY7WQ984XcOwOfLGElnCJkT7eARhQbioXZf8HO34PhEWrpA,,,,,,,,,,,
,,,,,,,,,,,,,,p,1,1.437,space,0.072,0,11,11,98,1,15_dist_red/trial24.png,,,1,15,redHorizontal,p,82,23,female,2021-03-02_13h15.41.328,exp11,2020.2.6,MacIntel,60,IwAR3GL60oPAnBkY7WQ984XcOwOfLGElnCJkT7eARhQbioXZf8HO34PhEWrpA,,,,,,,,,,,
,,,,,,,,,,,,,,p,1,0.836,space,0.028,0,12,12,89,1,15_dist_red/trial15.png,,,1,15,redHorizontal,p,82,23,female,2021-03-02_13h15.41.328,exp11,2020.2.6,MacIntel,60,IwAR3GL60oPAnBkY7WQ984XcOwOfLGElnCJkT7eARhQbioXZf8HO34PhEWrpA,,,,,,,,,,,
,,,,,,,,,,,,,,p,1,0.712,space,0.078,0,13,13,65,1,9_dist_red/trial16.png,,,1,9,redHorizontal,p,82,23,female,2021-03-02_13h15.41.328,exp11,2020.2.6,MacIntel,60,IwAR3GL60oPAnBkY7WQ984XcOwOfLGElnCJkT7eARhQbioXZf8HO34PhEWrpA,,,,,,,,,,,
,,,,,,,,,,,,,,a,1,0.962,space,0.149,0,14,14,106,1,0_targ_1_dist_red/trial7.png,,,0,1,redHorizontal,a,82,23,female,2021-03-02_13h15.41.328,exp11,2020.2.6,MacIntel,60,IwAR3GL60oPAnBkY7WQ984XcOwOfLGElnCJkT7eARhQbioXZf8HO34PhEWrpA,,,,,,,,,,,
,,,,,,,,,,,,,,a,1,0.555,space,0.119,0,15,15,165,1,0_targ_10_dist_red/trial16.png,,,0,10,redHorizontal,a,82,23,female,2021-03-02_13h15.41.328,exp11,2020.2.6,MacIntel,60,IwAR3GL60oPAnBkY7WQ984XcOwOfLGElnCJkT7eARhQbioXZf8HO34PhEWrpA,,,,,,,,,,,
,,,,,,,,,,,,,,a,1,0.575,space,0.162,0,16,16,188,1,0_targ_16_dist_red/trial14.png,,,0,16,redHorizontal,a,82,23,female,2021-03-02_13h15.41.328,exp11,2020.2.6,MacIntel,60,IwAR3GL60oPAnBkY7WQ984XcOwOfLGElnCJkT7eARhQbioXZf8HO34PhEWrpA,,,,,,,,,,,
,,,,,,,,,,,,,,p,1,0.505,space,0.125,0,17,17,16,1,0_dist_red/trial17.png,,,1,0,redHorizontal,p,82,23,female,2021-03-02_13h15.41.328,exp11,2020.2.6,MacIntel,60,IwAR3GL60oPAnBkY7WQ984XcOwOfLGElnCJkT7eARhQbioXZf8HO34PhEWrpA,,,,,,,,,,,
,,,,,,,,,,,,,,p,1,0.554,space,0.101,0,18,18,42,1,3_dist_red/trial18.png,,,1,3,redHorizontal,p,82,23,female,2021-03-02_13h15.41.328,exp11,2020.2.6,MacIntel,60,IwAR3GL60oPAnBkY7WQ984XcOwOfLGElnCJkT7eARhQbioXZf8HO34PhEWrpA,,,,,,,,,,,
,,,,,,,,,,,,,,a,1,0.612,space,0.128,0,19,19,148,1,0_targ_4_dist_red/trial24.png,,,0,4,redHorizontal,a,82,23,female,2021-03-02_13h15.41.328,exp11,2020.2.6,MacIntel,60,IwAR3GL60oPAnBkY7WQ984XcOwOfLGElnCJkT7eARhQbioXZf8HO34PhEWrpA,,,,,,,,,,,
,,,,,,,,,,,,,,a,1,0.555,space,0.161,0,20,20,107,1,0_targ_1_dist_red/trial8.png,,,0,1,redHorizontal,a,82,23,female,2021-03-02_13h15.41.328,exp11,2020.2.6,MacIntel,60,IwAR3GL60oPAnBkY7WQ984XcOwOfLGElnCJkT7eARhQbioXZf8HO34PhEWrpA,,,,,,,,,,,
,,,,,,,,,,,,,,a,0,0.594,space,0.288,0,21,21,84,1,15_dist_red/trial10.png,,,1,15,redHorizontal,p,82,23,female,2021-03-02_13h15.41.328,exp11,2020.2.6,MacIntel,60,IwAR3GL60oPAnBkY7WQ984XcOwOfLGElnCJkT7eARhQbioXZf8HO34PhEWrpA,,,,,,,,,,,
,,,,,,,,,,,,,,p,1,0.66,space,0.102,0,22,22,45,1,3_dist_red/trial21.png,,,1,3,redHorizontal,p,82,23,female,2021-03-02_13h15.41.328,exp11,2020.2.6,MacIntel,60,IwAR3GL60oPAnBkY7WQ984XcOwOfLGElnCJkT7eARhQbioXZf8HO34PhEWrpA,,,,,,,,,,,
,,,,,,,,,,,,,,p,1,0.551,space,0.084,0,23,23,10,1,0_dist_red/trial11.png,,,1,0,redHorizontal,p,82,23,female,2021-03-02_13h15.41.328,exp11,2020.2.6,MacIntel,60,IwAR3GL60oPAnBkY7WQ984XcOwOfLGElnCJkT7eARhQbioXZf8HO34PhEWrpA,,,,,,,,,,,
,,,,,,,,,,,,,,a,1,1.025,space,0.125,0,24,24,143,1,0_targ_4_dist_red/trial19.png,,,0,4,redHorizontal,a,82,23,female,2021-03-02_13h15.41.328,exp11,2020.2.6,MacIntel,60,IwAR3GL60oPAnBkY7WQ984XcOwOfLGElnCJkT7eARhQbioXZf8HO34PhEWrpA,,,,,,,,,,,
,,,,,,,,,,,,,,a,1,0.537,space,0.356,0,25,25,166,1,0_targ_10_dist_red/trial17.png,,,0,10,redHorizontal,a,82,23,female,2021-03-02_13h15.41.328,exp11,2020.2.6,MacIntel,60,IwAR3GL60oPAnBkY7WQ984XcOwOfLGElnCJkT7eARhQbioXZf8HO34PhEWrpA,,,,,,,,,,,
,,,,,,,,,,,,,,a,0,0.565,space,1.119,0,26,26,29,1,3_dist_red/trial5.png,,,1,3,redHorizontal,p,82,23,female,2021-03-02_13h15.41.328,exp11,2020.2.6,MacIntel,60,IwAR3GL60oPAnBkY7WQ984XcOwOfLGElnCJkT7eARhQbioXZf8HO34PhEWrpA,,,,,,,,,,,
,,,,,,,,,,,,,,p,1,1.372,space,0.655,0,27,27,50,1,9_dist_red/trial1.png,,,1,9,redHorizontal,p,82,23,female,2021-03-02_13h15.41.328,exp11,2020.2.6,MacIntel,60,IwAR3GL60oPAnBkY7WQ984XcOwOfLGElnCJkT7eARhQbioXZf8HO34PhEWrpA,,,,,,,,,,,
,,,,,,,,,,,,,,a,1,0.823,space,0.127,0,28,28,152,1,0_targ_10_dist_red/trial3.png,,,0,10,redHorizontal,a,82,23,female,2021-03-02_13h15.41.328,exp11,2020.2.6,MacIntel,60,IwAR3GL60oPAnBkY7WQ984XcOwOfLGElnCJkT7eARhQbioXZf8HO34PhEWrpA,,,,,,,,,,,
,,,,,,,,,,,,,,a,1,0.455,space,0.225,0,29,29,120,1,0_targ_1_dist_red/trial21.png,,,0,1,redHorizontal,a,82,23,female,2021-03-02_13h15.41.328,exp11,2020.2.6,MacIntel,60,IwAR3GL60oPAnBkY7WQ984XcOwOfLGElnCJkT7eARhQbioXZf8HO34PhEWrpA,,,,,,,,,,,
,,,,,,,,,,,,,,a,1,0.54,space,0.198,0,30,30,130,1,0_targ_4_dist_red/trial6.png,,,0,4,redHorizontal,a,82,23,female,2021-03-02_13h15.41.328,exp11,2020.2.6,MacIntel,60,IwAR3GL60oPAnBkY7WQ984XcOwOfLGElnCJkT7eARhQbioXZf8HO34PhEWrpA,,,,,,,,,,,
,,,,,,,,,,,,,,a,1,0.375,space,0.219,0,31,31,114,1,0_targ_1_dist_red/trial15.png,,,0,1,redHorizontal,a,82,23,female,2021-03-02_13h15.41.328,exp11,2020.2.6,MacIntel,60,IwAR3GL60oPAnBkY7WQ984XcOwOfLGElnCJkT7eARhQbioXZf8HO34PhEWrpA,,,,,,,,,,,
,,,,,,,,,,,,,,a,0,0.375,space,0.576,0,32,32,6,1,0_dist_red/trial7.png,,,1,0,redHorizontal,p,82,23,female,2021-03-02_13h15.41.328,exp11,2020.2.6,MacIntel,60,IwAR3GL60oPAnBkY7WQ984XcOwOfLGElnCJkT7eARhQbioXZf8HO34PhEWrpA,,,,,,,,,,,
,,,,,,,,,,,,,,p,1,0.559,space,0.133,0,33,33,3,1,0_dist_red/trial4.png,,,1,0,redHorizontal,p,82,23,female,2021-03-02_13h15.41.328,exp11,2020.2.6,MacIntel,60,IwAR3GL60oPAnBkY7WQ984XcOwOfLGElnCJkT7eARhQbioXZf8HO34PhEWrpA,,,,,,,,,,,
,,,,,,,,,,,,,,a,1,0.818,space,0.328,0,34,34,190,1,0_targ_16_dist_red/trial16.png,,,0,16,redHorizontal,a,82,23,female,2021-03-02_13h15.41.328,exp11,2020.2.6,MacIntel,60,IwAR3GL60oPAnBkY7WQ984XcOwOfLGElnCJkT7eARhQbioXZf8HO34PhEWrpA,,,,,,,,,,,
,,,,,,,,,,,,,,a,1,0.728,space,0.168,0,35,35,137,1,0_targ_4_dist_red/trial13.png,,,0,4,redHorizontal,a,82,23,female,2021-03-02_13h15.41.328,exp11,2020.2.6,MacIntel,60,IwAR3GL60oPAnBkY7WQ984XcOwOfLGElnCJkT7eARhQbioXZf8HO34PhEWrpA,,,,,,,,,,,
,,,,,,,,,,,,,,p,1,0.525,space,0.208,0,36,36,71,1,9_dist_red/trial22.png,,,1,9,redHorizontal,p,82,23,female,2021-03-02_13h15.41.328,exp11,2020.2.6,MacIntel,60,IwAR3GL60oPAnBkY7WQ984XcOwOfLGElnCJkT7eARhQbioXZf8HO34PhEWrpA,,,,,,,,,,,
,,,,,,,,,,,,,,p,1,0.898,space,0.134,0,37,37,32,1,3_dist_red/trial8.png,,,1,3,redHorizontal,p,82,23,female,2021-03-02_13h15.41.328,exp11,2020.2.6,MacIntel,60,IwAR3GL60oPAnBkY7WQ984XcOwOfLGElnCJkT7eARhQbioXZf8HO34PhEWrpA,,,,,,,,,,,
,,,,,,,,,,,,,,a,1,0.785,space,2.216,0,38,38,162,1,0_targ_10_dist_red/trial13.png,,,0,10,redHorizontal,a,82,23,female,2021-03-02_13h15.41.328,exp11,2020.2.6,MacIntel,60,IwAR3GL60oPAnBkY7WQ984XcOwOfLGElnCJkT7eARhQbioXZf8HO34PhEWrpA,,,,,,,,,,,
,,,,,,,,,,,,,,a,1,0.731,space,0.195,0,39,39,117,1,0_targ_1_dist_red/trial18.png,,,0,1,redHorizontal,a,82,23,female,2021-03-02_13h15.41.328,exp11,2020.2.6,MacIntel,60,IwAR3GL60oPAnBkY7WQ984XcOwOfLGElnCJkT7eARhQbioXZf8HO34PhEWrpA,,,,,,,,,,,
,,,,,,,,,,,,,,p,1,0.856,space,0.144,0,40,40,73,1,9_dist_red/trial24.png,,,1,9,redHorizontal,p,82,23,female,2021-03-02_13h15.41.328,exp11,2020.2.6,MacIntel,60,IwAR3GL60oPAnBkY7WQ984XcOwOfLGElnCJkT7eARhQbioXZf8HO34PhEWrpA,,,,,,,,,,,
,,,,,,,,,,,,,,a,1,2.093,space,0.183,0,41,41,127,1,0_targ_4_dist_red/trial3.png,,,0,4,redHorizontal,a,82,23,female,2021-03-02_13h15.41.328,exp11,2020.2.6,MacIntel,60,IwAR3GL60oPAnBkY7WQ984XcOwOfLGElnCJkT7eARhQbioXZf8HO34PhEWrpA,,,,,,,,,,,
,,,,,,,,,,,,,,a,0,0.676,space,1.284,0,42,42,53,1,9_dist_red/trial4.png,,,1,9,redHorizontal,p,82,23,female,2021-03-02_13h15.41.328,exp11,2020.2.6,MacIntel,60,IwAR3GL60oPAnBkY7WQ984XcOwOfLGElnCJkT7eARhQbioXZf8HO34PhEWrpA,,,,,,,,,,,
,,,,,,,,,,,,,,a,1,2.146,space,0.584,0,43,43,118,1,0_targ_1_dist_red/trial19.png,,,0,1,redHorizontal,a,82,23,female,2021-03-02_13h15.41.328,exp11,2020.2.6,MacIntel,60,IwAR3GL60oPAnBkY7WQ984XcOwOfLGElnCJkT7eARhQbioXZf8HO34PhEWrpA,,,,,,,,,,,
,,,,,,,,,,,,,,p,1,3.387,space,0.233,0,44,44,92,1,15_dist_red/trial18.png,,,1,15,redHorizontal,p,82,23,female,2021-03-02_13h15.41.328,exp11,2020.2.6,MacIntel,60,IwAR3GL60oPAnBkY7WQ984XcOwOfLGElnCJkT7eARhQbioXZf8HO34PhEWrpA,,,,,,,,,,,
,,,,,,,,,,,,,,a,1,0.754,space,0.215,0,45,45,142,1,0_targ_4_dist_red/trial18.png,,,0,4,redHorizontal,a,82,23,female,2021-03-02_13h15.41.328,exp11,2020.2.6,MacIntel,60,IwAR3GL60oPAnBkY7WQ984XcOwOfLGElnCJkT7eARhQbioXZf8HO34PhEWrpA,,,,,,,,,,,
,,,,,,,,,,,,,,a,1,0.656,space,0.192,0,46,46,136,1,0_targ_4_dist_red/trial12.png,,,0,4,redHorizontal,a,82,23,female,2021-03-02_13h15.41.328,exp11,2020.2.6,MacIntel,60,IwAR3GL60oPAnBkY7WQ984XcOwOfLGElnCJkT7eARhQbioXZf8HO34PhEWrpA,,,,,,,,,,,
,,,,,,,,,,,,,,a,1,0.811,space,0.21,0,47,47,185,1,0_targ_16_dist_red/trial11.png,,,0,16,redHorizontal,a,82,23,female,2021-03-02_13h15.41.328,exp11,2020.2.6,MacIntel,60,IwAR3GL60oPAnBkY7WQ984XcOwOfLGElnCJkT7eARhQbioXZf8HO34PhEWrpA,,,,,,,,,,,
,,,,,,,,,,,,,,a,1,0.523,space,0.186,0,48,48,155,1,0_targ_10_dist_red/trial6.png,,,0,10,redHorizontal,a,82,23,female,2021-03-02_13h15.41.328,exp11,2020.2.6,MacIntel,60,IwAR3GL60oPAnBkY7WQ984XcOwOfLGElnCJkT7eARhQbioXZf8HO34PhEWrpA,,,,,,,,,,,
,,,,,,,,,,,,,,a,1,0.471,space,0.189,0,49,49,159,1,0_targ_10_dist_red/trial10.png,,,0,10,redHorizontal,a,82,23,female,2021-03-02_13h15.41.328,exp11,2020.2.6,MacIntel,60,IwAR3GL60oPAnBkY7WQ984XcOwOfLGElnCJkT7eARhQbioXZf8HO34PhEWrpA,,,,,,,,,,,
,,,,,,,,,,,,,,a,1,0.606,space,0.211,0,50,50,113,1,0_targ_1_dist_red/trial14.png,,,0,1,redHorizontal,a,82,23,female,2021-03-02_13h15.41.328,exp11,2020.2.6,MacIntel,60,IwAR3GL60oPAnBkY7WQ984XcOwOfLGElnCJkT7eARhQbioXZf8HO34PhEWrpA,,,,,,,,,,,
,,,,,,,,,,,,,,a,1,0.405,space,0.336,0,51,51,126,1,0_targ_4_dist_red/trial2.png,,,0,4,redHorizontal,a,82,23,female,2021-03-02_13h15.41.328,exp11,2020.2.6,MacIntel,60,IwAR3GL60oPAnBkY7WQ984XcOwOfLGElnCJkT7eARhQbioXZf8HO34PhEWrpA,,,,,,,,,,,
,,,,,,,,,,,,,,a,0,0.359,space,0.105,0,52,52,39,1,3_dist_red/trial15.png,,,1,3,redHorizontal,p,82,23,female,2021-03-02_13h15.41.328,exp11,2020.2.6,MacIntel,60,IwAR3GL60oPAnBkY7WQ984XcOwOfLGElnCJkT7eARhQbioXZf8HO34PhEWrpA,,,,,,,,,,,
,,,,,,,,,,,,,,p,1,0.688,space,0.129,0,53,53,11,1,0_dist_red/trial12.png,,,1,0,redHorizontal,p,82,23,female,2021-03-02_13h15.41.328,exp11,2020.2.6,MacIntel,60,IwAR3GL60oPAnBkY7WQ984XcOwOfLGElnCJkT7eARhQbioXZf8HO34PhEWrpA,,,,,,,,,,,
,,,,,,,,,,,,,,a,1,0.833,space,0.182,0,54,54,156,1,0_targ_10_dist_red/trial7.png,,,0,10,redHorizontal,a,82,23,female,2021-03-02_13h15.41.328,exp11,2020.2.6,MacIntel,60,IwAR3GL60oPAnBkY7WQ984XcOwOfLGElnCJkT7eARhQbioXZf8HO34PhEWrpA,,,,,,,,,,,
,,,,,,,,,,,,,,a,1,0.61,space,0.192,0,55,55,153,1,0_targ_10_dist_red/trial4.png,,,0,10,redHorizontal,a,82,23,female,2021-03-02_13h15.41.328,exp11,2020.2.6,MacIntel,60,IwAR3GL60oPAnBkY7WQ984XcOwOfLGElnCJkT7eARhQbioXZf8HO34PhEWrpA,,,,,,,,,,,
,,,,,,,,,,,,,,p,1,0.621,space,0.199,0,56,56,63,1,9_dist_red/trial14.png,,,1,9,redHorizontal,p,82,23,female,2021-03-02_13h15.41.328,exp11,2020.2.6,MacIntel,60,IwAR3GL60oPAnBkY7WQ984XcOwOfLGElnCJkT7eARhQbioXZf8HO34PhEWrpA,,,,,,,,,,,
,,,,,,,,,,,,,,a,1,0.627,space,0.173,0,57,57,187,1,0_targ_16_dist_red/trial13.png,,,0,16,redHorizontal,a,82,23,female,2021-03-02_13h15.41.328,exp11,2020.2.6,MacIntel,60,IwAR3GL60oPAnBkY7WQ984XcOwOfLGElnCJkT7eARhQbioXZf8HO34PhEWrpA,,,,,,,,,,,
,,,,,,,,,,,,,,p,1,0.556,space,0.168,0,58,58,93,1,15_dist_red/trial19.png,,,1,15,redHorizontal,p,82,23,female,2021-03-02_13h15.41.328,exp11,2020.2.6,MacIntel,60,IwAR3GL60oPAnBkY7WQ984XcOwOfLGElnCJkT7eARhQbioXZf8HO34PhEWrpA,,,,,,,,,,,
,,,,,,,,,,,,,,p,1,0.636,space,0.144,0,59,59,28,1,3_dist_red/trial4.png,,,1,3,redHorizontal,p,82,23,female,2021-03-02_13h15.41.328,exp11,2020.2.6,MacIntel,60,IwAR3GL60oPAnBkY7WQ984XcOwOfLGElnCJkT7eARhQbioXZf8HO34PhEWrpA,,,,,,,,,,,
,,,,,,,,,,,,,,p,1,0.711,space,0.161,0,60,60,77,1,15_dist_red/trial3.png,,,1,15,redHorizontal,p,82,23,female,2021-03-02_13h15.41.328,exp11,2020.2.6,MacIntel,60,IwAR3GL60oPAnBkY7WQ984XcOwOfLGElnCJkT7eARhQbioXZf8HO34PhEWrpA,,,,,,,,,,,
,,,,,,,,,,,,,,p,1,0.522,space,0.219,0,61,61,88,1,15_dist_red/trial14.png,,,1,15,redHorizontal,p,82,23,female,2021-03-02_13h15.41.328,exp11,2020.2.6,MacIntel,60,IwAR3GL60oPAnBkY7WQ984XcOwOfLGElnCJkT7eARhQbioXZf8HO34PhEWrpA,,,,,,,,,,,
,,,,,,,,,,,,,,p,1,0.593,space,0.229,0,62,62,30,1,3_dist_red/trial6.png,,,1,3,redHorizontal,p,82,23,female,2021-03-02_13h15.41.328,exp11,2020.2.6,MacIntel,60,IwAR3GL60oPAnBkY7WQ984XcOwOfLGElnCJkT7eARhQbioXZf8HO34PhEWrpA,,,,,,,,,,,
,,,,,,,,,,,,,,a,1,0.847,space,0.177,0,63,63,179,1,0_targ_16_dist_red/trial5.png,,,0,16,redHorizontal,a,82,23,female,2021-03-02_13h15.41.328,exp11,2020.2.6,MacIntel,60,IwAR3GL60oPAnBkY7WQ984XcOwOfLGElnCJkT7eARhQbioXZf8HO34PhEWrpA,,,,,,,,,,,
,,,,,,,,,,,,,,p,1,0.571,space,0.207,0,64,64,21,1,0_dist_red/trial22.png,,,1,0,redHorizontal,p,82,23,female,2021-03-02_13h15.41.328,exp11,2020.2.6,MacIntel,60,IwAR3GL60oPAnBkY7WQ984XcOwOfLGElnCJkT7eARhQbioXZf8HO34PhEWrpA,,,,,,,,,,,
,,,,,,,,,,,,,,p,1,0.56,space,0.146,0,65,65,36,1,3_dist_red/trial12.png,,,1,3,redHorizontal,p,82,23,female,2021-03-02_13h15.41.328,exp11,2020.2.6,MacIntel,60,IwAR3GL60oPAnBkY7WQ984XcOwOfLGElnCJkT7eARhQbioXZf8HO34PhEWrpA,,,,,,,,,,,
,,,,,,,,,,,,,,a,1,0.572,space,0.189,0,66,66,172,1,0_targ_10_dist_red/trial23.png,,,0,10,redHorizontal,a,82,23,female,2021-03-02_13h15.41.328,exp11,2020.2.6,MacIntel,60,IwAR3GL60oPAnBkY7WQ984XcOwOfLGElnCJkT7eARhQbioXZf8HO34PhEWrpA,,,,,,,,,,,
,,,,,,,,,,,,,,p,0,0.528,space,1.955,0,67,67,196,1,0_targ_16_dist_red/trial22.png,,,0,16,redHorizontal,a,82,23,female,2021-03-02_13h15.41.328,exp11,2020.2.6,MacIntel,60,IwAR3GL60oPAnBkY7WQ984XcOwOfLGElnCJkT7eARhQbioXZf8HO34PhEWrpA,,,,,,,,,,,
,,,,,,,,,,,,,,p,1,0.76,space,0.133,0,68,68,96,1,15_dist_red/trial22.png,,,1,15,redHorizontal,p,82,23,female,2021-03-02_13h15.41.328,exp11,2020.2.6,MacIntel,60,IwAR3GL60oPAnBkY7WQ984XcOwOfLGElnCJkT7eARhQbioXZf8HO34PhEWrpA,,,,,,,,,,,
,,,,,,,,,,,,,,p,1,0.822,space,0.14,0,69,69,85,1,15_dist_red/trial11.png,,,1,15,redHorizontal,p,82,23,female,2021-03-02_13h15.41.328,exp11,2020.2.6,MacIntel,60,IwAR3GL60oPAnBkY7WQ984XcOwOfLGElnCJkT7eARhQbioXZf8HO34PhEWrpA,,,,,,,,,,,
,,,,,,,,,,,,,,p,1,0.536,space,0.142,0,70,70,25,1,3_dist_red/trial1.png,,,1,3,redHorizontal,p,82,23,female,2021-03-02_13h15.41.328,exp11,2020.2.6,MacIntel,60,IwAR3GL60oPAnBkY7WQ984XcOwOfLGElnCJkT7eARhQbioXZf8HO34PhEWrpA,,,,,,,,,,,
,,,,,,,,,,,,,,a,1,0.842,space,0.158,0,71,71,102,1,0_targ_1_dist_red/trial3.png,,,0,1,redHorizontal,a,82,23,female,2021-03-02_13h15.41.328,exp11,2020.2.6,MacIntel,60,IwAR3GL60oPAnBkY7WQ984XcOwOfLGElnCJkT7eARhQbioXZf8HO34PhEWrpA,,,,,,,,,,,
,,,,,,,,,,,,,,a,0,0.435,space,0.383,0,72,72,22,1,0_dist_red/trial23.png,,,1,0,redHorizontal,p,82,23,female,2021-03-02_13h15.41.328,exp11,2020.2.6,MacIntel,60,IwAR3GL60oPAnBkY7WQ984XcOwOfLGElnCJkT7eARhQbioXZf8HO34PhEWrpA,,,,,,,,,,,
,,,,,,,,,,,,,,a,1,2.448,space,0.158,0,73,73,125,1,0_targ_4_dist_red/trial1.png,,,0,4,redHorizontal,a,82,23,female,2021-03-02_13h15.41.328,exp11,2020.2.6,MacIntel,60,IwAR3GL60oPAnBkY7WQ984XcOwOfLGElnCJkT7eARhQbioXZf8HO34PhEWrpA,,,,,,,,,,,
,,,,,,,,,,,,,,a,1,0.682,space,0.134,0,74,74,105,1,0_targ_1_dist_red/trial6.png,,,0,1,redHorizontal,a,82,23,female,2021-03-02_13h15.41.328,exp11,2020.2.6,MacIntel,60,IwAR3GL60oPAnBkY7WQ984XcOwOfLGElnCJkT7eARhQbioXZf8HO34PhEWrpA,,,,,,,,,,,
,,,,,,,,,,,,,,a,1,0.719,space,0.159,0,75,75,194,1,0_targ_16_dist_red/trial20.png,,,0,16,redHorizontal,a,82,23,female,2021-03-02_13h15.41.328,exp11,2020.2.6,MacIntel,60,IwAR3GL60oPAnBkY7WQ984XcOwOfLGElnCJkT7eARhQbioXZf8HO34PhEWrpA,,,,,,,,,,,
,,,,,,,,,,,,,,p,1,0.669,space,0.167,0,76,76,15,1,0_dist_red/trial16.png,,,1,0,redHorizontal,p,82,23,female,2021-03-02_13h15.41.328,exp11,2020.2.6,MacIntel,60,IwAR3GL60oPAnBkY7WQ984XcOwOfLGElnCJkT7eARhQbioXZf8HO34PhEWrpA,,,,,,,,,,,
,,,,,,,,,,,,,,a,1,0.575,space,0.199,0,77,77,132,1,0_targ_4_dist_red/trial8.png,,,0,4,redHorizontal,a,82,23,female,2021-03-02_13h15.41.328,exp11,2020.2.6,MacIntel,60,IwAR3GL60oPAnBkY7WQ984XcOwOfLGElnCJkT7eARhQbioXZf8HO34PhEWrpA,,,,,,,,,,,
,,,,,,,,,,,,,,a,1,0.557,space,0.177,0,78,78,133,1,0_targ_4_dist_red/trial9.png,,,0,4,redHorizontal,a,82,23,female,2021-03-02_13h15.41.328,exp11,2020.2.6,MacIntel,60,IwAR3GL60oPAnBkY7WQ984XcOwOfLGElnCJkT7eARhQbioXZf8HO34PhEWrpA,,,,,,,,,,,
,,,,,,,,,,,,,,a,1,0.48,space,0.197,0,79,79,139,1,0_targ_4_dist_red/trial15.png,,,0,4,redHorizontal,a,82,23,female,2021-03-02_13h15.41.328,exp11,2020.2.6,MacIntel,60,IwAR3GL60oPAnBkY7WQ984XcOwOfLGElnCJkT7eARhQbioXZf8HO34PhEWrpA,,,,,,,,,,,
,,,,,,,,,,,,,,a,1,0.635,space,0.152,0,80,80,124,1,0_targ_1_dist_red/trial25.png,,,0,1,redHorizontal,a,82,23,female,2021-03-02_13h15.41.328,exp11,2020.2.6,MacIntel,60,IwAR3GL60oPAnBkY7WQ984XcOwOfLGElnCJkT7eARhQbioXZf8HO34PhEWrpA,,,,,,,,,,,
,,,,,,,,,,,,,,a,1,0.587,space,0.176,0,81,81,151,1,0_targ_10_dist_red/trial2.png,,,0,10,redHorizontal,a,82,23,female,2021-03-02_13h15.41.328,exp11,2020.2.6,MacIntel,60,IwAR3GL60oPAnBkY7WQ984XcOwOfLGElnCJkT7eARhQbioXZf8HO34PhEWrpA,,,,,,,,,,,
,,,,,,,,,,,,,,p,1,0.685,space,0.127,0,82,82,70,1,9_dist_red/trial21.png,,,1,9,redHorizontal,p,82,23,female,2021-03-02_13h15.41.328,exp11,2020.2.6,MacIntel,60,IwAR3GL60oPAnBkY7WQ984XcOwOfLGElnCJkT7eARhQbioXZf8HO34PhEWrpA,,,,,,,,,,,
,,,,,,,,,,,,,,a,1,0.793,space,0.152,0,83,83,123,1,0_targ_1_dist_red/trial24.png,,,0,1,redHorizontal,a,82,23,female,2021-03-02_13h15.41.328,exp11,2020.2.6,MacIntel,60,IwAR3GL60oPAnBkY7WQ984XcOwOfLGElnCJkT7eARhQbioXZf8HO34PhEWrpA,,,,,,,,,,,
,,,,,,,,,,,,,,a,0,0.672,space,0.403,0,84,84,20,1,0_dist_red/trial21.png,,,1,0,redHorizontal,p,82,23,female,2021-03-02_13h15.41.328,exp11,2020.2.6,MacIntel,60,IwAR3GL60oPAnBkY7WQ984XcOwOfLGElnCJkT7eARhQbioXZf8HO34PhEWrpA,,,,,,,,,,,
,,,,,,,,,,,,,,p,1,0.841,space,0.083,0,85,85,83,1,15_dist_red/trial9.png,,,1,15,redHorizontal,p,82,23,female,2021-03-02_13h15.41.328,exp11,2020.2.6,MacIntel,60,IwAR3GL60oPAnBkY7WQ984XcOwOfLGElnCJkT7eARhQbioXZf8HO34PhEWrpA,,,,,,,,,,,
,,,,,,,,,,,,,,a,1,0.888,space,1.479,0,86,86,195,1,0_targ_16_dist_red/trial21.png,,,0,16,redHorizontal,a,82,23,female,2021-03-02_13h15.41.328,exp11,2020.2.6,MacIntel,60,IwAR3GL60oPAnBkY7WQ984XcOwOfLGElnCJkT7eARhQbioXZf8HO34PhEWrpA,,,,,,,,,,,
,,,,,,,,,,,,,,a,1,1.144,space,0.169,0,87,87,192,1,0_targ_16_dist_red/trial18.png,,,0,16,redHorizontal,a,82,23,female,2021-03-02_13h15.41.328,exp11,2020.2.6,MacIntel,60,IwAR3GL60oPAnBkY7WQ984XcOwOfLGElnCJkT7eARhQbioXZf8HO34PhEWrpA,,,,,,,,,,,
,,,,,,,,,,,,,,a,1,0.836,space,0.12,0,88,88,191,1,0_targ_16_dist_red/trial17.png,,,0,16,redHorizontal,a,82,23,female,2021-03-02_13h15.41.328,exp11,2020.2.6,MacIntel,60,IwAR3GL60oPAnBkY7WQ984XcOwOfLGElnCJkT7eARhQbioXZf8HO34PhEWrpA,,,,,,,,,,,
,,,,,,,,,,,,,,a,1,0.602,space,0.126,0,89,89,193,1,0_targ_16_dist_red/trial19.png,,,0,16,redHorizontal,a,82,23,female,2021-03-02_13h15.41.328,exp11,2020.2.6,MacIntel,60,IwAR3GL60oPAnBkY7WQ984XcOwOfLGElnCJkT7eARhQbioXZf8HO34PhEWrpA,,,,,,,,,,,
,,,,,,,,,,,,,,a,1,0.676,space,0.159,0,90,90,101,1,0_targ_1_dist_red/trial2.png,,,0,1,redHorizontal,a,82,23,female,2021-03-02_13h15.41.328,exp11,2020.2.6,MacIntel,60,IwAR3GL60oPAnBkY7WQ984XcOwOfLGElnCJkT7eARhQbioXZf8HO34PhEWrpA,,,,,,,,,,,
,,,,,,,,,,,,,,a,1,0.456,space,0.17,0,91,91,110,1,0_targ_1_dist_red/trial11.png,,,0,1,redHorizontal,a,82,23,female,2021-03-02_13h15.41.328,exp11,2020.2.6,MacIntel,60,IwAR3GL60oPAnBkY7WQ984XcOwOfLGElnCJkT7eARhQbioXZf8HO34PhEWrpA,,,,,,,,,,,
,,,,,,,,,,,,,,a,1,0.497,space,0.174,0,92,92,131,1,0_targ_4_dist_red/trial7.png,,,0,4,redHorizontal,a,82,23,female,2021-03-02_13h15.41.328,exp11,2020.2.6,MacIntel,60,IwAR3GL60oPAnBkY7WQ984XcOwOfLGElnCJkT7eARhQbioXZf8HO34PhEWrpA,,,,,,,,,,,
,,,,,,,,,,,,,,a,1,0.635,space,0.164,0,93,93,122,1,0_targ_1_dist_red/trial23.png,,,0,1,redHorizontal,a,82,23,female,2021-03-02_13h15.41.328,exp11,2020.2.6,MacIntel,60,IwAR3GL60oPAnBkY7WQ984XcOwOfLGElnCJkT7eARhQbioXZf8HO34PhEWrpA,,,,,,,,,,,
,,,,,,,,,,,,,,a,1,0.511,space,0.167,0,94,94,168,1,0_targ_10_dist_red/trial19.png,,,0,10,redHorizontal,a,82,23,female,2021-03-02_13h15.41.328,exp11,2020.2.6,MacIntel,60,IwAR3GL60oPAnBkY7WQ984XcOwOfLGElnCJkT7eARhQbioXZf8HO34PhEWrpA,,,,,,,,,,,
,,,,,,,,,,,,,,p,1,0.394,space,0.176,0,95,95,23,1,0_dist_red/trial24.png,,,1,0,redHorizontal,p,82,23,female,2021-03-02_13h15.41.328,exp11,2020.2.6,MacIntel,60,IwAR3GL60oPAnBkY7WQ984XcOwOfLGElnCJkT7eARhQbioXZf8HO34PhEWrpA,,,,,,,,,,,
,,,,,,,,,,,,,,a,1,0.526,space,0.181,0,96,96,144,1,0_targ_4_dist_red/trial20.png,,,0,4,redHorizontal,a,82,23,female,2021-03-02_13h15.41.328,exp11,2020.2.6,MacIntel,60,IwAR3GL60oPAnBkY7WQ984XcOwOfLGElnCJkT7eARhQbioXZf8HO34PhEWrpA,,,,,,,,,,,
,,,,,,,,,,,,,,p,1,0.76,space,0.174,0,97,97,66,1,9_dist_red/trial17.png,,,1,9,redHorizontal,p,82,23,female,2021-03-02_13h15.41.328,exp11,2020.2.6,MacIntel,60,IwAR3GL60oPAnBkY7WQ984XcOwOfLGElnCJkT7eARhQbioXZf8HO34PhEWrpA,,,,,,,,,,,
,,,,,,,,,,,,,,a,1,0.603,space,0.135,0,98,98,184,1,0_targ_16_dist_red/trial10.png,,,0,16,redHorizontal,a,82,23,female,2021-03-02_13h15.41.328,exp11,2020.2.6,MacIntel,60,IwAR3GL60oPAnBkY7WQ984XcOwOfLGElnCJkT7eARhQbioXZf8HO34PhEWrpA,,,,,,,,,,,
,,,,,,,,,,,,,,p,1,0.558,space,0.118,0,99,99,17,1,0_dist_red/trial18.png,,,1,0,redHorizontal,p,82,23,female,2021-03-02_13h15.41.328,exp11,2020.2.6,MacIntel,60,IwAR3GL60oPAnBkY7WQ984XcOwOfLGElnCJkT7eARhQbioXZf8HO34PhEWrpA,,,,,,,,,,,
,,,,,,,,,,,,,,p,1,0.575,space,0.21,0,100,100,67,1,9_dist_red/trial18.png,,,1,9,redHorizontal,p,82,23,female,2021-03-02_13h15.41.328,exp11,2020.2.6,MacIntel,60,IwAR3GL60oPAnBkY7WQ984XcOwOfLGElnCJkT7eARhQbioXZf8HO34PhEWrpA,,,,,,,,,,,
,,,,,,,,,,,,,,a,0,0.661,space,0.266,0,101,101,79,1,15_dist_red/trial5.png,,,1,15,redHorizontal,p,82,23,female,2021-03-02_13h15.41.328,exp11,2020.2.6,MacIntel,60,IwAR3GL60oPAnBkY7WQ984XcOwOfLGElnCJkT7eARhQbioXZf8HO34PhEWrpA,,,,,,,,,,,
,,,,,,,,,,,,,,a,1,0.601,space,0.172,0,102,102,163,1,0_targ_10_dist_red/trial14.png,,,0,10,redHorizontal,a,82,23,female,2021-03-02_13h15.41.328,exp11,2020.2.6,MacIntel,60,IwAR3GL60oPAnBkY7WQ984XcOwOfLGElnCJkT7eARhQbioXZf8HO34PhEWrpA,,,,,,,,,,,
,,,,,,,,,,,,,,p,1,0.677,space,0.151,0,103,103,75,1,15_dist_red/trial1.png,,,1,15,redHorizontal,p,82,23,female,2021-03-02_13h15.41.328,exp11,2020.2.6,MacIntel,60,IwAR3GL60oPAnBkY7WQ984XcOwOfLGElnCJkT7eARhQbioXZf8HO34PhEWrpA,,,,,,,,,,,
,,,,,,,,,,,,,,p,1,0.551,space,0.145,0,104,104,19,1,0_dist_red/trial20.png,,,1,0,redHorizontal,p,82,23,female,2021-03-02_13h15.41.328,exp11,2020.2.6,MacIntel,60,IwAR3GL60oPAnBkY7WQ984XcOwOfLGElnCJkT7eARhQbioXZf8HO34PhEWrpA,,,,,,,,,,,
,,,,,,,,,,,,,,p,1,0.472,space,0.16,0,105,105,38,1,3_dist_red/trial14.png,,,1,3,redHorizontal,p,82,23,female,2021-03-02_13h15.41.328,exp11,2020.2.6,MacIntel,60,IwAR3GL60oPAnBkY7WQ984XcOwOfLGElnCJkT7eARhQbioXZf8HO34PhEWrpA,,,,,,,,,,,
,,,,,,,,,,,,,,a,1,0.593,space,0.135,0,106,106,103,1,0_targ_1_dist_red/trial4.png,,,0,1,redHorizontal,a,82,23,female,2021-03-02_13h15.41.328,exp11,2020.2.6,MacIntel,60,IwAR3GL60oPAnBkY7WQ984XcOwOfLGElnCJkT7eARhQbioXZf8HO34PhEWrpA,,,,,,,,,,,
,,,,,,,,,,,,,,p,1,0.844,space,0.121,0,107,107,94,1,15_dist_red/trial20.png,,,1,15,redHorizontal,p,82,23,female,2021-03-02_13h15.41.328,exp11,2020.2.6,MacIntel,60,IwAR3GL60oPAnBkY7WQ984XcOwOfLGElnCJkT7eARhQbioXZf8HO34PhEWrpA,,,,,,,,,,,
,,,,,,,,,,,,,,p,1,0.584,space,0.242,0,108,108,51,1,9_dist_red/trial2.png,,,1,9,redHorizontal,p,82,23,female,2021-03-02_13h15.41.328,exp11,2020.2.6,MacIntel,60,IwAR3GL60oPAnBkY7WQ984XcOwOfLGElnCJkT7eARhQbioXZf8HO34PhEWrpA,,,,,,,,,,,
,,,,,,,,,,,,,,a,1,0.57,space,0.157,0,109,109,197,1,0_targ_16_dist_red/trial23.png,,,0,16,redHorizontal,a,82,23,female,2021-03-02_13h15.41.328,exp11,2020.2.6,MacIntel,60,IwAR3GL60oPAnBkY7WQ984XcOwOfLGElnCJkT7eARhQbioXZf8HO34PhEWrpA,,,,,,,,,,,
,,,,,,,,,,,,,,p,1,0.589,space,0.163,0,110,110,82,1,15_dist_red/trial8.png,,,1,15,redHorizontal,p,82,23,female,2021-03-02_13h15.41.328,exp11,2020.2.6,MacIntel,60,IwAR3GL60oPAnBkY7WQ984XcOwOfLGElnCJkT7eARhQbioXZf8HO34PhEWrpA,,,,,,,,,,,
,,,,,,,,,,,,,,p,1,0.595,space,0.151,0,111,111,47,1,3_dist_red/trial23.png,,,1,3,redHorizontal,p,82,23,female,2021-03-02_13h15.41.328,exp11,2020.2.6,MacIntel,60,IwAR3GL60oPAnBkY7WQ984XcOwOfLGElnCJkT7eARhQbioXZf8HO34PhEWrpA,,,,,,,,,,,
,,,,,,,,,,,,,,a,1,0.692,space,0.214,0,112,112,164,1,0_targ_10_dist_red/trial15.png,,,0,10,redHorizontal,a,82,23,female,2021-03-02_13h15.41.328,exp11,2020.2.6,MacIntel,60,IwAR3GL60oPAnBkY7WQ984XcOwOfLGElnCJkT7eARhQbioXZf8HO34PhEWrpA,,,,,,,,,,,
,,,,,,,,,,,,,,a,1,0.555,space,0.17,0,113,113,171,1,0_targ_10_dist_red/trial22.png,,,0,10,redHorizontal,a,82,23,female,2021-03-02_13h15.41.328,exp11,2020.2.6,MacIntel,60,IwAR3GL60oPAnBkY7WQ984XcOwOfLGElnCJkT7eARhQbioXZf8HO34PhEWrpA,,,,,,,,,,,
,,,,,,,,,,,,,,a,1,0.753,space,0.117,0,114,114,100,1,0_targ_1_dist_red/trial1.png,,,0,1,redHorizontal,a,82,23,female,2021-03-02_13h15.41.328,exp11,2020.2.6,MacIntel,60,IwAR3GL60oPAnBkY7WQ984XcOwOfLGElnCJkT7eARhQbioXZf8HO34PhEWrpA,,,,,,,,,,,
,,,,,,,,,,,,,,a,1,0.468,space,0.249,0,115,115,111,1,0_targ_1_dist_red/trial12.png,,,0,1,redHorizontal,a,82,23,female,2021-03-02_13h15.41.328,exp11,2020.2.6,MacIntel,60,IwAR3GL60oPAnBkY7WQ984XcOwOfLGElnCJkT7eARhQbioXZf8HO34PhEWrpA,,,,,,,,,,,
,,,,,,,,,,,,,,a,1,0.423,space,0.22,0,116,116,104,1,0_targ_1_dist_red/trial5.png,,,0,1,redHorizontal,a,82,23,female,2021-03-02_13h15.41.328,exp11,2020.2.6,MacIntel,60,IwAR3GL60oPAnBkY7WQ984XcOwOfLGElnCJkT7eARhQbioXZf8HO34PhEWrpA,,,,,,,,,,,
,,,,,,,,,,,,,,a,0,0.508,space,0.255,0,117,117,54,1,9_dist_red/trial5.png,,,1,9,redHorizontal,p,82,23,female,2021-03-02_13h15.41.328,exp11,2020.2.6,MacIntel,60,IwAR3GL60oPAnBkY7WQ984XcOwOfLGElnCJkT7eARhQbioXZf8HO34PhEWrpA,,,,,,,,,,,
,,,,,,,,,,,,,,p,1,0.564,space,0.116,0,118,118,8,1,0_dist_red/trial9.png,,,1,0,redHorizontal,p,82,23,female,2021-03-02_13h15.41.328,exp11,2020.2.6,MacIntel,60,IwAR3GL60oPAnBkY7WQ984XcOwOfLGElnCJkT7eARhQbioXZf8HO34PhEWrpA,,,,,,,,,,,
,,,,,,,,,,,,,,a,1,1.436,space,0.194,0,119,119,176,1,0_targ_16_dist_red/trial2.png,,,0,16,redHorizontal,a,82,23,female,2021-03-02_13h15.41.328,exp11,2020.2.6,MacIntel,60,IwAR3GL60oPAnBkY7WQ984XcOwOfLGElnCJkT7eARhQbioXZf8HO34PhEWrpA,,,,,,,,,,,
,,,,,,,,,,,,,,a,1,0.544,space,0.218,0,120,120,109,1,0_targ_1_dist_red/trial10.png,,,0,1,redHorizontal,a,82,23,female,2021-03-02_13h15.41.328,exp11,2020.2.6,MacIntel,60,IwAR3GL60oPAnBkY7WQ984XcOwOfLGElnCJkT7eARhQbioXZf8HO34PhEWrpA,,,,,,,,,,,
,,,,,,,,,,,,,,p,1,0.539,space,0.134,0,121,121,68,1,9_dist_red/trial19.png,,,1,9,redHorizontal,p,82,23,female,2021-03-02_13h15.41.328,exp11,2020.2.6,MacIntel,60,IwAR3GL60oPAnBkY7WQ984XcOwOfLGElnCJkT7eARhQbioXZf8HO34PhEWrpA,,,,,,,,,,,
,,,,,,,,,,,,,,p,1,0.573,space,0.141,0,122,122,33,1,3_dist_red/trial9.png,,,1,3,redHorizontal,p,82,23,female,2021-03-02_13h15.41.328,exp11,2020.2.6,MacIntel,60,IwAR3GL60oPAnBkY7WQ984XcOwOfLGElnCJkT7eARhQbioXZf8HO34PhEWrpA,,,,,,,,,,,
,,,,,,,,,,,,,,a,1,0.641,space,0.135,0,123,123,181,1,0_targ_16_dist_red/trial7.png,,,0,16,redHorizontal,a,82,23,female,2021-03-02_13h15.41.328,exp11,2020.2.6,MacIntel,60,IwAR3GL60oPAnBkY7WQ984XcOwOfLGElnCJkT7eARhQbioXZf8HO34PhEWrpA,,,,,,,,,,,
,,,,,,,,,,,,,,a,1,0.568,space,0.128,0,124,124,186,1,0_targ_16_dist_red/trial12.png,,,0,16,redHorizontal,a,82,23,female,2021-03-02_13h15.41.328,exp11,2020.2.6,MacIntel,60,IwAR3GL60oPAnBkY7WQ984XcOwOfLGElnCJkT7eARhQbioXZf8HO34PhEWrpA,,,,,,,,,,,
,,,,,,,,,,,,,,a,0,0.388,space,1.993,0,125,125,62,1,9_dist_red/trial13.png,,,1,9,redHorizontal,p,82,23,female,2021-03-02_13h15.41.328,exp11,2020.2.6,MacIntel,60,IwAR3GL60oPAnBkY7WQ984XcOwOfLGElnCJkT7eARhQbioXZf8HO34PhEWrpA,,,,,,,,,,,
,,,,,,,,,,,,,,a,1,0.912,space,0.123,0,126,126,145,1,0_targ_4_dist_red/trial21.png,,,0,4,redHorizontal,a,82,23,female,2021-03-02_13h15.41.328,exp11,2020.2.6,MacIntel,60,IwAR3GL60oPAnBkY7WQ984XcOwOfLGElnCJkT7eARhQbioXZf8HO34PhEWrpA,,,,,,,,,,,
,,,,,,,,,,,,,,p,1,0.692,space,0.109,0,127,127,56,1,9_dist_red/trial7.png,,,1,9,redHorizontal,p,82,23,female,2021-03-02_13h15.41.328,exp11,2020.2.6,MacIntel,60,IwAR3GL60oPAnBkY7WQ984XcOwOfLGElnCJkT7eARhQbioXZf8HO34PhEWrpA,,,,,,,,,,,
,,,,,,,,,,,,,,a,1,0.546,space,0.176,0,128,128,158,1,0_targ_10_dist_red/trial9.png,,,0,10,redHorizontal,a,82,23,female,2021-03-02_13h15.41.328,exp11,2020.2.6,MacIntel,60,IwAR3GL60oPAnBkY7WQ984XcOwOfLGElnCJkT7eARhQbioXZf8HO34PhEWrpA,,,,,,,,,,,
,,,,,,,,,,,,,,a,1,0.761,space,1.559,0,129,129,173,1,0_targ_10_dist_red/trial24.png,,,0,10,redHorizontal,a,82,23,female,2021-03-02_13h15.41.328,exp11,2020.2.6,MacIntel,60,IwAR3GL60oPAnBkY7WQ984XcOwOfLGElnCJkT7eARhQbioXZf8HO34PhEWrpA,,,,,,,,,,,
,,,,,,,,,,,,,,p,1,0.723,space,0.685,0,130,130,37,1,3_dist_red/trial13.png,,,1,3,redHorizontal,p,82,23,female,2021-03-02_13h15.41.328,exp11,2020.2.6,MacIntel,60,IwAR3GL60oPAnBkY7WQ984XcOwOfLGElnCJkT7eARhQbioXZf8HO34PhEWrpA,,,,,,,,,,,
,,,,,,,,,,,,,,p,1,0.659,space,0.082,0,131,131,40,1,3_dist_red/trial16.png,,,1,3,redHorizontal,p,82,23,female,2021-03-02_13h15.41.328,exp11,2020.2.6,MacIntel,60,IwAR3GL60oPAnBkY7WQ984XcOwOfLGElnCJkT7eARhQbioXZf8HO34PhEWrpA,,,,,,,,,,,
,,,,,,,,,,,,,,a,1,0.763,space,0.134,0,132,132,138,1,0_targ_4_dist_red/trial14.png,,,0,4,redHorizontal,a,82,23,female,2021-03-02_13h15.41.328,exp11,2020.2.6,MacIntel,60,IwAR3GL60oPAnBkY7WQ984XcOwOfLGElnCJkT7eARhQbioXZf8HO34PhEWrpA,,,,,,,,,,,
,,,,,,,,,,,,,,p,1,0.608,space,0.132,0,133,133,0,1,0_dist_red/trial1.png,,,1,0,redHorizontal,p,82,23,female,2021-03-02_13h15.41.328,exp11,2020.2.6,MacIntel,60,IwAR3GL60oPAnBkY7WQ984XcOwOfLGElnCJkT7eARhQbioXZf8HO34PhEWrpA,,,,,,,,,,,
,,,,,,,,,,,,,,a,0,0.507,space,0.242,0,134,134,26,1,3_dist_red/trial2.png,,,1,3,redHorizontal,p,82,23,female,2021-03-02_13h15.41.328,exp11,2020.2.6,MacIntel,60,IwAR3GL60oPAnBkY7WQ984XcOwOfLGElnCJkT7eARhQbioXZf8HO34PhEWrpA,,,,,,,,,,,
,,,,,,,,,,,,,,p,1,0.759,space,0.101,0,135,135,99,1,15_dist_red/trial25.png,,,1,15,redHorizontal,p,82,23,female,2021-03-02_13h15.41.328,exp11,2020.2.6,MacIntel,60,IwAR3GL60oPAnBkY7WQ984XcOwOfLGElnCJkT7eARhQbioXZf8HO34PhEWrpA,,,,,,,,,,,
,,,,,,,,,,,,,,a,1,0.677,space,0.161,0,136,136,157,1,0_targ_10_dist_red/trial8.png,,,0,10,redHorizontal,a,82,23,female,2021-03-02_13h15.41.328,exp11,2020.2.6,MacIntel,60,IwAR3GL60oPAnBkY7WQ984XcOwOfLGElnCJkT7eARhQbioXZf8HO34PhEWrpA,,,,,,,,,,,
,,,,,,,,,,,,,,p,0,0.52,space,1.133,0,137,137,180,1,0_targ_16_dist_red/trial6.png,,,0,16,redHorizontal,a,82,23,female,2021-03-02_13h15.41.328,exp11,2020.2.6,MacIntel,60,IwAR3GL60oPAnBkY7WQ984XcOwOfLGElnCJkT7eARhQbioXZf8HO34PhEWrpA,,,,,,,,,,,
,,,,,,,,,,,,,,p,1,0.635,space,0.082,0,138,138,87,1,15_dist_red/trial13.png,,,1,15,redHorizontal,p,82,23,female,2021-03-02_13h15.41.328,exp11,2020.2.6,MacIntel,60,IwAR3GL60oPAnBkY7WQ984XcOwOfLGElnCJkT7eARhQbioXZf8HO34PhEWrpA,,,,,,,,,,,
,,,,,,,,,,,,,,p,1,0.589,space,0.109,0,139,139,27,1,3_dist_red/trial3.png,,,1,3,redHorizontal,p,82,23,female,2021-03-02_13h15.41.328,exp11,2020.2.6,MacIntel,60,IwAR3GL60oPAnBkY7WQ984XcOwOfLGElnCJkT7eARhQbioXZf8HO34PhEWrpA,,,,,,,,,,,
,,,,,,,,,,,,,,p,1,0.703,space,0.065,0,140,140,90,1,15_dist_red/trial16.png,,,1,15,redHorizontal,p,82,23,female,2021-03-02_13h15.41.328,exp11,2020.2.6,MacIntel,60,IwAR3GL60oPAnBkY7WQ984XcOwOfLGElnCJkT7eARhQbioXZf8HO34PhEWrpA,,,,,,,,,,,
,,,,,,,,,,,,,,p,1,0.411,space,0.091,0,141,141,31,1,3_dist_red/trial7.png,,,1,3,redHorizontal,p,82,23,female,2021-03-02_13h15.41.328,exp11,2020.2.6,MacIntel,60,IwAR3GL60oPAnBkY7WQ984XcOwOfLGElnCJkT7eARhQbioXZf8HO34PhEWrpA,,,,,,,,,,,
,,,,,,,,,,,,,,p,1,0.571,space,0.085,0,142,142,58,1,9_dist_red/trial9.png,,,1,9,redHorizontal,p,82,23,female,2021-03-02_13h15.41.328,exp11,2020.2.6,MacIntel,60,IwAR3GL60oPAnBkY7WQ984XcOwOfLGElnCJkT7eARhQbioXZf8HO34PhEWrpA,,,,,,,,,,,
,,,,,,,,,,,,,,p,1,0.384,space,0.086,0,143,143,55,1,9_dist_red/trial6.png,,,1,9,redHorizontal,p,82,23,female,2021-03-02_13h15.41.328,exp11,2020.2.6,MacIntel,60,IwAR3GL60oPAnBkY7WQ984XcOwOfLGElnCJkT7eARhQbioXZf8HO34PhEWrpA,,,,,,,,,,,
,,,,,,,,,,,,,,a,1,1.454,space,0.143,0,144,144,189,1,0_targ_16_dist_red/trial15.png,,,0,16,redHorizontal,a,82,23,female,2021-03-02_13h15.41.328,exp11,2020.2.6,MacIntel,60,IwAR3GL60oPAnBkY7WQ984XcOwOfLGElnCJkT7eARhQbioXZf8HO34PhEWrpA,,,,,,,,,,,
,,,,,,,,,,,,,,a,1,0.439,space,0.16,0,145,145,112,1,0_targ_1_dist_red/trial13.png,,,0,1,redHorizontal,a,82,23,female,2021-03-02_13h15.41.328,exp11,2020.2.6,MacIntel,60,IwAR3GL60oPAnBkY7WQ984XcOwOfLGElnCJkT7eARhQbioXZf8HO34PhEWrpA,,,,,,,,,,,
,,,,,,,,,,,,,,a,0,0.406,space,0.175,0,146,146,12,1,0_dist_red/trial13.png,,,1,0,redHorizontal,p,82,23,female,2021-03-02_13h15.41.328,exp11,2020.2.6,MacIntel,60,IwAR3GL60oPAnBkY7WQ984XcOwOfLGElnCJkT7eARhQbioXZf8HO34PhEWrpA,,,,,,,,,,,
,,,,,,,,,,,,,,a,1,0.727,space,0.162,0,147,147,199,1,0_targ_16_dist_red/trial25.png,,,0,16,redHorizontal,a,82,23,female,2021-03-02_13h15.41.328,exp11,2020.2.6,MacIntel,60,IwAR3GL60oPAnBkY7WQ984XcOwOfLGElnCJkT7eARhQbioXZf8HO34PhEWrpA,,,,,,,,,,,
,,,,,,,,,,,,,,a,0,0.427,space,0.674,0,148,148,14,1,0_dist_red/trial15.png,,,1,0,redHorizontal,p,82,23,female,2021-03-02_13h15.41.328,exp11,2020.2.6,MacIntel,60,IwAR3GL60oPAnBkY7WQ984XcOwOfLGElnCJkT7eARhQbioXZf8HO34PhEWrpA,,,,,,,,,,,
,,,,,,,,,,,,,,p,1,0.688,space,0.212,0,149,149,64,1,9_dist_red/trial15.png,,,1,9,redHorizontal,p,82,23,female,2021-03-02_13h15.41.328,exp11,2020.2.6,MacIntel,60,IwAR3GL60oPAnBkY7WQ984XcOwOfLGElnCJkT7eARhQbioXZf8HO34PhEWrpA,,,,,,,,,,,
,,,,,,,,,,,,,,p,1,0.788,space,0.095,0,150,150,60,1,9_dist_red/trial11.png,,,1,9,redHorizontal,p,82,23,female,2021-03-02_13h15.41.328,exp11,2020.2.6,MacIntel,60,IwAR3GL60oPAnBkY7WQ984XcOwOfLGElnCJkT7eARhQbioXZf8HO34PhEWrpA,,,,,,,,,,,
,,,,,,,,,,,,,,p,0,0.411,space,0.204,0,151,151,115,1,0_targ_1_dist_red/trial6.png,,,0,1,redHorizontal,a,82,23,female,2021-03-02_13h15.41.328,exp11,2020.2.6,MacIntel,60,IwAR3GL60oPAnBkY7WQ984XcOwOfLGElnCJkT7eARhQbioXZf8HO34PhEWrpA,,,,,,,,,,,
,,,,,,,,,,,,,,a,1,0.81,space,0.172,0,152,152,175,1,0_targ_16_dist_red/trial1.png,,,0,16,redHorizontal,a,82,23,female,2021-03-02_13h15.41.328,exp11,2020.2.6,MacIntel,60,IwAR3GL60oPAnBkY7WQ984XcOwOfLGElnCJkT7eARhQbioXZf8HO34PhEWrpA,,,,,,,,,,,
,,,,,,,,,,,,,,a,1,0.469,space,0.241,0,153,153,150,1,0_targ_10_dist_red/trial1.png,,,0,10,redHorizontal,a,82,23,female,2021-03-02_13h15.41.328,exp11,2020.2.6,MacIntel,60,IwAR3GL60oPAnBkY7WQ984XcOwOfLGElnCJkT7eARhQbioXZf8HO34PhEWrpA,,,,,,,,,,,
,,,,,,,,,,,,,,p,1,1.319,space,0.258,0,154,154,80,1,15_dist_red/trial6.png,,,1,15,redHorizontal,p,82,23,female,2021-03-02_13h15.41.328,exp11,2020.2.6,MacIntel,60,IwAR3GL60oPAnBkY7WQ984XcOwOfLGElnCJkT7eARhQbioXZf8HO34PhEWrpA,,,,,,,,,,,
,,,,,,,,,,,,,,p,1,0.469,space,0.201,0,155,155,2,1,0_dist_red/trial3.png,,,1,0,redHorizontal,p,82,23,female,2021-03-02_13h15.41.328,exp11,2020.2.6,MacIntel,60,IwAR3GL60oPAnBkY7WQ984XcOwOfLGElnCJkT7eARhQbioXZf8HO34PhEWrpA,,,,,,,,,,,
,,,,,,,,,,,,,,a,1,0.902,space,1.1,0,156,156,128,1,0_targ_4_dist_red/trial4.png,,,0,4,redHorizontal,a,82,23,female,2021-03-02_13h15.41.328,exp11,2020.2.6,MacIntel,60,IwAR3GL60oPAnBkY7WQ984XcOwOfLGElnCJkT7eARhQbioXZf8HO34PhEWrpA,,,,,,,,,,,
,,,,,,,,,,,,,,p,1,0.609,space,0.135,0,157,157,1,1,0_dist_red/trial2.png,,,1,0,redHorizontal,p,82,23,female,2021-03-02_13h15.41.328,exp11,2020.2.6,MacIntel,60,IwAR3GL60oPAnBkY7WQ984XcOwOfLGElnCJkT7eARhQbioXZf8HO34PhEWrpA,,,,,,,,,,,
,,,,,,,,,,,,,,a,1,0.594,space,0.174,0,158,158,177,1,0_targ_16_dist_red/trial3.png,,,0,16,redHorizontal,a,82,23,female,2021-03-02_13h15.41.328,exp11,2020.2.6,MacIntel,60,IwAR3GL60oPAnBkY7WQ984XcOwOfLGElnCJkT7eARhQbioXZf8HO34PhEWrpA,,,,,,,,,,,
,,,,,,,,,,,,,,a,1,0.861,space,0.133,0,159,159,169,1,0_targ_10_dist_red/trial20.png,,,0,10,redHorizontal,a,82,23,female,2021-03-02_13h15.41.328,exp11,2020.2.6,MacIntel,60,IwAR3GL60oPAnBkY7WQ984XcOwOfLGElnCJkT7eARhQbioXZf8HO34PhEWrpA,,,,,,,,,,,
,,,,,,,,,,,,,,a,0,0.578,space,0.051,0,160,160,72,1,9_dist_red/trial23.png,,,1,9,redHorizontal,p,82,23,female,2021-03-02_13h15.41.328,exp11,2020.2.6,MacIntel,60,IwAR3GL60oPAnBkY7WQ984XcOwOfLGElnCJkT7eARhQbioXZf8HO34PhEWrpA,,,,,,,,,,,
,,,,,,,,,,,,,,p,1,0.59,space,0.072,0,161,161,44,1,3_dist_red/trial20.png,,,1,3,redHorizontal,p,82,23,female,2021-03-02_13h15.41.328,exp11,2020.2.6,MacIntel,60,IwAR3GL60oPAnBkY7WQ984XcOwOfLGElnCJkT7eARhQbioXZf8HO34PhEWrpA,,,,,,,,,,,
,,,,,,,,,,,,,,a,0,0.657,space,0.708,0,162,162,34,1,3_dist_red/trial10.png,,,1,3,redHorizontal,p,82,23,female,2021-03-02_13h15.41.328,exp11,2020.2.6,MacIntel,60,IwAR3GL60oPAnBkY7WQ984XcOwOfLGElnCJkT7eARhQbioXZf8HO34PhEWrpA,,,,,,,,,,,
,,,,,,,,,,,,,,a,1,0.788,space,0.407,0,163,163,149,1,0_targ_4_dist_red/trial25.png,,,0,4,redHorizontal,a,82,23,female,2021-03-02_13h15.41.328,exp11,2020.2.6,MacIntel,60,IwAR3GL60oPAnBkY7WQ984XcOwOfLGElnCJkT7eARhQbioXZf8HO34PhEWrpA,,,,,,,,,,,
,,,,,,,,,,,,,,a,1,0.468,space,0.274,0,164,164,121,1,0_targ_1_dist_red/trial22.png,,,0,1,redHorizontal,a,82,23,female,2021-03-02_13h15.41.328,exp11,2020.2.6,MacIntel,60,IwAR3GL60oPAnBkY7WQ984XcOwOfLGElnCJkT7eARhQbioXZf8HO34PhEWrpA,,,,,,,,,,,
,,,,,,,,,,,,,,p,1,0.444,space,0.202,0,165,165,7,1,0_dist_red/trial8.png,,,1,0,redHorizontal,p,82,23,female,2021-03-02_13h15.41.328,exp11,2020.2.6,MacIntel,60,IwAR3GL60oPAnBkY7WQ984XcOwOfLGElnCJkT7eARhQbioXZf8HO34PhEWrpA,,,,,,,,,,,
,,,,,,,,,,,,,,a,1,0.53,space,0.163,0,166,166,129,1,0_targ_4_dist_red/trial5.png,,,0,4,redHorizontal,a,82,23,female,2021-03-02_13h15.41.328,exp11,2020.2.6,MacIntel,60,IwAR3GL60oPAnBkY7WQ984XcOwOfLGElnCJkT7eARhQbioXZf8HO34PhEWrpA,,,,,,,,,,,
,,,,,,,,,,,,,,p,1,0.467,space,0.196,0,167,167,49,1,3_dist_red/trial25.png,,,1,3,redHorizontal,p,82,23,female,2021-03-02_13h15.41.328,exp11,2020.2.6,MacIntel,60,IwAR3GL60oPAnBkY7WQ984XcOwOfLGElnCJkT7eARhQbioXZf8HO34PhEWrpA,,,,,,,,,,,
,,,,,,,,,,,,,,p,1,0.553,space,0.222,0,168,168,9,1,0_dist_red/trial10.png,,,1,0,redHorizontal,p,82,23,female,2021-03-02_13h15.41.328,exp11,2020.2.6,MacIntel,60,IwAR3GL60oPAnBkY7WQ984XcOwOfLGElnCJkT7eARhQbioXZf8HO34PhEWrpA,,,,,,,,,,,
,,,,,,,,,,,,,,a,1,0.715,space,0.143,0,169,169,174,1,0_targ_10_dist_red/trial25.png,,,0,10,redHorizontal,a,82,23,female,2021-03-02_13h15.41.328,exp11,2020.2.6,MacIntel,60,IwAR3GL60oPAnBkY7WQ984XcOwOfLGElnCJkT7eARhQbioXZf8HO34PhEWrpA,,,,,,,,,,,
,,,,,,,,,,,,,,a,1,0.633,space,0.108,0,170,170,170,1,0_targ_10_dist_red/trial21.png,,,0,10,redHorizontal,a,82,23,female,2021-03-02_13h15.41.328,exp11,2020.2.6,MacIntel,60,IwAR3GL60oPAnBkY7WQ984XcOwOfLGElnCJkT7eARhQbioXZf8HO34PhEWrpA,,,,,,,,,,,
,,,,,,,,,,,,,,p,1,0.85,space,0.126,0,171,171,78,1,15_dist_red/trial4.png,,,1,15,redHorizontal,p,82,23,female,2021-03-02_13h15.41.328,exp11,2020.2.6,MacIntel,60,IwAR3GL60oPAnBkY7WQ984XcOwOfLGElnCJkT7eARhQbioXZf8HO34PhEWrpA,,,,,,,,,,,
,,,,,,,,,,,,,,p,1,0.76,space,0.161,0,172,172,59,1,9_dist_red/trial10.png,,,1,9,redHorizontal,p,82,23,female,2021-03-02_13h15.41.328,exp11,2020.2.6,MacIntel,60,IwAR3GL60oPAnBkY7WQ984XcOwOfLGElnCJkT7eARhQbioXZf8HO34PhEWrpA,,,,,,,,,,,
,,,,,,,,,,,,,,a,1,0.945,space,0.302,0,173,173,154,1,0_targ_10_dist_red/trial5.png,,,0,10,redHorizontal,a,82,23,female,2021-03-02_13h15.41.328,exp11,2020.2.6,MacIntel,60,IwAR3GL60oPAnBkY7WQ984XcOwOfLGElnCJkT7eARhQbioXZf8HO34PhEWrpA,,,,,,,,,,,
,,,,,,,,,,,,,,a,1,0.551,space,0.181,0,174,174,134,1,0_targ_4_dist_red/trial10.png,,,0,4,redHorizontal,a,82,23,female,2021-03-02_13h15.41.328,exp11,2020.2.6,MacIntel,60,IwAR3GL60oPAnBkY7WQ984XcOwOfLGElnCJkT7eARhQbioXZf8HO34PhEWrpA,,,,,,,,,,,
,,,,,,,,,,,,,,a,1,0.585,space,0.209,0,175,175,182,1,0_targ_16_dist_red/trial8.png,,,0,16,redHorizontal,a,82,23,female,2021-03-02_13h15.41.328,exp11,2020.2.6,MacIntel,60,IwAR3GL60oPAnBkY7WQ984XcOwOfLGElnCJkT7eARhQbioXZf8HO34PhEWrpA,,,,,,,,,,,
,,,,,,,,,,,,,,p,1,0.591,space,0.187,0,176,176,41,1,3_dist_red/trial17.png,,,1,3,redHorizontal,p,82,23,female,2021-03-02_13h15.41.328,exp11,2020.2.6,MacIntel,60,IwAR3GL60oPAnBkY7WQ984XcOwOfLGElnCJkT7eARhQbioXZf8HO34PhEWrpA,,,,,,,,,,,
,,,,,,,,,,,,,,p,1,0.685,space,0.121,0,177,177,91,1,15_dist_red/trial17.png,,,1,15,redHorizontal,p,82,23,female,2021-03-02_13h15.41.328,exp11,2020.2.6,MacIntel,60,IwAR3GL60oPAnBkY7WQ984XcOwOfLGElnCJkT7eARhQbioXZf8HO34PhEWrpA,,,,,,,,,,,
,,,,,,,,,,,,,,p,0,0.485,space,0.502,0,178,178,161,1,0_targ_10_dist_red/trial12.png,,,0,10,redHorizontal,a,82,23,female,2021-03-02_13h15.41.328,exp11,2020.2.6,MacIntel,60,IwAR3GL60oPAnBkY7WQ984XcOwOfLGElnCJkT7eARhQbioXZf8HO34PhEWrpA,,,,,,,,,,,
,,,,,,,,,,,,,,p,1,0.542,space,0.109,0,179,179,5,1,0_dist_red/trial6.png,,,1,0,redHorizontal,p,82,23,female,2021-03-02_13h15.41.328,exp11,2020.2.6,MacIntel,60,IwAR3GL60oPAnBkY7WQ984XcOwOfLGElnCJkT7eARhQbioXZf8HO34PhEWrpA,,,,,,,,,,,
,,,,,,,,,,,,,,p,1,0.63,space,0.116,0,180,180,35,1,3_dist_red/trial11.png,,,1,3,redHorizontal,p,82,23,female,2021-03-02_13h15.41.328,exp11,2020.2.6,MacIntel,60,IwAR3GL60oPAnBkY7WQ984XcOwOfLGElnCJkT7eARhQbioXZf8HO34PhEWrpA,,,,,,,,,,,
,,,,,,,,,,,,,,a,1,0.485,space,0.161,0,181,181,119,1,0_targ_1_dist_red/trial20.png,,,0,1,redHorizontal,a,82,23,female,2021-03-02_13h15.41.328,exp11,2020.2.6,MacIntel,60,IwAR3GL60oPAnBkY7WQ984XcOwOfLGElnCJkT7eARhQbioXZf8HO34PhEWrpA,,,,,,,,,,,
,,,,,,,,,,,,,,a,1,0.639,space,0.213,0,182,182,160,1,0_targ_10_dist_red/trial11.png,,,0,10,redHorizontal,a,82,23,female,2021-03-02_13h15.41.328,exp11,2020.2.6,MacIntel,60,IwAR3GL60oPAnBkY7WQ984XcOwOfLGElnCJkT7eARhQbioXZf8HO34PhEWrpA,,,,,,,,,,,
,,,,,,,,,,,,,,a,1,0.709,space,0.111,0,183,183,167,1,0_targ_10_dist_red/trial18.png,,,0,10,redHorizontal,a,82,23,female,2021-03-02_13h15.41.328,exp11,2020.2.6,MacIntel,60,IwAR3GL60oPAnBkY7WQ984XcOwOfLGElnCJkT7eARhQbioXZf8HO34PhEWrpA,,,,,,,,,,,
,,,,,,,,,,,,,,p,1,0.778,space,0.12,0,184,184,48,1,3_dist_red/trial24.png,,,1,3,redHorizontal,p,82,23,female,2021-03-02_13h15.41.328,exp11,2020.2.6,MacIntel,60,IwAR3GL60oPAnBkY7WQ984XcOwOfLGElnCJkT7eARhQbioXZf8HO34PhEWrpA,,,,,,,,,,,
,,,,,,,,,,,,,,p,1,0.583,space,0.102,0,185,185,81,1,15_dist_red/trial7.png,,,1,15,redHorizontal,p,82,23,female,2021-03-02_13h15.41.328,exp11,2020.2.6,MacIntel,60,IwAR3GL60oPAnBkY7WQ984XcOwOfLGElnCJkT7eARhQbioXZf8HO34PhEWrpA,,,,,,,,,,,
,,,,,,,,,,,,,,p,1,0.519,space,0.102,0,186,186,57,1,9_dist_red/trial8.png,,,1,9,redHorizontal,p,82,23,female,2021-03-02_13h15.41.328,exp11,2020.2.6,MacIntel,60,IwAR3GL60oPAnBkY7WQ984XcOwOfLGElnCJkT7eARhQbioXZf8HO34PhEWrpA,,,,,,,,,,,
,,,,,,,,,,,,,,p,1,0.519,space,0.136,0,187,187,61,1,9_dist_red/trial12.png,,,1,9,redHorizontal,p,82,23,female,2021-03-02_13h15.41.328,exp11,2020.2.6,MacIntel,60,IwAR3GL60oPAnBkY7WQ984XcOwOfLGElnCJkT7eARhQbioXZf8HO34PhEWrpA,,,,,,,,,,,
,,,,,,,,,,,,,,a,1,0.743,space,0.175,0,188,188,141,1,0_targ_4_dist_red/trial17.png,,,0,4,redHorizontal,a,82,23,female,2021-03-02_13h15.41.328,exp11,2020.2.6,MacIntel,60,IwAR3GL60oPAnBkY7WQ984XcOwOfLGElnCJkT7eARhQbioXZf8HO34PhEWrpA,,,,,,,,,,,
,,,,,,,,,,,,,,a,1,0.586,space,0.135,0,189,189,135,1,0_targ_4_dist_red/trial11.png,,,0,4,redHorizontal,a,82,23,female,2021-03-02_13h15.41.328,exp11,2020.2.6,MacIntel,60,IwAR3GL60oPAnBkY7WQ984XcOwOfLGElnCJkT7eARhQbioXZf8HO34PhEWrpA,,,,,,,,,,,
,,,,,,,,,,,,,,a,1,0.478,space,0.167,0,190,190,116,1,0_targ_1_dist_red/trial17.png,,,0,1,redHorizontal,a,82,23,female,2021-03-02_13h15.41.328,exp11,2020.2.6,MacIntel,60,IwAR3GL60oPAnBkY7WQ984XcOwOfLGElnCJkT7eARhQbioXZf8HO34PhEWrpA,,,,,,,,,,,
,,,,,,,,,,,,,,a,1,0.42,space,0.157,0,191,191,108,1,0_targ_1_dist_red/trial9.png,,,0,1,redHorizontal,a,82,23,female,2021-03-02_13h15.41.328,exp11,2020.2.6,MacIntel,60,IwAR3GL60oPAnBkY7WQ984XcOwOfLGElnCJkT7eARhQbioXZf8HO34PhEWrpA,,,,,,,,,,,
,,,,,,,,,,,,,,a,0,0.672,space,0.472,0,192,192,69,1,9_dist_red/trial20.png,,,1,9,redHorizontal,p,82,23,female,2021-03-02_13h15.41.328,exp11,2020.2.6,MacIntel,60,IwAR3GL60oPAnBkY7WQ984XcOwOfLGElnCJkT7eARhQbioXZf8HO34PhEWrpA,,,,,,,,,,,
,,,,,,,,,,,,,,p,1,0.823,space,0.089,0,193,193,4,1,0_dist_red/trial5.png,,,1,0,redHorizontal,p,82,23,female,2021-03-02_13h15.41.328,exp11,2020.2.6,MacIntel,60,IwAR3GL60oPAnBkY7WQ984XcOwOfLGElnCJkT7eARhQbioXZf8HO34PhEWrpA,,,,,,,,,,,
,,,,,,,,,,,,,,p,0,0.573,space,2.155,0,194,194,198,1,0_targ_16_dist_red/trial24.png,,,0,16,redHorizontal,a,82,23,female,2021-03-02_13h15.41.328,exp11,2020.2.6,MacIntel,60,IwAR3GL60oPAnBkY7WQ984XcOwOfLGElnCJkT7eARhQbioXZf8HO34PhEWrpA,,,,,,,,,,,
,,,,,,,,,,,,,,p,1,1.043,space,0.104,0,195,195,46,1,3_dist_red/trial22.png,,,1,3,redHorizontal,p,82,23,female,2021-03-02_13h15.41.328,exp11,2020.2.6,MacIntel,60,IwAR3GL60oPAnBkY7WQ984XcOwOfLGElnCJkT7eARhQbioXZf8HO34PhEWrpA,,,,,,,,,,,
,,,,,,,,,,,,,,p,1,0.565,space,0.083,0,196,196,76,1,15_dist_red/trial2.png,,,1,15,redHorizontal,p,82,23,female,2021-03-02_13h15.41.328,exp11,2020.2.6,MacIntel,60,IwAR3GL60oPAnBkY7WQ984XcOwOfLGElnCJkT7eARhQbioXZf8HO34PhEWrpA,,,,,,,,,,,
,,,,,,,,,,,,,,p,1,0.536,space,0.068,0,197,197,86,1,15_dist_red/trial12.png,,,1,15,redHorizontal,p,82,23,female,2021-03-02_13h15.41.328,exp11,2020.2.6,MacIntel,60,IwAR3GL60oPAnBkY7WQ984XcOwOfLGElnCJkT7eARhQbioXZf8HO34PhEWrpA,,,,,,,,,,,
,,,,,,,,,,,,,,p,1,0.453,space,0.113,0,198,198,97,1,15_dist_red/trial23.png,,,1,15,redHorizontal,p,82,23,female,2021-03-02_13h15.41.328,exp11,2020.2.6,MacIntel,60,IwAR3GL60oPAnBkY7WQ984XcOwOfLGElnCJkT7eARhQbioXZf8HO34PhEWrpA,,,,,,,,,,,
,,,,,,,,,,,,,,a,1,1.223,space,0.174,0,199,199,178,1,0_targ_16_dist_red/trial4.png,,,0,16,redHorizontal,a,82,23,female,2021-03-02_13h15.41.328,exp11,2020.2.6,MacIntel,60,IwAR3GL60oPAnBkY7WQ984XcOwOfLGElnCJkT7eARhQbioXZf8HO34PhEWrpA,,,,,,,,,,,
,,,,,,,,,,,,,,,,,,,,,,,,,,,,,,,82,23,female,2021-03-02_13h15.41.328,exp11,2020.2.6,MacIntel,60,IwAR3GL60oPAnBkY7WQ984XcOwOfLGElnCJkT7eARhQbioXZf8HO34PhEWrpA,0,1,1,1,1,conRed.xlsx,red horizontal,Look for red horizontal bar (target) and indicate if it is present or absent in the array. If red horizontal target is present press 'p' and if absent press 'a'. Press SPACE to start.,,,
