key_resp_6.keys,key_resp_6.rt,key_resp_7.keys,key_resp_7.rt,key_resp_8.keys,key_resp_8.rt,key_resp_10.keys,key_resp_10.rt,key_resp_9.keys,key_resp_9.rt,key_resp_3.keys,key_resp_3.rt,key_resp_5.keys,key_resp_5.rt,key_resp.keys,key_resp.corr,key_resp.rt,key_resp_4.keys,key_resp_4.rt,trials.thisRepN,trials.thisTrialN,trials.thisN,trials.thisIndex,trials.ran,ImageFile,tarPos,tarSize,targPres,numDist,targetName,correctAns,participant,age,sex,date,expName,psychopyVersion,OS,frameRate,trials_2.thisRepN,trials_2.thisTrialN,trials_2.thisN,trials_2.thisIndex,trials_2.ran,condsFile,targName,instructionText,colTarget,sizeTarg,posit
space,10.62074,space,19.71162,space,17.54177,space,23.99542,space,4.142705,space,15.67927,space,11.73673,a,1,2.31338,space,3.301805,0,0,0,142,1,0_targ_4_dist_red/trial18.png,,,0,4,redHorizontal,a,83,63,Male,2021-03-02_14h41.21.796,exp11,2020.2.6,Win32,60,,,,,,,,,,,
,,,,,,,,,,,,,,p,1,0.97039,space,1.221075,0,1,1,3,1,0_dist_red/trial4.png,,,1,0,redHorizontal,p,83,63,Male,2021-03-02_14h41.21.796,exp11,2020.2.6,Win32,60,,,,,,,,,,,
,,,,,,,,,,,,,,p,1,0.72072,space,1.0489,0,2,2,18,1,0_dist_red/trial19.png,,,1,0,redHorizontal,p,83,63,Male,2021-03-02_14h41.21.796,exp11,2020.2.6,Win32,60,,,,,,,,,,,
,,,,,,,,,,,,,,a,1,1.05102,space,0.73144,0,3,3,104,1,0_targ_1_dist_red/trial5.png,,,0,1,redHorizontal,a,83,63,Male,2021-03-02_14h41.21.796,exp11,2020.2.6,Win32,60,,,,,,,,,,,
,,,,,,,,,,,,,,a,1,1.64247,space,1.56103,0,4,4,122,1,0_targ_1_dist_red/trial23.png,,,0,1,redHorizontal,a,83,63,Male,2021-03-02_14h41.21.796,exp11,2020.2.6,Win32,60,,,,,,,,,,,
,,,,,,,,,,,,,,a,1,1.20032,space,1.120625,0,5,5,116,1,0_targ_1_dist_red/trial17.png,,,0,1,redHorizontal,a,83,63,Male,2021-03-02_14h41.21.796,exp11,2020.2.6,Win32,60,,,,,,,,,,,
,,,,,,,,,,,,,,a,1,2.359145,space,0.877705,0,6,6,183,1,0_targ_16_dist_red/trial9.png,,,0,16,redHorizontal,a,83,63,Male,2021-03-02_14h41.21.796,exp11,2020.2.6,Win32,60,,,,,,,,,,,
,,,,,,,,,,,,,,a,1,1.732965,space,0.53516,0,7,7,161,1,0_targ_10_dist_red/trial12.png,,,0,10,redHorizontal,a,83,63,Male,2021-03-02_14h41.21.796,exp11,2020.2.6,Win32,60,,,,,,,,,,,
,,,,,,,,,,,,,,p,1,0.970885,space,0.51317,0,8,8,26,1,3_dist_red/trial2.png,,,1,3,redHorizontal,p,83,63,Male,2021-03-02_14h41.21.796,exp11,2020.2.6,Win32,60,,,,,,,,,,,
,,,,,,,,,,,,,,a,1,2.27889,space,1.75344,0,9,9,186,1,0_targ_16_dist_red/trial12.png,,,0,16,redHorizontal,a,83,63,Male,2021-03-02_14h41.21.796,exp11,2020.2.6,Win32,60,,,,,,,,,,,
,,,,,,,,,,,,,,a,1,1.030695,space,0.597795,0,10,10,173,1,0_targ_10_dist_red/trial24.png,,,0,10,redHorizontal,a,83,63,Male,2021-03-02_14h41.21.796,exp11,2020.2.6,Win32,60,,,,,,,,,,,
,,,,,,,,,,,,,,p,1,0.860795,space,1.56894,0,11,11,5,1,0_dist_red/trial6.png,,,1,0,redHorizontal,p,83,63,Male,2021-03-02_14h41.21.796,exp11,2020.2.6,Win32,60,,,,,,,,,,,
,,,,,,,,,,,,,,a,1,1.08849,space,0.95324,0,12,12,102,1,0_targ_1_dist_red/trial3.png,,,0,1,redHorizontal,a,83,63,Male,2021-03-02_14h41.21.796,exp11,2020.2.6,Win32,60,,,,,,,,,,,
,,,,,,,,,,,,,,a,1,2.27896,space,0.398115,0,13,13,158,1,0_targ_10_dist_red/trial9.png,,,0,10,redHorizontal,a,83,63,Male,2021-03-02_14h41.21.796,exp11,2020.2.6,Win32,60,,,,,,,,,,,
,,,,,,,,,,,,,,p,1,1.904515,space,1.282385,0,14,14,80,1,15_dist_red/trial6.png,,,1,15,redHorizontal,p,83,63,Male,2021-03-02_14h41.21.796,exp11,2020.2.6,Win32,60,,,,,,,,,,,
,,,,,,,,,,,,,,p,1,1.41744,space,0.37322,0,15,15,1,1,0_dist_red/trial2.png,,,1,0,redHorizontal,p,83,63,Male,2021-03-02_14h41.21.796,exp11,2020.2.6,Win32,60,,,,,,,,,,,
,,,,,,,,,,,,,,p,1,0.86223,space,0.419155,0,16,16,78,1,15_dist_red/trial4.png,,,1,15,redHorizontal,p,83,63,Male,2021-03-02_14h41.21.796,exp11,2020.2.6,Win32,60,,,,,,,,,,,
,,,,,,,,,,,,,,a,1,1.0713,space,0.47885,0,17,17,137,1,0_targ_4_dist_red/trial13.png,,,0,4,redHorizontal,a,83,63,Male,2021-03-02_14h41.21.796,exp11,2020.2.6,Win32,60,,,,,,,,,,,
,,,,,,,,,,,,,,a,1,1.97318,space,0.26339,0,18,18,171,1,0_targ_10_dist_red/trial22.png,,,0,10,redHorizontal,a,83,63,Male,2021-03-02_14h41.21.796,exp11,2020.2.6,Win32,60,,,,,,,,,,,
,,,,,,,,,,,,,,a,1,1.106325,space,0.268895,0,19,19,139,1,0_targ_4_dist_red/trial15.png,,,0,4,redHorizontal,a,83,63,Male,2021-03-02_14h41.21.796,exp11,2020.2.6,Win32,60,,,,,,,,,,,
,,,,,,,,,,,,,,a,1,1.383505,space,0.28913,0,20,20,154,1,0_targ_10_dist_red/trial5.png,,,0,10,redHorizontal,a,83,63,Male,2021-03-02_14h41.21.796,exp11,2020.2.6,Win32,60,,,,,,,,,,,
,,,,,,,,,,,,,,p,1,0.96014,space,0.24842,0,21,21,22,1,0_dist_red/trial23.png,,,1,0,redHorizontal,p,83,63,Male,2021-03-02_14h41.21.796,exp11,2020.2.6,Win32,60,,,,,,,,,,,
,,,,,,,,,,,,,,a,1,1.19635,space,0.262745,0,22,22,181,1,0_targ_16_dist_red/trial7.png,,,0,16,redHorizontal,a,83,63,Male,2021-03-02_14h41.21.796,exp11,2020.2.6,Win32,60,,,,,,,,,,,
,,,,,,,,,,,,,,a,1,2.035775,space,0.268635,0,23,23,134,1,0_targ_4_dist_red/trial10.png,,,0,4,redHorizontal,a,83,63,Male,2021-03-02_14h41.21.796,exp11,2020.2.6,Win32,60,,,,,,,,,,,
,,,,,,,,,,,,,,p,1,1.166055,space,0.962375,0,24,24,58,1,9_dist_red/trial9.png,,,1,9,redHorizontal,p,83,63,Male,2021-03-02_14h41.21.796,exp11,2020.2.6,Win32,60,,,,,,,,,,,
,,,,,,,,,,,,,,p,1,1.189275,space,0.267005,0,25,25,23,1,0_dist_red/trial24.png,,,1,0,redHorizontal,p,83,63,Male,2021-03-02_14h41.21.796,exp11,2020.2.6,Win32,60,,,,,,,,,,,
,,,,,,,,,,,,,,a,1,0.83857,space,0.321375,0,26,26,100,1,0_targ_1_dist_red/trial1.png,,,0,1,redHorizontal,a,83,63,Male,2021-03-02_14h41.21.796,exp11,2020.2.6,Win32,60,,,,,,,,,,,
,,,,,,,,,,,,,,p,0,1.422775,space,2.042645,0,27,27,176,1,0_targ_16_dist_red/trial2.png,,,0,16,redHorizontal,a,83,63,Male,2021-03-02_14h41.21.796,exp11,2020.2.6,Win32,60,,,,,,,,,,,
,,,,,,,,,,,,,,a,1,1.516555,space,0.39847,0,28,28,146,1,0_targ_4_dist_red/trial22.png,,,0,4,redHorizontal,a,83,63,Male,2021-03-02_14h41.21.796,exp11,2020.2.6,Win32,60,,,,,,,,,,,
,,,,,,,,,,,,,,a,1,1.13293,space,0.34707,0,29,29,110,1,0_targ_1_dist_red/trial11.png,,,0,1,redHorizontal,a,83,63,Male,2021-03-02_14h41.21.796,exp11,2020.2.6,Win32,60,,,,,,,,,,,
,,,,,,,,,,,,,,p,1,1.3366,space,0.278715,0,30,30,49,1,3_dist_red/trial25.png,,,1,3,redHorizontal,p,83,63,Male,2021-03-02_14h41.21.796,exp11,2020.2.6,Win32,60,,,,,,,,,,,
,,,,,,,,,,,,,,p,1,0.796625,space,0.268,0,31,31,16,1,0_dist_red/trial17.png,,,1,0,redHorizontal,p,83,63,Male,2021-03-02_14h41.21.796,exp11,2020.2.6,Win32,60,,,,,,,,,,,
,,,,,,,,,,,,,,p,1,0.674665,space,0.233105,0,32,32,15,1,0_dist_red/trial16.png,,,1,0,redHorizontal,p,83,63,Male,2021-03-02_14h41.21.796,exp11,2020.2.6,Win32,60,,,,,,,,,,,
,,,,,,,,,,,,,,p,1,0.72858,space,0.22449,0,33,33,33,1,3_dist_red/trial9.png,,,1,3,redHorizontal,p,83,63,Male,2021-03-02_14h41.21.796,exp11,2020.2.6,Win32,60,,,,,,,,,,,
,,,,,,,,,,,,,,p,1,0.603255,space,0.205445,0,34,34,21,1,0_dist_red/trial22.png,,,1,0,redHorizontal,p,83,63,Male,2021-03-02_14h41.21.796,exp11,2020.2.6,Win32,60,,,,,,,,,,,
,,,,,,,,,,,,,,a,1,1.138675,space,0.286945,0,35,35,138,1,0_targ_4_dist_red/trial14.png,,,0,4,redHorizontal,a,83,63,Male,2021-03-02_14h41.21.796,exp11,2020.2.6,Win32,60,,,,,,,,,,,
,,,,,,,,,,,,,,p,1,1.30979,space,0.24756,0,36,36,68,1,9_dist_red/trial19.png,,,1,9,redHorizontal,p,83,63,Male,2021-03-02_14h41.21.796,exp11,2020.2.6,Win32,60,,,,,,,,,,,
,,,,,,,,,,,,,,a,1,1.513455,space,0.458545,0,37,37,140,1,0_targ_4_dist_red/trial6.png,,,0,4,redHorizontal,a,83,63,Male,2021-03-02_14h41.21.796,exp11,2020.2.6,Win32,60,,,,,,,,,,,
,,,,,,,,,,,,,,a,1,1.848425,space,0.348075,0,38,38,160,1,0_targ_10_dist_red/trial11.png,,,0,10,redHorizontal,a,83,63,Male,2021-03-02_14h41.21.796,exp11,2020.2.6,Win32,60,,,,,,,,,,,
,,,,,,,,,,,,,,p,1,0.92984,space,0.32062,0,39,39,24,1,0_dist_red/trial25.png,,,1,0,redHorizontal,p,83,63,Male,2021-03-02_14h41.21.796,exp11,2020.2.6,Win32,60,,,,,,,,,,,
,,,,,,,,,,,,,,p,1,1.88162,space,0.35796,0,40,40,59,1,9_dist_red/trial10.png,,,1,9,redHorizontal,p,83,63,Male,2021-03-02_14h41.21.796,exp11,2020.2.6,Win32,60,,,,,,,,,,,
,,,,,,,,,,,,,,p,1,1.068575,space,0.307795,0,41,41,51,1,9_dist_red/trial2.png,,,1,9,redHorizontal,p,83,63,Male,2021-03-02_14h41.21.796,exp11,2020.2.6,Win32,60,,,,,,,,,,,
,,,,,,,,,,,,,,a,1,2.2348,space,0.255445,0,42,42,195,1,0_targ_16_dist_red/trial21.png,,,0,16,redHorizontal,a,83,63,Male,2021-03-02_14h41.21.796,exp11,2020.2.6,Win32,60,,,,,,,,,,,
,,,,,,,,,,,,,,p,1,1.407775,space,0.20891,0,43,43,50,1,9_dist_red/trial1.png,,,1,9,redHorizontal,p,83,63,Male,2021-03-02_14h41.21.796,exp11,2020.2.6,Win32,60,,,,,,,,,,,
,,,,,,,,,,,,,,a,1,1.59838,space,0.29447,0,44,44,150,1,0_targ_10_dist_red/trial1.png,,,0,10,redHorizontal,a,83,63,Male,2021-03-02_14h41.21.796,exp11,2020.2.6,Win32,60,,,,,,,,,,,
,,,,,,,,,,,,,,p,1,0.821015,space,0.340235,0,45,45,34,1,3_dist_red/trial10.png,,,1,3,redHorizontal,p,83,63,Male,2021-03-02_14h41.21.796,exp11,2020.2.6,Win32,60,,,,,,,,,,,
,,,,,,,,,,,,,,p,1,1.11664,space,0.229475,0,46,46,54,1,9_dist_red/trial5.png,,,1,9,redHorizontal,p,83,63,Male,2021-03-02_14h41.21.796,exp11,2020.2.6,Win32,60,,,,,,,,,,,
,,,,,,,,,,,,,,p,1,0.99802,space,0.331365,0,47,47,93,1,15_dist_red/trial19.png,,,1,15,redHorizontal,p,83,63,Male,2021-03-02_14h41.21.796,exp11,2020.2.6,Win32,60,,,,,,,,,,,
,,,,,,,,,,,,,,p,1,1.01153,space,0.33086,0,48,48,91,1,15_dist_red/trial17.png,,,1,15,redHorizontal,p,83,63,Male,2021-03-02_14h41.21.796,exp11,2020.2.6,Win32,60,,,,,,,,,,,
,,,,,,,,,,,,,,a,1,1.259755,space,0.518895,0,49,49,121,1,0_targ_1_dist_red/trial22.png,,,0,1,redHorizontal,a,83,63,Male,2021-03-02_14h41.21.796,exp11,2020.2.6,Win32,60,,,,,,,,,,,
,,,,,,,,,,,,,,p,1,1.394335,space,0.30936,0,50,50,76,1,15_dist_red/trial2.png,,,1,15,redHorizontal,p,83,63,Male,2021-03-02_14h41.21.796,exp11,2020.2.6,Win32,60,,,,,,,,,,,
,,,,,,,,,,,,,,a,1,1.030905,space,0.243885,0,51,51,108,1,0_targ_1_dist_red/trial9.png,,,0,1,redHorizontal,a,83,63,Male,2021-03-02_14h41.21.796,exp11,2020.2.6,Win32,60,,,,,,,,,,,
,,,,,,,,,,,,,,p,1,1.16495,space,0.242695,0,52,52,45,1,3_dist_red/trial21.png,,,1,3,redHorizontal,p,83,63,Male,2021-03-02_14h41.21.796,exp11,2020.2.6,Win32,60,,,,,,,,,,,
,,,,,,,,,,,,,,a,1,1.84946,space,0.252545,0,53,53,156,1,0_targ_10_dist_red/trial7.png,,,0,10,redHorizontal,a,83,63,Male,2021-03-02_14h41.21.796,exp11,2020.2.6,Win32,60,,,,,,,,,,,
,,,,,,,,,,,,,,p,1,0.720165,space,0.264055,0,54,54,43,1,3_dist_red/trial19.png,,,1,3,redHorizontal,p,83,63,Male,2021-03-02_14h41.21.796,exp11,2020.2.6,Win32,60,,,,,,,,,,,
,,,,,,,,,,,,,,p,1,0.705385,space,0.258875,0,55,55,2,1,0_dist_red/trial3.png,,,1,0,redHorizontal,p,83,63,Male,2021-03-02_14h41.21.796,exp11,2020.2.6,Win32,60,,,,,,,,,,,
,,,,,,,,,,,,,,p,1,1.005075,space,0.23964,0,56,56,66,1,9_dist_red/trial17.png,,,1,9,redHorizontal,p,83,63,Male,2021-03-02_14h41.21.796,exp11,2020.2.6,Win32,60,,,,,,,,,,,
,,,,,,,,,,,,,,a,1,1.227685,space,0.276605,0,57,57,119,1,0_targ_1_dist_red/trial20.png,,,0,1,redHorizontal,a,83,63,Male,2021-03-02_14h41.21.796,exp11,2020.2.6,Win32,60,,,,,,,,,,,
,,,,,,,,,,,,,,p,1,0.86915,space,0.54847,0,58,58,72,1,9_dist_red/trial23.png,,,1,9,redHorizontal,p,83,63,Male,2021-03-02_14h41.21.796,exp11,2020.2.6,Win32,60,,,,,,,,,,,
,,,,,,,,,,,,,,p,1,1.25291,space,0.25276,0,59,59,70,1,9_dist_red/trial21.png,,,1,9,redHorizontal,p,83,63,Male,2021-03-02_14h41.21.796,exp11,2020.2.6,Win32,60,,,,,,,,,,,
,,,,,,,,,,,,,,a,1,1.01353,space,0.267945,0,60,60,174,1,0_targ_10_dist_red/trial25.png,,,0,10,redHorizontal,a,83,63,Male,2021-03-02_14h41.21.796,exp11,2020.2.6,Win32,60,,,,,,,,,,,
,,,,,,,,,,,,,,a,1,1.376195,space,0.602,0,61,61,107,1,0_targ_1_dist_red/trial8.png,,,0,1,redHorizontal,a,83,63,Male,2021-03-02_14h41.21.796,exp11,2020.2.6,Win32,60,,,,,,,,,,,
,,,,,,,,,,,,,,a,1,1.91712,space,0.254405,0,62,62,113,1,0_targ_1_dist_red/trial14.png,,,0,1,redHorizontal,a,83,63,Male,2021-03-02_14h41.21.796,exp11,2020.2.6,Win32,60,,,,,,,,,,,
,,,,,,,,,,,,,,p,1,0.695275,space,0.28126,0,63,63,8,1,0_dist_red/trial9.png,,,1,0,redHorizontal,p,83,63,Male,2021-03-02_14h41.21.796,exp11,2020.2.6,Win32,60,,,,,,,,,,,
,,,,,,,,,,,,,,p,1,1.009305,space,1.089505,0,64,64,84,1,15_dist_red/trial10.png,,,1,15,redHorizontal,p,83,63,Male,2021-03-02_14h41.21.796,exp11,2020.2.6,Win32,60,,,,,,,,,,,
,,,,,,,,,,,,,,p,1,0.893055,space,0.26602,0,65,65,77,1,15_dist_red/trial3.png,,,1,15,redHorizontal,p,83,63,Male,2021-03-02_14h41.21.796,exp11,2020.2.6,Win32,60,,,,,,,,,,,
,,,,,,,,,,,,,,p,1,0.642775,space,0.301885,0,66,66,31,1,3_dist_red/trial7.png,,,1,3,redHorizontal,p,83,63,Male,2021-03-02_14h41.21.796,exp11,2020.2.6,Win32,60,,,,,,,,,,,
,,,,,,,,,,,,,,a,1,0.902675,space,0.266505,0,67,67,165,1,0_targ_10_dist_red/trial16.png,,,0,10,redHorizontal,a,83,63,Male,2021-03-02_14h41.21.796,exp11,2020.2.6,Win32,60,,,,,,,,,,,
,,,,,,,,,,,,,,p,1,0.77759,space,0.235285,0,68,68,7,1,0_dist_red/trial8.png,,,1,0,redHorizontal,p,83,63,Male,2021-03-02_14h41.21.796,exp11,2020.2.6,Win32,60,,,,,,,,,,,
,,,,,,,,,,,,,,p,1,1.17839,space,0.2249,0,69,69,85,1,15_dist_red/trial11.png,,,1,15,redHorizontal,p,83,63,Male,2021-03-02_14h41.21.796,exp11,2020.2.6,Win32,60,,,,,,,,,,,
,,,,,,,,,,,,,,p,1,1.14558,space,0.249635,0,70,70,73,1,9_dist_red/trial24.png,,,1,9,redHorizontal,p,83,63,Male,2021-03-02_14h41.21.796,exp11,2020.2.6,Win32,60,,,,,,,,,,,
,,,,,,,,,,,,,,p,1,0.78566,space,0.25119,0,71,71,81,1,15_dist_red/trial7.png,,,1,15,redHorizontal,p,83,63,Male,2021-03-02_14h41.21.796,exp11,2020.2.6,Win32,60,,,,,,,,,,,
,,,,,,,,,,,,,,a,1,2.098045,space,0.30266,0,72,72,191,1,0_targ_16_dist_red/trial17.png,,,0,16,redHorizontal,a,83,63,Male,2021-03-02_14h41.21.796,exp11,2020.2.6,Win32,60,,,,,,,,,,,
,,,,,,,,,,,,,,p,1,1.702575,space,0.225785,0,73,73,42,1,3_dist_red/trial18.png,,,1,3,redHorizontal,p,83,63,Male,2021-03-02_14h41.21.796,exp11,2020.2.6,Win32,60,,,,,,,,,,,
,,,,,,,,,,,,,,p,1,1.07988,space,0.23576,0,74,74,61,1,9_dist_red/trial12.png,,,1,9,redHorizontal,p,83,63,Male,2021-03-02_14h41.21.796,exp11,2020.2.6,Win32,60,,,,,,,,,,,
,,,,,,,,,,,,,,a,1,1.272275,space,0.255055,0,75,75,163,1,0_targ_10_dist_red/trial14.png,,,0,10,redHorizontal,a,83,63,Male,2021-03-02_14h41.21.796,exp11,2020.2.6,Win32,60,,,,,,,,,,,
,,,,,,,,,,,,,,a,1,1.24797,space,0.244385,0,76,76,111,1,0_targ_1_dist_red/trial12.png,,,0,1,redHorizontal,a,83,63,Male,2021-03-02_14h41.21.796,exp11,2020.2.6,Win32,60,,,,,,,,,,,
,,,,,,,,,,,,,,a,0,1.7179,space,1.190925,0,77,77,63,1,9_dist_red/trial14.png,,,1,9,redHorizontal,p,83,63,Male,2021-03-02_14h41.21.796,exp11,2020.2.6,Win32,60,,,,,,,,,,,
,,,,,,,,,,,,,,a,1,2.30859,space,0.36683,0,78,78,128,1,0_targ_4_dist_red/trial4.png,,,0,4,redHorizontal,a,83,63,Male,2021-03-02_14h41.21.796,exp11,2020.2.6,Win32,60,,,,,,,,,,,
,,,,,,,,,,,,,,a,1,1.25734,space,0.32513,0,79,79,133,1,0_targ_4_dist_red/trial9.png,,,0,4,redHorizontal,a,83,63,Male,2021-03-02_14h41.21.796,exp11,2020.2.6,Win32,60,,,,,,,,,,,
,,,,,,,,,,,,,,a,1,1.145355,space,0.715165,0,80,80,151,1,0_targ_10_dist_red/trial2.png,,,0,10,redHorizontal,a,83,63,Male,2021-03-02_14h41.21.796,exp11,2020.2.6,Win32,60,,,,,,,,,,,
,,,,,,,,,,,,,,p,1,0.78654,space,0.337265,0,81,81,62,1,9_dist_red/trial13.png,,,1,9,redHorizontal,p,83,63,Male,2021-03-02_14h41.21.796,exp11,2020.2.6,Win32,60,,,,,,,,,,,
,,,,,,,,,,,,,,a,1,1.12136,space,0.347895,0,82,82,164,1,0_targ_10_dist_red/trial15.png,,,0,10,redHorizontal,a,83,63,Male,2021-03-02_14h41.21.796,exp11,2020.2.6,Win32,60,,,,,,,,,,,
,,,,,,,,,,,,,,p,1,0.88639,space,0.20752,0,83,83,0,1,0_dist_red/trial1.png,,,1,0,redHorizontal,p,83,63,Male,2021-03-02_14h41.21.796,exp11,2020.2.6,Win32,60,,,,,,,,,,,
,,,,,,,,,,,,,,p,1,0.73819,space,0.256705,0,84,84,25,1,3_dist_red/trial1.png,,,1,3,redHorizontal,p,83,63,Male,2021-03-02_14h41.21.796,exp11,2020.2.6,Win32,60,,,,,,,,,,,
,,,,,,,,,,,,,,a,1,0.857995,space,0.281915,0,85,85,103,1,0_targ_1_dist_red/trial4.png,,,0,1,redHorizontal,a,83,63,Male,2021-03-02_14h41.21.796,exp11,2020.2.6,Win32,60,,,,,,,,,,,
,,,,,,,,,,,,,,p,1,0.82075,space,0.2515,0,86,86,13,1,0_dist_red/trial14.png,,,1,0,redHorizontal,p,83,63,Male,2021-03-02_14h41.21.796,exp11,2020.2.6,Win32,60,,,,,,,,,,,
,,,,,,,,,,,,,,p,1,1.81766,space,0.2835,0,87,87,95,1,15_dist_red/trial21.png,,,1,15,redHorizontal,p,83,63,Male,2021-03-02_14h41.21.796,exp11,2020.2.6,Win32,60,,,,,,,,,,,
,,,,,,,,,,,,,,p,1,0.746865,space,0.315795,0,88,88,28,1,3_dist_red/trial4.png,,,1,3,redHorizontal,p,83,63,Male,2021-03-02_14h41.21.796,exp11,2020.2.6,Win32,60,,,,,,,,,,,
,,,,,,,,,,,,,,p,1,0.663865,space,0.30783,0,89,89,47,1,3_dist_red/trial23.png,,,1,3,redHorizontal,p,83,63,Male,2021-03-02_14h41.21.796,exp11,2020.2.6,Win32,60,,,,,,,,,,,
,,,,,,,,,,,,,,a,1,1.035735,space,0.251235,0,90,90,168,1,0_targ_10_dist_red/trial19.png,,,0,10,redHorizontal,a,83,63,Male,2021-03-02_14h41.21.796,exp11,2020.2.6,Win32,60,,,,,,,,,,,
,,,,,,,,,,,,,,a,1,1.524015,space,0.863225,0,91,91,118,1,0_targ_1_dist_red/trial19.png,,,0,1,redHorizontal,a,83,63,Male,2021-03-02_14h41.21.796,exp11,2020.2.6,Win32,60,,,,,,,,,,,
,,,,,,,,,,,,,,a,1,1.23681,space,0.330455,0,92,92,196,1,0_targ_16_dist_red/trial22.png,,,0,16,redHorizontal,a,83,63,Male,2021-03-02_14h41.21.796,exp11,2020.2.6,Win32,60,,,,,,,,,,,
,,,,,,,,,,,,,,a,1,1.07967,space,0.36465,0,93,93,193,1,0_targ_16_dist_red/trial19.png,,,0,16,redHorizontal,a,83,63,Male,2021-03-02_14h41.21.796,exp11,2020.2.6,Win32,60,,,,,,,,,,,
,,,,,,,,,,,,,,a,1,1.10122,space,0.366075,0,94,94,178,1,0_targ_16_dist_red/trial4.png,,,0,16,redHorizontal,a,83,63,Male,2021-03-02_14h41.21.796,exp11,2020.2.6,Win32,60,,,,,,,,,,,
,,,,,,,,,,,,,,a,1,0.762925,space,0.336535,0,95,95,143,1,0_targ_4_dist_red/trial19.png,,,0,4,redHorizontal,a,83,63,Male,2021-03-02_14h41.21.796,exp11,2020.2.6,Win32,60,,,,,,,,,,,
,,,,,,,,,,,,,,p,1,0.933445,space,0.250865,0,96,96,92,1,15_dist_red/trial18.png,,,1,15,redHorizontal,p,83,63,Male,2021-03-02_14h41.21.796,exp11,2020.2.6,Win32,60,,,,,,,,,,,
,,,,,,,,,,,,,,a,0,0.958165,space,0.835065,0,97,97,90,1,15_dist_red/trial16.png,,,1,15,redHorizontal,p,83,63,Male,2021-03-02_14h41.21.796,exp11,2020.2.6,Win32,60,,,,,,,,,,,
,,,,,,,,,,,,,,a,1,1.84849,space,0.69908,0,98,98,152,1,0_targ_10_dist_red/trial3.png,,,0,10,redHorizontal,a,83,63,Male,2021-03-02_14h41.21.796,exp11,2020.2.6,Win32,60,,,,,,,,,,,
,,,,,,,,,,,,,,a,0,1.131815,space,0.43601,0,99,99,39,1,3_dist_red/trial15.png,,,1,3,redHorizontal,p,83,63,Male,2021-03-02_14h41.21.796,exp11,2020.2.6,Win32,60,,,,,,,,,,,
,,,,,,,,,,,,,,a,1,2.1403,space,0.932685,0,100,100,190,1,0_targ_16_dist_red/trial16.png,,,0,16,redHorizontal,a,83,63,Male,2021-03-02_14h41.21.796,exp11,2020.2.6,Win32,60,,,,,,,,,,,
,,,,,,,,,,,,,,a,1,2.017715,space,0.60088,0,101,101,159,1,0_targ_10_dist_red/trial10.png,,,0,10,redHorizontal,a,83,63,Male,2021-03-02_14h41.21.796,exp11,2020.2.6,Win32,60,,,,,,,,,,,
,,,,,,,,,,,,,,p,1,0.99263,space,0.29982,0,102,102,56,1,9_dist_red/trial7.png,,,1,9,redHorizontal,p,83,63,Male,2021-03-02_14h41.21.796,exp11,2020.2.6,Win32,60,,,,,,,,,,,
,,,,,,,,,,,,,,p,1,0.954955,space,0.399835,0,103,103,67,1,9_dist_red/trial18.png,,,1,9,redHorizontal,p,83,63,Male,2021-03-02_14h41.21.796,exp11,2020.2.6,Win32,60,,,,,,,,,,,
,,,,,,,,,,,,,,a,1,0.97955,space,0.397975,0,104,104,126,1,0_targ_4_dist_red/trial2.png,,,0,4,redHorizontal,a,83,63,Male,2021-03-02_14h41.21.796,exp11,2020.2.6,Win32,60,,,,,,,,,,,
,,,,,,,,,,,,,,a,1,1.87533,space,0.50471,0,105,105,135,1,0_targ_4_dist_red/trial11.png,,,0,4,redHorizontal,a,83,63,Male,2021-03-02_14h41.21.796,exp11,2020.2.6,Win32,60,,,,,,,,,,,
,,,,,,,,,,,,,,a,1,0.911395,space,0.60268,0,106,106,136,1,0_targ_4_dist_red/trial12.png,,,0,4,redHorizontal,a,83,63,Male,2021-03-02_14h41.21.796,exp11,2020.2.6,Win32,60,,,,,,,,,,,
,,,,,,,,,,,,,,p,1,1.23978,space,0.28678,0,107,107,40,1,3_dist_red/trial16.png,,,1,3,redHorizontal,p,83,63,Male,2021-03-02_14h41.21.796,exp11,2020.2.6,Win32,60,,,,,,,,,,,
,,,,,,,,,,,,,,a,1,0.957555,space,0.35111,0,108,108,115,1,0_targ_1_dist_red/trial6.png,,,0,1,redHorizontal,a,83,63,Male,2021-03-02_14h41.21.796,exp11,2020.2.6,Win32,60,,,,,,,,,,,
,,,,,,,,,,,,,,p,1,0.998725,space,0.271815,0,109,109,35,1,3_dist_red/trial11.png,,,1,3,redHorizontal,p,83,63,Male,2021-03-02_14h41.21.796,exp11,2020.2.6,Win32,60,,,,,,,,,,,
,,,,,,,,,,,,,,a,1,1.27968,space,0.27046,0,110,110,199,1,0_targ_16_dist_red/trial25.png,,,0,16,redHorizontal,a,83,63,Male,2021-03-02_14h41.21.796,exp11,2020.2.6,Win32,60,,,,,,,,,,,
,,,,,,,,,,,,,,p,1,2.57089,space,0.251645,0,111,111,36,1,3_dist_red/trial12.png,,,1,3,redHorizontal,p,83,63,Male,2021-03-02_14h41.21.796,exp11,2020.2.6,Win32,60,,,,,,,,,,,
,,,,,,,,,,,,,,a,1,1.208705,space,0.83383,0,112,112,155,1,0_targ_10_dist_red/trial6.png,,,0,10,redHorizontal,a,83,63,Male,2021-03-02_14h41.21.796,exp11,2020.2.6,Win32,60,,,,,,,,,,,
,,,,,,,,,,,,,,a,1,1.076945,space,0.2862,0,113,113,132,1,0_targ_4_dist_red/trial8.png,,,0,4,redHorizontal,a,83,63,Male,2021-03-02_14h41.21.796,exp11,2020.2.6,Win32,60,,,,,,,,,,,
,,,,,,,,,,,,,,a,1,0.756495,space,0.31313,0,114,114,145,1,0_targ_4_dist_red/trial21.png,,,0,4,redHorizontal,a,83,63,Male,2021-03-02_14h41.21.796,exp11,2020.2.6,Win32,60,,,,,,,,,,,
,,,,,,,,,,,,,,a,1,0.652905,space,0.427175,0,115,115,106,1,0_targ_1_dist_red/trial7.png,,,0,1,redHorizontal,a,83,63,Male,2021-03-02_14h41.21.796,exp11,2020.2.6,Win32,60,,,,,,,,,,,
,,,,,,,,,,,,,,p,1,1.28348,space,0.33001,0,116,116,55,1,9_dist_red/trial6.png,,,1,9,redHorizontal,p,83,63,Male,2021-03-02_14h41.21.796,exp11,2020.2.6,Win32,60,,,,,,,,,,,
,,,,,,,,,,,,,,p,1,1.595135,space,0.232595,0,117,117,19,1,0_dist_red/trial20.png,,,1,0,redHorizontal,p,83,63,Male,2021-03-02_14h41.21.796,exp11,2020.2.6,Win32,60,,,,,,,,,,,
,,,,,,,,,,,,,,p,1,1.229165,space,0.36341,0,118,118,96,1,15_dist_red/trial22.png,,,1,15,redHorizontal,p,83,63,Male,2021-03-02_14h41.21.796,exp11,2020.2.6,Win32,60,,,,,,,,,,,
,,,,,,,,,,,,,,a,1,1.06526,space,0.31884,0,119,119,101,1,0_targ_1_dist_red/trial2.png,,,0,1,redHorizontal,a,83,63,Male,2021-03-02_14h41.21.796,exp11,2020.2.6,Win32,60,,,,,,,,,,,
,,,,,,,,,,,,,,a,1,1.665485,space,0.345265,0,120,120,179,1,0_targ_16_dist_red/trial5.png,,,0,16,redHorizontal,a,83,63,Male,2021-03-02_14h41.21.796,exp11,2020.2.6,Win32,60,,,,,,,,,,,
,,,,,,,,,,,,,,a,0,1.53086,space,1.222035,0,121,121,97,1,15_dist_red/trial23.png,,,1,15,redHorizontal,p,83,63,Male,2021-03-02_14h41.21.796,exp11,2020.2.6,Win32,60,,,,,,,,,,,
,,,,,,,,,,,,,,a,1,1.285595,space,0.33252,0,122,122,124,1,0_targ_1_dist_red/trial25.png,,,0,1,redHorizontal,a,83,63,Male,2021-03-02_14h41.21.796,exp11,2020.2.6,Win32,60,,,,,,,,,,,
,,,,,,,,,,,,,,p,0,3.09001,space,0.853585,0,123,123,172,1,0_targ_10_dist_red/trial23.png,,,0,10,redHorizontal,a,83,63,Male,2021-03-02_14h41.21.796,exp11,2020.2.6,Win32,60,,,,,,,,,,,
,,,,,,,,,,,,,,p,1,1.316665,space,0.267415,0,124,124,14,1,0_dist_red/trial15.png,,,1,0,redHorizontal,p,83,63,Male,2021-03-02_14h41.21.796,exp11,2020.2.6,Win32,60,,,,,,,,,,,
,,,,,,,,,,,,,,a,1,2.80996,space,0.46599,0,125,125,177,1,0_targ_16_dist_red/trial3.png,,,0,16,redHorizontal,a,83,63,Male,2021-03-02_14h41.21.796,exp11,2020.2.6,Win32,60,,,,,,,,,,,
,,,,,,,,,,,,,,a,1,0.802695,space,0.41802,0,126,126,148,1,0_targ_4_dist_red/trial24.png,,,0,4,redHorizontal,a,83,63,Male,2021-03-02_14h41.21.796,exp11,2020.2.6,Win32,60,,,,,,,,,,,
,,,,,,,,,,,,,,a,1,0.76297,space,0.484815,0,127,127,129,1,0_targ_4_dist_red/trial5.png,,,0,4,redHorizontal,a,83,63,Male,2021-03-02_14h41.21.796,exp11,2020.2.6,Win32,60,,,,,,,,,,,
,,,,,,,,,,,,,,p,1,1.06614,space,0.26557,0,128,128,46,1,3_dist_red/trial22.png,,,1,3,redHorizontal,p,83,63,Male,2021-03-02_14h41.21.796,exp11,2020.2.6,Win32,60,,,,,,,,,,,
,,,,,,,,,,,,,,p,1,1.89277,space,0.31226,0,129,129,99,1,15_dist_red/trial25.png,,,1,15,redHorizontal,p,83,63,Male,2021-03-02_14h41.21.796,exp11,2020.2.6,Win32,60,,,,,,,,,,,
,,,,,,,,,,,,,,a,1,2.28128,space,0.34874,0,130,130,194,1,0_targ_16_dist_red/trial20.png,,,0,16,redHorizontal,a,83,63,Male,2021-03-02_14h41.21.796,exp11,2020.2.6,Win32,60,,,,,,,,,,,
,,,,,,,,,,,,,,a,1,1.64386,space,0.84897,0,131,131,184,1,0_targ_16_dist_red/trial10.png,,,0,16,redHorizontal,a,83,63,Male,2021-03-02_14h41.21.796,exp11,2020.2.6,Win32,60,,,,,,,,,,,
,,,,,,,,,,,,,,p,1,1.027035,space,0.2838,0,132,132,83,1,15_dist_red/trial9.png,,,1,15,redHorizontal,p,83,63,Male,2021-03-02_14h41.21.796,exp11,2020.2.6,Win32,60,,,,,,,,,,,
,,,,,,,,,,,,,,p,1,2.827335,space,0.318475,0,133,133,79,1,15_dist_red/trial5.png,,,1,15,redHorizontal,p,83,63,Male,2021-03-02_14h41.21.796,exp11,2020.2.6,Win32,60,,,,,,,,,,,
,,,,,,,,,,,,,,a,1,1.723985,space,0.923645,0,134,134,157,1,0_targ_10_dist_red/trial8.png,,,0,10,redHorizontal,a,83,63,Male,2021-03-02_14h41.21.796,exp11,2020.2.6,Win32,60,,,,,,,,,,,
,,,,,,,,,,,,,,p,1,0.874735,space,0.38424,0,135,135,32,1,3_dist_red/trial8.png,,,1,3,redHorizontal,p,83,63,Male,2021-03-02_14h41.21.796,exp11,2020.2.6,Win32,60,,,,,,,,,,,
,,,,,,,,,,,,,,p,1,1.71722,space,1.192525,0,136,136,71,1,9_dist_red/trial22.png,,,1,9,redHorizontal,p,83,63,Male,2021-03-02_14h41.21.796,exp11,2020.2.6,Win32,60,,,,,,,,,,,
,,,,,,,,,,,,,,a,1,1.2007,space,0.482745,0,137,137,131,1,0_targ_4_dist_red/trial7.png,,,0,4,redHorizontal,a,83,63,Male,2021-03-02_14h41.21.796,exp11,2020.2.6,Win32,60,,,,,,,,,,,
,,,,,,,,,,,,,,p,1,1.263,space,1.017,0,138,138,53,1,9_dist_red/trial4.png,,,1,9,redHorizontal,p,83,63,Male,2021-03-02_14h41.21.796,exp11,2020.2.6,Win32,60,,,,,,,,,,,
,,,,,,,,,,,,,,p,1,1.136215,space,0.29031,0,139,139,60,1,9_dist_red/trial11.png,,,1,9,redHorizontal,p,83,63,Male,2021-03-02_14h41.21.796,exp11,2020.2.6,Win32,60,,,,,,,,,,,
,,,,,,,,,,,,,,a,1,1.003345,space,0.5784,0,140,140,167,1,0_targ_10_dist_red/trial18.png,,,0,10,redHorizontal,a,83,63,Male,2021-03-02_14h41.21.796,exp11,2020.2.6,Win32,60,,,,,,,,,,,
,,,,,,,,,,,,,,p,1,0.970865,space,0.396025,0,141,141,44,1,3_dist_red/trial20.png,,,1,3,redHorizontal,p,83,63,Male,2021-03-02_14h41.21.796,exp11,2020.2.6,Win32,60,,,,,,,,,,,
,,,,,,,,,,,,,,a,1,0.920505,space,0.58143,0,142,142,109,1,0_targ_1_dist_red/trial10.png,,,0,1,redHorizontal,a,83,63,Male,2021-03-02_14h41.21.796,exp11,2020.2.6,Win32,60,,,,,,,,,,,
,,,,,,,,,,,,,,p,1,0.96836,space,0.31854,0,143,143,41,1,3_dist_red/trial17.png,,,1,3,redHorizontal,p,83,63,Male,2021-03-02_14h41.21.796,exp11,2020.2.6,Win32,60,,,,,,,,,,,
,,,,,,,,,,,,,,a,1,1.641325,space,0.452345,0,144,144,187,1,0_targ_16_dist_red/trial13.png,,,0,16,redHorizontal,a,83,63,Male,2021-03-02_14h41.21.796,exp11,2020.2.6,Win32,60,,,,,,,,,,,
,,,,,,,,,,,,,,p,1,1.29334,space,0.288545,0,145,145,89,1,15_dist_red/trial15.png,,,1,15,redHorizontal,p,83,63,Male,2021-03-02_14h41.21.796,exp11,2020.2.6,Win32,60,,,,,,,,,,,
,,,,,,,,,,,,,,p,1,0.89797,space,0.408645,0,146,146,57,1,9_dist_red/trial8.png,,,1,9,redHorizontal,p,83,63,Male,2021-03-02_14h41.21.796,exp11,2020.2.6,Win32,60,,,,,,,,,,,
,,,,,,,,,,,,,,p,1,0.98776,space,0.333925,0,147,147,6,1,0_dist_red/trial7.png,,,1,0,redHorizontal,p,83,63,Male,2021-03-02_14h41.21.796,exp11,2020.2.6,Win32,60,,,,,,,,,,,
,,,,,,,,,,,,,,p,1,0.631505,space,0.295425,0,148,148,27,1,3_dist_red/trial3.png,,,1,3,redHorizontal,p,83,63,Male,2021-03-02_14h41.21.796,exp11,2020.2.6,Win32,60,,,,,,,,,,,
,,,,,,,,,,,,,,a,1,0.91122,space,0.252375,0,149,149,192,1,0_targ_16_dist_red/trial18.png,,,0,16,redHorizontal,a,83,63,Male,2021-03-02_14h41.21.796,exp11,2020.2.6,Win32,60,,,,,,,,,,,
,,,,,,,,,,,,,,p,1,1.448295,space,0.42364,0,150,150,38,1,3_dist_red/trial14.png,,,1,3,redHorizontal,p,83,63,Male,2021-03-02_14h41.21.796,exp11,2020.2.6,Win32,60,,,,,,,,,,,
,,,,,,,,,,,,,,p,1,1.105775,space,0.290885,0,151,151,75,1,15_dist_red/trial1.png,,,1,15,redHorizontal,p,83,63,Male,2021-03-02_14h41.21.796,exp11,2020.2.6,Win32,60,,,,,,,,,,,
,,,,,,,,,,,,,,p,1,0.67714,space,0.16288,0,152,152,10,1,0_dist_red/trial11.png,,,1,0,redHorizontal,p,83,63,Male,2021-03-02_14h41.21.796,exp11,2020.2.6,Win32,60,,,,,,,,,,,
,,,,,,,,,,,,,,a,1,2.20205,space,0.334865,0,153,153,182,1,0_targ_16_dist_red/trial8.png,,,0,16,redHorizontal,a,83,63,Male,2021-03-02_14h41.21.796,exp11,2020.2.6,Win32,60,,,,,,,,,,,
,,,,,,,,,,,,,,a,1,0.99954,space,0.25753,0,154,154,114,1,0_targ_1_dist_red/trial15.png,,,0,1,redHorizontal,a,83,63,Male,2021-03-02_14h41.21.796,exp11,2020.2.6,Win32,60,,,,,,,,,,,
,,,,,,,,,,,,,,p,1,0.8386,space,0.255815,0,155,155,12,1,0_dist_red/trial13.png,,,1,0,redHorizontal,p,83,63,Male,2021-03-02_14h41.21.796,exp11,2020.2.6,Win32,60,,,,,,,,,,,
,,,,,,,,,,,,,,p,1,1.57677,space,0.311395,0,156,156,69,1,9_dist_red/trial20.png,,,1,9,redHorizontal,p,83,63,Male,2021-03-02_14h41.21.796,exp11,2020.2.6,Win32,60,,,,,,,,,,,
,,,,,,,,,,,,,,p,1,0.6062,space,0.255665,0,157,157,64,1,9_dist_red/trial15.png,,,1,9,redHorizontal,p,83,63,Male,2021-03-02_14h41.21.796,exp11,2020.2.6,Win32,60,,,,,,,,,,,
,,,,,,,,,,,,,,a,1,1.278745,space,0.391485,0,158,158,153,1,0_targ_10_dist_red/trial4.png,,,0,10,redHorizontal,a,83,63,Male,2021-03-02_14h41.21.796,exp11,2020.2.6,Win32,60,,,,,,,,,,,
,,,,,,,,,,,,,,a,1,2.94738,space,0.328035,0,159,159,185,1,0_targ_16_dist_red/trial11.png,,,0,16,redHorizontal,a,83,63,Male,2021-03-02_14h41.21.796,exp11,2020.2.6,Win32,60,,,,,,,,,,,
,,,,,,,,,,,,,,p,1,0.964595,space,0.20526,0,160,160,98,1,15_dist_red/trial24.png,,,1,15,redHorizontal,p,83,63,Male,2021-03-02_14h41.21.796,exp11,2020.2.6,Win32,60,,,,,,,,,,,
,,,,,,,,,,,,,,a,1,1.10093,space,1.03962,0,161,161,149,1,0_targ_4_dist_red/trial25.png,,,0,4,redHorizontal,a,83,63,Male,2021-03-02_14h41.21.796,exp11,2020.2.6,Win32,60,,,,,,,,,,,
,,,,,,,,,,,,,,a,1,1.44577,space,0.575965,0,162,162,120,1,0_targ_1_dist_red/trial21.png,,,0,1,redHorizontal,a,83,63,Male,2021-03-02_14h41.21.796,exp11,2020.2.6,Win32,60,,,,,,,,,,,
,,,,,,,,,,,,,,a,1,1.03865,space,0.449415,0,163,163,125,1,0_targ_4_dist_red/trial1.png,,,0,4,redHorizontal,a,83,63,Male,2021-03-02_14h41.21.796,exp11,2020.2.6,Win32,60,,,,,,,,,,,
,,,,,,,,,,,,,,a,1,2.66013,space,0.382145,0,164,164,198,1,0_targ_16_dist_red/trial24.png,,,0,16,redHorizontal,a,83,63,Male,2021-03-02_14h41.21.796,exp11,2020.2.6,Win32,60,,,,,,,,,,,
,,,,,,,,,,,,,,a,1,0.987395,space,0.327845,0,165,165,127,1,0_targ_4_dist_red/trial3.png,,,0,4,redHorizontal,a,83,63,Male,2021-03-02_14h41.21.796,exp11,2020.2.6,Win32,60,,,,,,,,,,,
,,,,,,,,,,,,,,a,1,0.80263,space,0.32461,0,166,166,117,1,0_targ_1_dist_red/trial18.png,,,0,1,redHorizontal,a,83,63,Male,2021-03-02_14h41.21.796,exp11,2020.2.6,Win32,60,,,,,,,,,,,
,,,,,,,,,,,,,,a,0,1.46182,space,0.70158,0,167,167,94,1,15_dist_red/trial20.png,,,1,15,redHorizontal,p,83,63,Male,2021-03-02_14h41.21.796,exp11,2020.2.6,Win32,60,,,,,,,,,,,
,,,,,,,,,,,,,,a,1,2.06493,space,0.228275,0,168,168,170,1,0_targ_10_dist_red/trial21.png,,,0,10,redHorizontal,a,83,63,Male,2021-03-02_14h41.21.796,exp11,2020.2.6,Win32,60,,,,,,,,,,,
,,,,,,,,,,,,,,p,1,1.11489,space,0.3145,0,169,169,88,1,15_dist_red/trial14.png,,,1,15,redHorizontal,p,83,63,Male,2021-03-02_14h41.21.796,exp11,2020.2.6,Win32,60,,,,,,,,,,,
,,,,,,,,,,,,,,a,1,2.751865,space,1.074545,0,170,170,112,1,0_targ_1_dist_red/trial13.png,,,0,1,redHorizontal,a,83,63,Male,2021-03-02_14h41.21.796,exp11,2020.2.6,Win32,60,,,,,,,,,,,
,,,,,,,,,,,,,,a,1,3.007775,space,0.314965,0,171,171,197,1,0_targ_16_dist_red/trial23.png,,,0,16,redHorizontal,a,83,63,Male,2021-03-02_14h41.21.796,exp11,2020.2.6,Win32,60,,,,,,,,,,,
,,,,,,,,,,,,,,a,1,1.156665,space,0.76775,0,172,172,123,1,0_targ_1_dist_red/trial24.png,,,0,1,redHorizontal,a,83,63,Male,2021-03-02_14h41.21.796,exp11,2020.2.6,Win32,60,,,,,,,,,,,
,,,,,,,,,,,,,,a,1,1.367825,space,0.40812,0,173,173,169,1,0_targ_10_dist_red/trial20.png,,,0,10,redHorizontal,a,83,63,Male,2021-03-02_14h41.21.796,exp11,2020.2.6,Win32,60,,,,,,,,,,,
,,,,,,,,,,,,,,p,1,1.12606,space,0.236245,0,174,174,30,1,3_dist_red/trial6.png,,,1,3,redHorizontal,p,83,63,Male,2021-03-02_14h41.21.796,exp11,2020.2.6,Win32,60,,,,,,,,,,,
,,,,,,,,,,,,,,p,1,1.57734,space,0.195355,0,175,175,17,1,0_dist_red/trial18.png,,,1,0,redHorizontal,p,83,63,Male,2021-03-02_14h41.21.796,exp11,2020.2.6,Win32,60,,,,,,,,,,,
,,,,,,,,,,,,,,p,1,0.83667,space,0.201195,0,176,176,29,1,3_dist_red/trial5.png,,,1,3,redHorizontal,p,83,63,Male,2021-03-02_14h41.21.796,exp11,2020.2.6,Win32,60,,,,,,,,,,,
,,,,,,,,,,,,,,a,1,1.027075,space,0.29279,0,177,177,175,1,0_targ_16_dist_red/trial1.png,,,0,16,redHorizontal,a,83,63,Male,2021-03-02_14h41.21.796,exp11,2020.2.6,Win32,60,,,,,,,,,,,
,,,,,,,,,,,,,,p,1,1.234945,space,0.18925,0,178,178,48,1,3_dist_red/trial24.png,,,1,3,redHorizontal,p,83,63,Male,2021-03-02_14h41.21.796,exp11,2020.2.6,Win32,60,,,,,,,,,,,
,,,,,,,,,,,,,,a,1,1.513225,space,0.454085,0,179,179,188,1,0_targ_16_dist_red/trial14.png,,,0,16,redHorizontal,a,83,63,Male,2021-03-02_14h41.21.796,exp11,2020.2.6,Win32,60,,,,,,,,,,,
,,,,,,,,,,,,,,p,1,1.033475,space,0.17671,0,180,180,20,1,0_dist_red/trial21.png,,,1,0,redHorizontal,p,83,63,Male,2021-03-02_14h41.21.796,exp11,2020.2.6,Win32,60,,,,,,,,,,,
,,,,,,,,,,,,,,p,1,0.630045,space,0.221745,0,181,181,11,1,0_dist_red/trial12.png,,,1,0,redHorizontal,p,83,63,Male,2021-03-02_14h41.21.796,exp11,2020.2.6,Win32,60,,,,,,,,,,,
,,,,,,,,,,,,,,a,1,0.99552,space,0.43093,0,182,182,130,1,0_targ_4_dist_red/trial6.png,,,0,4,redHorizontal,a,83,63,Male,2021-03-02_14h41.21.796,exp11,2020.2.6,Win32,60,,,,,,,,,,,
,,,,,,,,,,,,,,a,1,1.44218,space,0.250075,0,183,183,162,1,0_targ_10_dist_red/trial13.png,,,0,10,redHorizontal,a,83,63,Male,2021-03-02_14h41.21.796,exp11,2020.2.6,Win32,60,,,,,,,,,,,
,,,,,,,,,,,,,,p,1,1.357785,space,0.18525,0,184,184,86,1,15_dist_red/trial12.png,,,1,15,redHorizontal,p,83,63,Male,2021-03-02_14h41.21.796,exp11,2020.2.6,Win32,60,,,,,,,,,,,
,,,,,,,,,,,,,,p,1,0.83944,space,0.181645,0,185,185,37,1,3_dist_red/trial13.png,,,1,3,redHorizontal,p,83,63,Male,2021-03-02_14h41.21.796,exp11,2020.2.6,Win32,60,,,,,,,,,,,
,,,,,,,,,,,,,,p,1,0.77554,space,0.19886,0,186,186,4,1,0_dist_red/trial5.png,,,1,0,redHorizontal,p,83,63,Male,2021-03-02_14h41.21.796,exp11,2020.2.6,Win32,60,,,,,,,,,,,
,,,,,,,,,,,,,,p,1,0.997325,space,0.184085,0,187,187,65,1,9_dist_red/trial16.png,,,1,9,redHorizontal,p,83,63,Male,2021-03-02_14h41.21.796,exp11,2020.2.6,Win32,60,,,,,,,,,,,
,,,,,,,,,,,,,,p,1,0.64974,space,0.235715,0,188,188,87,1,15_dist_red/trial13.png,,,1,15,redHorizontal,p,83,63,Male,2021-03-02_14h41.21.796,exp11,2020.2.6,Win32,60,,,,,,,,,,,
,,,,,,,,,,,,,,p,1,0.717955,space,0.25559,0,189,189,82,1,15_dist_red/trial8.png,,,1,15,redHorizontal,p,83,63,Male,2021-03-02_14h41.21.796,exp11,2020.2.6,Win32,60,,,,,,,,,,,
,,,,,,,,,,,,,,p,1,0.93931,space,0.209775,0,190,190,52,1,9_dist_red/trial3.png,,,1,9,redHorizontal,p,83,63,Male,2021-03-02_14h41.21.796,exp11,2020.2.6,Win32,60,,,,,,,,,,,
,,,,,,,,,,,,,,a,1,0.9082,space,0.201375,0,191,191,105,1,0_targ_1_dist_red/trial6.png,,,0,1,redHorizontal,a,83,63,Male,2021-03-02_14h41.21.796,exp11,2020.2.6,Win32,60,,,,,,,,,,,
,,,,,,,,,,,,,,a,1,0.7745,space,0.243625,0,192,192,147,1,0_targ_4_dist_red/trial23.png,,,0,4,redHorizontal,a,83,63,Male,2021-03-02_14h41.21.796,exp11,2020.2.6,Win32,60,,,,,,,,,,,
,,,,,,,,,,,,,,a,1,1.31494,space,0.2904,0,193,193,144,1,0_targ_4_dist_red/trial20.png,,,0,4,redHorizontal,a,83,63,Male,2021-03-02_14h41.21.796,exp11,2020.2.6,Win32,60,,,,,,,,,,,
,,,,,,,,,,,,,,a,1,1.306595,space,0.284075,0,194,194,166,1,0_targ_10_dist_red/trial17.png,,,0,10,redHorizontal,a,83,63,Male,2021-03-02_14h41.21.796,exp11,2020.2.6,Win32,60,,,,,,,,,,,
,,,,,,,,,,,,,,p,1,0.969045,space,0.17504,0,195,195,74,1,9_dist_red/trial25.png,,,1,9,redHorizontal,p,83,63,Male,2021-03-02_14h41.21.796,exp11,2020.2.6,Win32,60,,,,,,,,,,,
,,,,,,,,,,,,,,a,1,0.77643,space,0.32698,0,196,196,141,1,0_targ_4_dist_red/trial17.png,,,0,4,redHorizontal,a,83,63,Male,2021-03-02_14h41.21.796,exp11,2020.2.6,Win32,60,,,,,,,,,,,
,,,,,,,,,,,,,,a,1,1.216485,space,0.4017,0,197,197,189,1,0_targ_16_dist_red/trial15.png,,,0,16,redHorizontal,a,83,63,Male,2021-03-02_14h41.21.796,exp11,2020.2.6,Win32,60,,,,,,,,,,,
,,,,,,,,,,,,,,p,1,0.665225,space,0.226055,0,198,198,9,1,0_dist_red/trial10.png,,,1,0,redHorizontal,p,83,63,Male,2021-03-02_14h41.21.796,exp11,2020.2.6,Win32,60,,,,,,,,,,,
,,,,,,,,,,,,,,a,1,1.78792,space,0.535285,0,199,199,180,1,0_targ_16_dist_red/trial6.png,,,0,16,redHorizontal,a,83,63,Male,2021-03-02_14h41.21.796,exp11,2020.2.6,Win32,60,,,,,,,,,,,
,,,,,,,,,,,,,,,,,,,,,,,,,,,,,,,83,63,Male,2021-03-02_14h41.21.796,exp11,2020.2.6,Win32,60,0,0,0,1,1,conRed.xlsx,red horizontal,Look for red horizontal bar (target) and indicate if it is present or absent in the array. If red horizontal target is present press 'p' and if absent press 'a'. Press SPACE to start.,,,
,,,,,,,,,,space,67.133075,space,3.2891,a,1,1.420845,space,0.298635,0,0,0,104,1,0_targ_1_dist_green/trial5.png,,,0,1,greenverival,a,83,63,Male,2021-03-02_14h41.21.796,exp11,2020.2.6,Win32,60,,,,,,,,,,,
,,,,,,,,,,,,,,p,1,1.349205,space,0.201485,0,1,1,67,1,9_dist_green/trial18.png,,,1,9,greenverival,p,83,63,Male,2021-03-02_14h41.21.796,exp11,2020.2.6,Win32,60,,,,,,,,,,,
,,,,,,,,,,,,,,p,1,0.727585,space,0.206895,0,2,2,50,1,9_dist_green/trial1.png,,,1,9,greenverival,p,83,63,Male,2021-03-02_14h41.21.796,exp11,2020.2.6,Win32,60,,,,,,,,,,,
,,,,,,,,,,,,,,p,0,0.65545,space,3.650585,0,3,3,139,1,0_targ_4_dist_green/trial15.png,,,0,4,greenverival,a,83,63,Male,2021-03-02_14h41.21.796,exp11,2020.2.6,Win32,60,,,,,,,,,,,
,,,,,,,,,,,,,,p,1,1.19276,space,0.18705,0,4,4,7,1,0_dist_green/trial8.png,,,1,0,greenverival,p,83,63,Male,2021-03-02_14h41.21.796,exp11,2020.2.6,Win32,60,,,,,,,,,,,
,,,,,,,,,,,,,,a,1,2.847685,space,0.23825,0,5,5,181,1,0_targ_16_dist_green/trial7.png,,,0,16,greenverival,a,83,63,Male,2021-03-02_14h41.21.796,exp11,2020.2.6,Win32,60,,,,,,,,,,,
,,,,,,,,,,,,,,a,1,0.86566,space,0.29086,0,6,6,145,1,0_targ_4_dist_green/trial21.png,,,0,4,greenverival,a,83,63,Male,2021-03-02_14h41.21.796,exp11,2020.2.6,Win32,60,,,,,,,,,,,
,,,,,,,,,,,,,,a,1,1.4966,space,0.288875,0,7,7,157,1,0_targ_10_dist_green/trial8.png,,,0,10,greenverival,a,83,63,Male,2021-03-02_14h41.21.796,exp11,2020.2.6,Win32,60,,,,,,,,,,,
,,,,,,,,,,,,,,p,1,1.803885,space,0.20783,0,8,8,95,1,15_dist_green/trial21.png,,,1,15,greenverival,p,83,63,Male,2021-03-02_14h41.21.796,exp11,2020.2.6,Win32,60,,,,,,,,,,,
,,,,,,,,,,,,,,p,1,0.881985,space,0.24422,0,9,9,66,1,9_dist_green/trial17.png,,,1,9,greenverival,p,83,63,Male,2021-03-02_14h41.21.796,exp11,2020.2.6,Win32,60,,,,,,,,,,,
,,,,,,,,,,,,,,p,1,0.88193,space,0.23836,0,10,10,24,1,0_dist_green/trial25.png,,,1,0,greenverival,p,83,63,Male,2021-03-02_14h41.21.796,exp11,2020.2.6,Win32,60,,,,,,,,,,,
,,,,,,,,,,,,,,p,1,1.140275,space,0.22367,0,11,11,35,1,3_dist_green/trial11.png,,,1,3,greenverival,p,83,63,Male,2021-03-02_14h41.21.796,exp11,2020.2.6,Win32,60,,,,,,,,,,,
,,,,,,,,,,,,,,p,1,1.2623,space,0.222915,0,12,12,76,1,15_dist_green/trial2.png,,,1,15,greenverival,p,83,63,Male,2021-03-02_14h41.21.796,exp11,2020.2.6,Win32,60,,,,,,,,,,,
,,,,,,,,,,,,,,p,1,0.69394,space,0.264245,0,13,13,40,1,3_dist_green/trial16.png,,,1,3,greenverival,p,83,63,Male,2021-03-02_14h41.21.796,exp11,2020.2.6,Win32,60,,,,,,,,,,,
,,,,,,,,,,,,,,p,1,0.597865,space,0.27989,0,14,14,2,1,0_dist_green/trial3.png,,,1,0,greenverival,p,83,63,Male,2021-03-02_14h41.21.796,exp11,2020.2.6,Win32,60,,,,,,,,,,,
,,,,,,,,,,,,,,p,1,1.02201,space,0.229485,0,15,15,86,1,15_dist_green/trial12.png,,,1,15,greenverival,p,83,63,Male,2021-03-02_14h41.21.796,exp11,2020.2.6,Win32,60,,,,,,,,,,,
,,,,,,,,,,,,,,a,1,0.98954,space,0.26399,0,16,16,128,1,0_targ_4_dist_green/trial4.png,,,0,4,greenverival,a,83,63,Male,2021-03-02_14h41.21.796,exp11,2020.2.6,Win32,60,,,,,,,,,,,
,,,,,,,,,,,,,,a,1,1.144585,space,0.251325,0,17,17,130,1,0_targ_4_dist_green/trial6.png,,,0,4,greenverival,a,83,63,Male,2021-03-02_14h41.21.796,exp11,2020.2.6,Win32,60,,,,,,,,,,,
,,,,,,,,,,,,,,p,1,1.138775,space,0.21955,0,18,18,42,1,3_dist_green/trial18.png,,,1,3,greenverival,p,83,63,Male,2021-03-02_14h41.21.796,exp11,2020.2.6,Win32,60,,,,,,,,,,,
,,,,,,,,,,,,,,a,1,0.923265,space,0.325,0,19,19,152,1,0_targ_10_dist_green/trial3.png,,,0,10,greenverival,a,83,63,Male,2021-03-02_14h41.21.796,exp11,2020.2.6,Win32,60,,,,,,,,,,,
,,,,,,,,,,,,,,a,1,1.16587,space,0.302875,0,20,20,172,1,0_targ_10_dist_green/trial23.png,,,0,10,greenverival,a,83,63,Male,2021-03-02_14h41.21.796,exp11,2020.2.6,Win32,60,,,,,,,,,,,
,,,,,,,,,,,,,,a,1,1.696595,space,0.2583,0,21,21,184,1,0_targ_16_dist_green/trial10.png,,,0,16,greenverival,a,83,63,Male,2021-03-02_14h41.21.796,exp11,2020.2.6,Win32,60,,,,,,,,,,,
,,,,,,,,,,,,,,p,1,0.888625,space,0.23418,0,22,22,27,1,3_dist_green/trial3.png,,,1,3,greenverival,p,83,63,Male,2021-03-02_14h41.21.796,exp11,2020.2.6,Win32,60,,,,,,,,,,,
,,,,,,,,,,,,,,a,1,1.342895,space,0.786605,0,23,23,183,1,0_targ_16_dist_green/trial9.png,,,0,16,greenverival,a,83,63,Male,2021-03-02_14h41.21.796,exp11,2020.2.6,Win32,60,,,,,,,,,,,
,,,,,,,,,,,,,,a,1,0.856455,space,0.34793,0,24,24,171,1,0_targ_10_dist_green/trial22.png,,,0,10,greenverival,a,83,63,Male,2021-03-02_14h41.21.796,exp11,2020.2.6,Win32,60,,,,,,,,,,,
,,,,,,,,,,,,,,p,1,1.08304,space,0.25697,0,25,25,69,1,9_dist_green/trial20.png,,,1,9,greenverival,p,83,63,Male,2021-03-02_14h41.21.796,exp11,2020.2.6,Win32,60,,,,,,,,,,,
,,,,,,,,,,,,,,p,1,0.66548,space,0.266395,0,26,26,89,1,15_dist_green/trial15.png,,,1,15,greenverival,p,83,63,Male,2021-03-02_14h41.21.796,exp11,2020.2.6,Win32,60,,,,,,,,,,,
,,,,,,,,,,,,,,a,1,0.82034,space,0.252135,0,27,27,103,1,0_targ_1_dist_green/trial4.png,,,0,1,greenverival,a,83,63,Male,2021-03-02_14h41.21.796,exp11,2020.2.6,Win32,60,,,,,,,,,,,
,,,,,,,,,,,,,,p,1,1.43144,space,0.25024,0,28,28,51,1,9_dist_green/trial2.png,,,1,9,greenverival,p,83,63,Male,2021-03-02_14h41.21.796,exp11,2020.2.6,Win32,60,,,,,,,,,,,
,,,,,,,,,,,,,,a,1,0.902755,space,0.26976,0,29,29,110,1,0_targ_1_dist_green/trial11.png,,,0,1,greenverival,a,83,63,Male,2021-03-02_14h41.21.796,exp11,2020.2.6,Win32,60,,,,,,,,,,,
,,,,,,,,,,,,,,p,1,1.026635,space,0.207925,0,30,30,77,1,15_dist_green/trial3.png,,,1,15,greenverival,p,83,63,Male,2021-03-02_14h41.21.796,exp11,2020.2.6,Win32,60,,,,,,,,,,,
,,,,,,,,,,,,,,a,1,1.25542,space,0.255855,0,31,31,191,1,0_targ_16_dist_green/trial17.png,,,0,16,greenverival,a,83,63,Male,2021-03-02_14h41.21.796,exp11,2020.2.6,Win32,60,,,,,,,,,,,
,,,,,,,,,,,,,,a,1,1.91135,space,0.323645,0,32,32,199,1,0_targ_16_dist_green/trial25.png,,,0,16,greenverival,a,83,63,Male,2021-03-02_14h41.21.796,exp11,2020.2.6,Win32,60,,,,,,,,,,,
,,,,,,,,,,,,,,p,1,1.205105,space,0.22474,0,33,33,79,1,15_dist_green/trial5.png,,,1,15,greenverival,p,83,63,Male,2021-03-02_14h41.21.796,exp11,2020.2.6,Win32,60,,,,,,,,,,,
,,,,,,,,,,,,,,a,1,0.83046,space,0.34933,0,34,34,149,1,0_targ_4_dist_green/trial25.png,,,0,4,greenverival,a,83,63,Male,2021-03-02_14h41.21.796,exp11,2020.2.6,Win32,60,,,,,,,,,,,
,,,,,,,,,,,,,,p,1,0.782705,space,0.3221,0,35,35,58,1,9_dist_green/trial9.png,,,1,9,greenverival,p,83,63,Male,2021-03-02_14h41.21.796,exp11,2020.2.6,Win32,60,,,,,,,,,,,
,,,,,,,,,,,,,,p,1,0.652785,space,0.287735,0,36,36,39,1,3_dist_green/trial15.png,,,1,3,greenverival,p,83,63,Male,2021-03-02_14h41.21.796,exp11,2020.2.6,Win32,60,,,,,,,,,,,
,,,,,,,,,,,,,,a,1,0.722455,space,0.317705,0,37,37,148,1,0_targ_4_dist_green/trial24.png,,,0,4,greenverival,a,83,63,Male,2021-03-02_14h41.21.796,exp11,2020.2.6,Win32,60,,,,,,,,,,,
,,,,,,,,,,,,,,p,1,0.76146,space,0.24134,0,38,38,36,1,3_dist_green/trial12.png,,,1,3,greenverival,p,83,63,Male,2021-03-02_14h41.21.796,exp11,2020.2.6,Win32,60,,,,,,,,,,,
,,,,,,,,,,,,,,p,1,1.29824,space,0.38029,0,39,39,75,1,15_dist_green/trial1.png,,,1,15,greenverival,p,83,63,Male,2021-03-02_14h41.21.796,exp11,2020.2.6,Win32,60,,,,,,,,,,,
,,,,,,,,,,,,,,a,1,0.948145,space,0.24104,0,40,40,115,1,0_targ_1_dist_green/trial6.png,,,0,1,greenverival,a,83,63,Male,2021-03-02_14h41.21.796,exp11,2020.2.6,Win32,60,,,,,,,,,,,
,,,,,,,,,,,,,,p,1,0.876235,space,0.21756,0,41,41,0,1,0_dist_green/trial1.png,,,1,0,greenverival,p,83,63,Male,2021-03-02_14h41.21.796,exp11,2020.2.6,Win32,60,,,,,,,,,,,
,,,,,,,,,,,,,,a,1,1.36451,space,0.429675,0,42,42,190,1,0_targ_16_dist_green/trial16.png,,,0,16,greenverival,a,83,63,Male,2021-03-02_14h41.21.796,exp11,2020.2.6,Win32,60,,,,,,,,,,,
,,,,,,,,,,,,,,p,1,0.69931,space,0.250885,0,43,43,63,1,9_dist_green/trial14.png,,,1,9,greenverival,p,83,63,Male,2021-03-02_14h41.21.796,exp11,2020.2.6,Win32,60,,,,,,,,,,,
,,,,,,,,,,,,,,a,1,0.972645,space,0.33803,0,44,44,151,1,0_targ_10_dist_green/trial2.png,,,0,10,greenverival,a,83,63,Male,2021-03-02_14h41.21.796,exp11,2020.2.6,Win32,60,,,,,,,,,,,
,,,,,,,,,,,,,,p,1,0.667575,space,0.191895,0,45,45,33,1,3_dist_green/trial9.png,,,1,3,greenverival,p,83,63,Male,2021-03-02_14h41.21.796,exp11,2020.2.6,Win32,60,,,,,,,,,,,
,,,,,,,,,,,,,,a,1,0.8355,space,0.261615,0,46,46,179,1,0_targ_16_dist_green/trial5.png,,,0,16,greenverival,a,83,63,Male,2021-03-02_14h41.21.796,exp11,2020.2.6,Win32,60,,,,,,,,,,,
,,,,,,,,,,,,,,a,1,2.3708,space,0.99307,0,47,47,180,1,0_targ_16_dist_green/trial6.png,,,0,16,greenverival,a,83,63,Male,2021-03-02_14h41.21.796,exp11,2020.2.6,Win32,60,,,,,,,,,,,
,,,,,,,,,,,,,,a,1,1.80368,space,0.245075,0,48,48,154,1,0_targ_10_dist_green/trial5.png,,,0,10,greenverival,a,83,63,Male,2021-03-02_14h41.21.796,exp11,2020.2.6,Win32,60,,,,,,,,,,,
,,,,,,,,,,,,,,p,1,0.89529,space,0.201755,0,49,49,68,1,9_dist_green/trial19.png,,,1,9,greenverival,p,83,63,Male,2021-03-02_14h41.21.796,exp11,2020.2.6,Win32,60,,,,,,,,,,,
,,,,,,,,,,,,,,a,1,1.00831,space,0.30873,0,50,50,182,1,0_targ_16_dist_green/trial8.png,,,0,16,greenverival,a,83,63,Male,2021-03-02_14h41.21.796,exp11,2020.2.6,Win32,60,,,,,,,,,,,
,,,,,,,,,,,,,,a,1,0.898335,space,0.301465,0,51,51,168,1,0_targ_10_dist_green/trial19.png,,,0,10,greenverival,a,83,63,Male,2021-03-02_14h41.21.796,exp11,2020.2.6,Win32,60,,,,,,,,,,,
,,,,,,,,,,,,,,a,1,1.108165,space,0.2835,0,52,52,169,1,0_targ_10_dist_green/trial20.png,,,0,10,greenverival,a,83,63,Male,2021-03-02_14h41.21.796,exp11,2020.2.6,Win32,60,,,,,,,,,,,
,,,,,,,,,,,,,,p,1,0.63264,space,0.17163,0,53,53,6,1,0_dist_green/trial7.png,,,1,0,greenverival,p,83,63,Male,2021-03-02_14h41.21.796,exp11,2020.2.6,Win32,60,,,,,,,,,,,
,,,,,,,,,,,,,,p,1,0.667375,space,0.23462,0,54,54,47,1,3_dist_green/trial23.png,,,1,3,greenverival,p,83,63,Male,2021-03-02_14h41.21.796,exp11,2020.2.6,Win32,60,,,,,,,,,,,
,,,,,,,,,,,,,,a,1,0.79408,space,0.282585,0,55,55,165,1,0_targ_10_dist_green/trial16.png,,,0,10,greenverival,a,83,63,Male,2021-03-02_14h41.21.796,exp11,2020.2.6,Win32,60,,,,,,,,,,,
,,,,,,,,,,,,,,a,1,1.24805,space,0.2345,0,56,56,175,1,0_targ_16_dist_green/trial1.png,,,0,16,greenverival,a,83,63,Male,2021-03-02_14h41.21.796,exp11,2020.2.6,Win32,60,,,,,,,,,,,
,,,,,,,,,,,,,,a,1,0.785645,space,0.401265,0,57,57,166,1,0_targ_10_dist_green/trial17.png,,,0,10,greenverival,a,83,63,Male,2021-03-02_14h41.21.796,exp11,2020.2.6,Win32,60,,,,,,,,,,,
,,,,,,,,,,,,,,a,1,1.0096,space,0.28021,0,58,58,170,1,0_targ_10_dist_green/trial21.png,,,0,10,greenverival,a,83,63,Male,2021-03-02_14h41.21.796,exp11,2020.2.6,Win32,60,,,,,,,,,,,
,,,,,,,,,,,,,,p,0,0.692175,space,0.903895,0,59,59,147,1,0_targ_4_dist_green/trial23.png,,,0,4,greenverival,a,83,63,Male,2021-03-02_14h41.21.796,exp11,2020.2.6,Win32,60,,,,,,,,,,,
,,,,,,,,,,,,,,a,1,1.356515,space,0.29858,0,60,60,176,1,0_targ_16_dist_green/trial2.png,,,0,16,greenverival,a,83,63,Male,2021-03-02_14h41.21.796,exp11,2020.2.6,Win32,60,,,,,,,,,,,
,,,,,,,,,,,,,,p,1,0.701865,space,0.20348,0,61,61,88,1,15_dist_green/trial14.png,,,1,15,greenverival,p,83,63,Male,2021-03-02_14h41.21.796,exp11,2020.2.6,Win32,60,,,,,,,,,,,
,,,,,,,,,,,,,,a,1,0.786515,space,0.300745,0,62,62,197,1,0_targ_16_dist_green/trial23.png,,,0,16,greenverival,a,83,63,Male,2021-03-02_14h41.21.796,exp11,2020.2.6,Win32,60,,,,,,,,,,,
,,,,,,,,,,,,,,a,1,1.044355,space,0.31722,0,63,63,186,1,0_targ_16_dist_green/trial12.png,,,0,16,greenverival,a,83,63,Male,2021-03-02_14h41.21.796,exp11,2020.2.6,Win32,60,,,,,,,,,,,
,,,,,,,,,,,,,,a,1,0.84658,space,0.24778,0,64,64,107,1,0_targ_1_dist_green/trial8.png,,,0,1,greenverival,a,83,63,Male,2021-03-02_14h41.21.796,exp11,2020.2.6,Win32,60,,,,,,,,,,,
,,,,,,,,,,,,,,a,1,0.71875,space,0.27398,0,65,65,164,1,0_targ_10_dist_green/trial15.png,,,0,10,greenverival,a,83,63,Male,2021-03-02_14h41.21.796,exp11,2020.2.6,Win32,60,,,,,,,,,,,
,,,,,,,,,,,,,,a,1,0.63417,space,0.31659,0,66,66,127,1,0_targ_4_dist_green/trial3.png,,,0,4,greenverival,a,83,63,Male,2021-03-02_14h41.21.796,exp11,2020.2.6,Win32,60,,,,,,,,,,,
,,,,,,,,,,,,,,a,1,0.95943,space,0.284345,0,67,67,156,1,0_targ_10_dist_green/trial7.png,,,0,10,greenverival,a,83,63,Male,2021-03-02_14h41.21.796,exp11,2020.2.6,Win32,60,,,,,,,,,,,
,,,,,,,,,,,,,,p,1,0.80217,space,0.4661,0,68,68,1,1,0_dist_green/trial2.png,,,1,0,greenverival,p,83,63,Male,2021-03-02_14h41.21.796,exp11,2020.2.6,Win32,60,,,,,,,,,,,
,,,,,,,,,,,,,,p,1,1.11908,space,0.21497,0,69,69,13,1,0_dist_green/trial14.png,,,1,0,greenverival,p,83,63,Male,2021-03-02_14h41.21.796,exp11,2020.2.6,Win32,60,,,,,,,,,,,
,,,,,,,,,,,,,,a,1,0.750055,space,0.2684,0,70,70,137,1,0_targ_4_dist_green/trial13.png,,,0,4,greenverival,a,83,63,Male,2021-03-02_14h41.21.796,exp11,2020.2.6,Win32,60,,,,,,,,,,,
,,,,,,,,,,,,,,p,1,1.069395,space,0.184855,0,71,71,65,1,9_dist_green/trial16.png,,,1,9,greenverival,p,83,63,Male,2021-03-02_14h41.21.796,exp11,2020.2.6,Win32,60,,,,,,,,,,,
,,,,,,,,,,,,,,a,1,0.89178,space,0.98471,0,72,72,173,1,0_targ_10_dist_green/trial24.png,,,0,10,greenverival,a,83,63,Male,2021-03-02_14h41.21.796,exp11,2020.2.6,Win32,60,,,,,,,,,,,
,,,,,,,,,,,,,,a,1,1.553435,space,0.438995,0,73,73,155,1,0_targ_10_dist_green/trial6.png,,,0,10,greenverival,a,83,63,Male,2021-03-02_14h41.21.796,exp11,2020.2.6,Win32,60,,,,,,,,,,,
,,,,,,,,,,,,,,a,1,0.7534,space,0.3834,0,74,74,133,1,0_targ_4_dist_green/trial9.png,,,0,4,greenverival,a,83,63,Male,2021-03-02_14h41.21.796,exp11,2020.2.6,Win32,60,,,,,,,,,,,
,,,,,,,,,,,,,,p,1,0.65562,space,0.18338,0,75,75,84,1,15_dist_green/trial10.png,,,1,15,greenverival,p,83,63,Male,2021-03-02_14h41.21.796,exp11,2020.2.6,Win32,60,,,,,,,,,,,
,,,,,,,,,,,,,,p,1,0.913585,space,2.251185,0,76,76,74,1,9_dist_green/trial25.png,,,1,9,greenverival,p,83,63,Male,2021-03-02_14h41.21.796,exp11,2020.2.6,Win32,60,,,,,,,,,,,
,,,,,,,,,,,,,,p,1,1.036425,space,0.283645,0,77,77,87,1,15_dist_green/trial13.png,,,1,15,greenverival,p,83,63,Male,2021-03-02_14h41.21.796,exp11,2020.2.6,Win32,60,,,,,,,,,,,
,,,,,,,,,,,,,,p,1,0.784015,space,0.30236,0,78,78,29,1,3_dist_green/trial5.png,,,1,3,greenverival,p,83,63,Male,2021-03-02_14h41.21.796,exp11,2020.2.6,Win32,60,,,,,,,,,,,
,,,,,,,,,,,,,,p,1,0.78888,space,0.30848,0,79,79,94,1,15_dist_green/trial20.png,,,1,15,greenverival,p,83,63,Male,2021-03-02_14h41.21.796,exp11,2020.2.6,Win32,60,,,,,,,,,,,
,,,,,,,,,,,,,,a,1,0.84792,space,0.752355,0,80,80,123,1,0_targ_1_dist_green/trial24.png,,,0,1,greenverival,a,83,63,Male,2021-03-02_14h41.21.796,exp11,2020.2.6,Win32,60,,,,,,,,,,,
,,,,,,,,,,,,,,p,1,0.842125,space,0.16766,0,81,81,23,1,0_dist_green/trial24.png,,,1,0,greenverival,p,83,63,Male,2021-03-02_14h41.21.796,exp11,2020.2.6,Win32,60,,,,,,,,,,,
,,,,,,,,,,,,,,p,1,1.549545,space,0.251065,0,82,82,26,1,3_dist_green/trial2.png,,,1,3,greenverival,p,83,63,Male,2021-03-02_14h41.21.796,exp11,2020.2.6,Win32,60,,,,,,,,,,,
,,,,,,,,,,,,,,p,1,0.759785,space,0.261055,0,83,83,38,1,3_dist_green/trial14.png,,,1,3,greenverival,p,83,63,Male,2021-03-02_14h41.21.796,exp11,2020.2.6,Win32,60,,,,,,,,,,,
,,,,,,,,,,,,,,p,1,0.753525,space,0.301245,0,84,84,32,1,3_dist_green/trial8.png,,,1,3,greenverival,p,83,63,Male,2021-03-02_14h41.21.796,exp11,2020.2.6,Win32,60,,,,,,,,,,,
,,,,,,,,,,,,,,p,1,1.72217,space,0.25129,0,85,85,97,1,15_dist_green/trial23.png,,,1,15,greenverival,p,83,63,Male,2021-03-02_14h41.21.796,exp11,2020.2.6,Win32,60,,,,,,,,,,,
,,,,,,,,,,,,,,p,1,0.871115,space,0.28456,0,86,86,59,1,9_dist_green/trial10.png,,,1,9,greenverival,p,83,63,Male,2021-03-02_14h41.21.796,exp11,2020.2.6,Win32,60,,,,,,,,,,,
,,,,,,,,,,,,,,p,1,0.80548,space,0.21788,0,87,87,78,1,15_dist_green/trial4.png,,,1,15,greenverival,p,83,63,Male,2021-03-02_14h41.21.796,exp11,2020.2.6,Win32,60,,,,,,,,,,,
,,,,,,,,,,,,,,p,1,0.960025,space,0.1834,0,88,88,71,1,9_dist_green/trial22.png,,,1,9,greenverival,p,83,63,Male,2021-03-02_14h41.21.796,exp11,2020.2.6,Win32,60,,,,,,,,,,,
,,,,,,,,,,,,,,p,1,0.883555,space,0.168065,0,89,89,70,1,9_dist_green/trial21.png,,,1,9,greenverival,p,83,63,Male,2021-03-02_14h41.21.796,exp11,2020.2.6,Win32,60,,,,,,,,,,,
,,,,,,,,,,,,,,a,1,0.872015,space,0.301515,0,90,90,122,1,0_targ_1_dist_green/trial23.png,,,0,1,greenverival,a,83,63,Male,2021-03-02_14h41.21.796,exp11,2020.2.6,Win32,60,,,,,,,,,,,
,,,,,,,,,,,,,,a,1,1.002515,space,0.24063,0,91,91,135,1,0_targ_4_dist_green/trial11.png,,,0,4,greenverival,a,83,63,Male,2021-03-02_14h41.21.796,exp11,2020.2.6,Win32,60,,,,,,,,,,,
,,,,,,,,,,,,,,p,1,0.788465,space,0.18742,0,92,92,52,1,9_dist_green/trial3.png,,,1,9,greenverival,p,83,63,Male,2021-03-02_14h41.21.796,exp11,2020.2.6,Win32,60,,,,,,,,,,,
,,,,,,,,,,,,,,p,1,0.83938,space,0.168335,0,93,93,37,1,3_dist_green/trial13.png,,,1,3,greenverival,p,83,63,Male,2021-03-02_14h41.21.796,exp11,2020.2.6,Win32,60,,,,,,,,,,,
,,,,,,,,,,,,,,a,1,1.075085,space,0.201555,0,94,94,140,1,0_targ_4_dist_green/trial6.png,,,0,4,greenverival,a,83,63,Male,2021-03-02_14h41.21.796,exp11,2020.2.6,Win32,60,,,,,,,,,,,
,,,,,,,,,,,,,,p,1,0.72712,space,0.167335,0,95,95,18,1,0_dist_green/trial19.png,,,1,0,greenverival,p,83,63,Male,2021-03-02_14h41.21.796,exp11,2020.2.6,Win32,60,,,,,,,,,,,
,,,,,,,,,,,,,,a,1,1.002815,space,0.2318,0,96,96,162,1,0_targ_10_dist_green/trial13.png,,,0,10,greenverival,a,83,63,Male,2021-03-02_14h41.21.796,exp11,2020.2.6,Win32,60,,,,,,,,,,,
,,,,,,,,,,,,,,p,1,0.710085,space,0.147645,0,97,97,16,1,0_dist_green/trial17.png,,,1,0,greenverival,p,83,63,Male,2021-03-02_14h41.21.796,exp11,2020.2.6,Win32,60,,,,,,,,,,,
,,,,,,,,,,,,,,a,0,1.52083,space,2.33829,0,98,98,55,1,9_dist_green/trial6.png,,,1,9,greenverival,p,83,63,Male,2021-03-02_14h41.21.796,exp11,2020.2.6,Win32,60,,,,,,,,,,,
,,,,,,,,,,,,,,p,1,1.19512,space,1.063995,0,99,99,54,1,9_dist_green/trial5.png,,,1,9,greenverival,p,83,63,Male,2021-03-02_14h41.21.796,exp11,2020.2.6,Win32,60,,,,,,,,,,,
,,,,,,,,,,,,,,p,1,1.06459,space,0.534805,0,100,100,10,1,0_dist_green/trial11.png,,,1,0,greenverival,p,83,63,Male,2021-03-02_14h41.21.796,exp11,2020.2.6,Win32,60,,,,,,,,,,,
,,,,,,,,,,,,,,p,1,1.29586,space,0.244755,0,101,101,44,1,3_dist_green/trial20.png,,,1,3,greenverival,p,83,63,Male,2021-03-02_14h41.21.796,exp11,2020.2.6,Win32,60,,,,,,,,,,,
,,,,,,,,,,,,,,a,1,0.804145,space,0.29973,0,102,102,109,1,0_targ_1_dist_green/trial10.png,,,0,1,greenverival,a,83,63,Male,2021-03-02_14h41.21.796,exp11,2020.2.6,Win32,60,,,,,,,,,,,
,,,,,,,,,,,,,,a,1,1.02553,space,0.366655,0,103,103,146,1,0_targ_4_dist_green/trial22.png,,,0,4,greenverival,a,83,63,Male,2021-03-02_14h41.21.796,exp11,2020.2.6,Win32,60,,,,,,,,,,,
,,,,,,,,,,,,,,a,1,1.10693,space,0.3159,0,104,104,118,1,0_targ_1_dist_green/trial19.png,,,0,1,greenverival,a,83,63,Male,2021-03-02_14h41.21.796,exp11,2020.2.6,Win32,60,,,,,,,,,,,
,,,,,,,,,,,,,,a,1,0.583655,space,0.384925,0,105,105,117,1,0_targ_1_dist_green/trial18.png,,,0,1,greenverival,a,83,63,Male,2021-03-02_14h41.21.796,exp11,2020.2.6,Win32,60,,,,,,,,,,,
,,,,,,,,,,,,,,p,1,0.86079,space,0.186675,0,106,106,15,1,0_dist_green/trial16.png,,,1,0,greenverival,p,83,63,Male,2021-03-02_14h41.21.796,exp11,2020.2.6,Win32,60,,,,,,,,,,,
,,,,,,,,,,,,,,p,1,1.358705,space,0.227245,0,107,107,81,1,15_dist_green/trial7.png,,,1,15,greenverival,p,83,63,Male,2021-03-02_14h41.21.796,exp11,2020.2.6,Win32,60,,,,,,,,,,,
,,,,,,,,,,,,,,a,1,0.996585,space,0.28343,0,108,108,144,1,0_targ_4_dist_green/trial20.png,,,0,4,greenverival,a,83,63,Male,2021-03-02_14h41.21.796,exp11,2020.2.6,Win32,60,,,,,,,,,,,
,,,,,,,,,,,,,,a,1,1.266995,space,1.35267,0,109,109,198,1,0_targ_16_dist_green/trial24.png,,,0,16,greenverival,a,83,63,Male,2021-03-02_14h41.21.796,exp11,2020.2.6,Win32,60,,,,,,,,,,,
,,,,,,,,,,,,,,a,1,1.16428,space,0.251295,0,110,110,124,1,0_targ_1_dist_green/trial25.png,,,0,1,greenverival,a,83,63,Male,2021-03-02_14h41.21.796,exp11,2020.2.6,Win32,60,,,,,,,,,,,
,,,,,,,,,,,,,,a,1,1.21839,space,0.316905,0,111,111,143,1,0_targ_4_dist_green/trial19.png,,,0,4,greenverival,a,83,63,Male,2021-03-02_14h41.21.796,exp11,2020.2.6,Win32,60,,,,,,,,,,,
,,,,,,,,,,,,,,p,1,1.17803,space,0.196605,0,112,112,48,1,3_dist_green/trial24.png,,,1,3,greenverival,p,83,63,Male,2021-03-02_14h41.21.796,exp11,2020.2.6,Win32,60,,,,,,,,,,,
,,,,,,,,,,,,,,p,1,1.087005,space,0.18407,0,113,113,72,1,9_dist_green/trial23.png,,,1,9,greenverival,p,83,63,Male,2021-03-02_14h41.21.796,exp11,2020.2.6,Win32,60,,,,,,,,,,,
,,,,,,,,,,,,,,a,1,2.37332,space,0.85142,0,114,114,177,1,0_targ_16_dist_green/trial3.png,,,0,16,greenverival,a,83,63,Male,2021-03-02_14h41.21.796,exp11,2020.2.6,Win32,60,,,,,,,,,,,
,,,,,,,,,,,,,,a,1,1.871265,space,0.51834,0,115,115,196,1,0_targ_16_dist_green/trial22.png,,,0,16,greenverival,a,83,63,Male,2021-03-02_14h41.21.796,exp11,2020.2.6,Win32,60,,,,,,,,,,,
,,,,,,,,,,,,,,p,1,0.82227,space,0.20162,0,116,116,93,1,15_dist_green/trial19.png,,,1,15,greenverival,p,83,63,Male,2021-03-02_14h41.21.796,exp11,2020.2.6,Win32,60,,,,,,,,,,,
,,,,,,,,,,,,,,p,1,0.907155,space,0.191645,0,117,117,4,1,0_dist_green/trial5.png,,,1,0,greenverival,p,83,63,Male,2021-03-02_14h41.21.796,exp11,2020.2.6,Win32,60,,,,,,,,,,,
,,,,,,,,,,,,,,p,1,0.58378,space,0.300415,0,118,118,9,1,0_dist_green/trial10.png,,,1,0,greenverival,p,83,63,Male,2021-03-02_14h41.21.796,exp11,2020.2.6,Win32,60,,,,,,,,,,,
,,,,,,,,,,,,,,a,1,1.388025,space,0.252305,0,119,119,167,1,0_targ_10_dist_green/trial18.png,,,0,10,greenverival,a,83,63,Male,2021-03-02_14h41.21.796,exp11,2020.2.6,Win32,60,,,,,,,,,,,
,,,,,,,,,,,,,,p,1,0.748115,space,0.18601,0,120,120,41,1,3_dist_green/trial17.png,,,1,3,greenverival,p,83,63,Male,2021-03-02_14h41.21.796,exp11,2020.2.6,Win32,60,,,,,,,,,,,
,,,,,,,,,,,,,,a,1,0.92216,space,0.255115,0,121,121,136,1,0_targ_4_dist_green/trial12.png,,,0,4,greenverival,a,83,63,Male,2021-03-02_14h41.21.796,exp11,2020.2.6,Win32,60,,,,,,,,,,,
,,,,,,,,,,,,,,a,1,0.968455,space,0.28449,0,122,122,112,1,0_targ_1_dist_green/trial13.png,,,0,1,greenverival,a,83,63,Male,2021-03-02_14h41.21.796,exp11,2020.2.6,Win32,60,,,,,,,,,,,
,,,,,,,,,,,,,,p,1,0.792305,space,0.20114,0,123,123,22,1,0_dist_green/trial23.png,,,1,0,greenverival,p,83,63,Male,2021-03-02_14h41.21.796,exp11,2020.2.6,Win32,60,,,,,,,,,,,
,,,,,,,,,,,,,,a,1,1.031225,space,0.23523,0,124,124,121,1,0_targ_1_dist_green/trial22.png,,,0,1,greenverival,a,83,63,Male,2021-03-02_14h41.21.796,exp11,2020.2.6,Win32,60,,,,,,,,,,,
,,,,,,,,,,,,,,a,1,1.172585,space,0.267435,0,125,125,125,1,0_targ_4_dist_green/trial1.png,,,0,4,greenverival,a,83,63,Male,2021-03-02_14h41.21.796,exp11,2020.2.6,Win32,60,,,,,,,,,,,
,,,,,,,,,,,,,,p,1,0.95567,space,0.18367,0,126,126,60,1,9_dist_green/trial11.png,,,1,9,greenverival,p,83,63,Male,2021-03-02_14h41.21.796,exp11,2020.2.6,Win32,60,,,,,,,,,,,
,,,,,,,,,,,,,,a,1,0.969145,space,0.28514,0,127,127,119,1,0_targ_1_dist_green/trial20.png,,,0,1,greenverival,a,83,63,Male,2021-03-02_14h41.21.796,exp11,2020.2.6,Win32,60,,,,,,,,,,,
,,,,,,,,,,,,,,p,1,0.747545,space,0.25375,0,128,128,5,1,0_dist_green/trial6.png,,,1,0,greenverival,p,83,63,Male,2021-03-02_14h41.21.796,exp11,2020.2.6,Win32,60,,,,,,,,,,,
,,,,,,,,,,,,,,p,1,0.729185,space,0.26886,0,129,129,83,1,15_dist_green/trial9.png,,,1,15,greenverival,p,83,63,Male,2021-03-02_14h41.21.796,exp11,2020.2.6,Win32,60,,,,,,,,,,,
,,,,,,,,,,,,,,a,1,0.701015,space,0.451655,0,130,130,134,1,0_targ_4_dist_green/trial10.png,,,0,4,greenverival,a,83,63,Male,2021-03-02_14h41.21.796,exp11,2020.2.6,Win32,60,,,,,,,,,,,
,,,,,,,,,,,,,,p,1,0.831285,space,0.28679,0,131,131,99,1,15_dist_green/trial25.png,,,1,15,greenverival,p,83,63,Male,2021-03-02_14h41.21.796,exp11,2020.2.6,Win32,60,,,,,,,,,,,
,,,,,,,,,,,,,,a,1,1.21536,space,0.467105,0,132,132,159,1,0_targ_10_dist_green/trial10.png,,,0,10,greenverival,a,83,63,Male,2021-03-02_14h41.21.796,exp11,2020.2.6,Win32,60,,,,,,,,,,,
,,,,,,,,,,,,,,a,0,0.9838,space,2.16824,0,133,133,56,1,9_dist_green/trial7.png,,,1,9,greenverival,p,83,63,Male,2021-03-02_14h41.21.796,exp11,2020.2.6,Win32,60,,,,,,,,,,,
,,,,,,,,,,,,,,p,1,1.08212,space,0.151895,0,134,134,20,1,0_dist_green/trial21.png,,,1,0,greenverival,p,83,63,Male,2021-03-02_14h41.21.796,exp11,2020.2.6,Win32,60,,,,,,,,,,,
,,,,,,,,,,,,,,a,1,0.877445,space,0.29163,0,135,135,129,1,0_targ_4_dist_green/trial5.png,,,0,4,greenverival,a,83,63,Male,2021-03-02_14h41.21.796,exp11,2020.2.6,Win32,60,,,,,,,,,,,
,,,,,,,,,,,,,,a,1,2.18344,space,0.46802,0,136,136,194,1,0_targ_16_dist_green/trial20.png,,,0,16,greenverival,a,83,63,Male,2021-03-02_14h41.21.796,exp11,2020.2.6,Win32,60,,,,,,,,,,,
,,,,,,,,,,,,,,p,1,0.685545,space,0.186285,0,137,137,31,1,3_dist_green/trial7.png,,,1,3,greenverival,p,83,63,Male,2021-03-02_14h41.21.796,exp11,2020.2.6,Win32,60,,,,,,,,,,,
,,,,,,,,,,,,,,p,0,0.71654,space,0.21882,0,138,138,106,1,0_targ_1_dist_green/trial7.png,,,0,1,greenverival,a,83,63,Male,2021-03-02_14h41.21.796,exp11,2020.2.6,Win32,60,,,,,,,,,,,
,,,,,,,,,,,,,,p,1,1.21764,space,0.28258,0,139,139,85,1,15_dist_green/trial11.png,,,1,15,greenverival,p,83,63,Male,2021-03-02_14h41.21.796,exp11,2020.2.6,Win32,60,,,,,,,,,,,
,,,,,,,,,,,,,,p,1,0.86707,space,0.3525,0,140,140,98,1,15_dist_green/trial24.png,,,1,15,greenverival,p,83,63,Male,2021-03-02_14h41.21.796,exp11,2020.2.6,Win32,60,,,,,,,,,,,
,,,,,,,,,,,,,,p,1,1.122055,space,0.31683,0,141,141,46,1,3_dist_green/trial22.png,,,1,3,greenverival,p,83,63,Male,2021-03-02_14h41.21.796,exp11,2020.2.6,Win32,60,,,,,,,,,,,
,,,,,,,,,,,,,,a,1,1.25669,space,1.924275,0,142,142,189,1,0_targ_16_dist_green/trial15.png,,,0,16,greenverival,a,83,63,Male,2021-03-02_14h41.21.796,exp11,2020.2.6,Win32,60,,,,,,,,,,,
,,,,,,,,,,,,,,a,1,1.21689,space,1.13378,0,143,143,195,1,0_targ_16_dist_green/trial21.png,,,0,16,greenverival,a,83,63,Male,2021-03-02_14h41.21.796,exp11,2020.2.6,Win32,60,,,,,,,,,,,
,,,,,,,,,,,,,,p,1,0.975165,space,0.32654,0,144,144,64,1,9_dist_green/trial15.png,,,1,9,greenverival,p,83,63,Male,2021-03-02_14h41.21.796,exp11,2020.2.6,Win32,60,,,,,,,,,,,
,,,,,,,,,,,,,,p,1,0.91661,space,0.337155,0,145,145,30,1,3_dist_green/trial6.png,,,1,3,greenverival,p,83,63,Male,2021-03-02_14h41.21.796,exp11,2020.2.6,Win32,60,,,,,,,,,,,
,,,,,,,,,,,,,,p,1,0.67532,space,0.258605,0,146,146,82,1,15_dist_green/trial8.png,,,1,15,greenverival,p,83,63,Male,2021-03-02_14h41.21.796,exp11,2020.2.6,Win32,60,,,,,,,,,,,
,,,,,,,,,,,,,,a,1,0.817805,space,0.319455,0,147,147,126,1,0_targ_4_dist_green/trial2.png,,,0,4,greenverival,a,83,63,Male,2021-03-02_14h41.21.796,exp11,2020.2.6,Win32,60,,,,,,,,,,,
,,,,,,,,,,,,,,p,1,1.39311,space,0.267535,0,148,148,43,1,3_dist_green/trial19.png,,,1,3,greenverival,p,83,63,Male,2021-03-02_14h41.21.796,exp11,2020.2.6,Win32,60,,,,,,,,,,,
,,,,,,,,,,,,,,p,1,0.90046,space,0.267595,0,149,149,28,1,3_dist_green/trial4.png,,,1,3,greenverival,p,83,63,Male,2021-03-02_14h41.21.796,exp11,2020.2.6,Win32,60,,,,,,,,,,,
,,,,,,,,,,,,,,a,1,4.472465,space,0.933515,0,150,150,193,1,0_targ_16_dist_green/trial19.png,,,0,16,greenverival,a,83,63,Male,2021-03-02_14h41.21.796,exp11,2020.2.6,Win32,60,,,,,,,,,,,
,,,,,,,,,,,,,,a,1,5.314485,space,0.360155,0,151,151,116,1,0_targ_1_dist_green/trial17.png,,,0,1,greenverival,a,83,63,Male,2021-03-02_14h41.21.796,exp11,2020.2.6,Win32,60,,,,,,,,,,,
,,,,,,,,,,,,,,p,1,0.997885,space,0.234335,0,152,152,21,1,0_dist_green/trial22.png,,,1,0,greenverival,p,83,63,Male,2021-03-02_14h41.21.796,exp11,2020.2.6,Win32,60,,,,,,,,,,,
,,,,,,,,,,,,,,p,1,1.4247,space,0.200155,0,153,153,80,1,15_dist_green/trial6.png,,,1,15,greenverival,p,83,63,Male,2021-03-02_14h41.21.796,exp11,2020.2.6,Win32,60,,,,,,,,,,,
,,,,,,,,,,,,,,p,1,0.992785,space,0.1852,0,154,154,45,1,3_dist_green/trial21.png,,,1,3,greenverival,p,83,63,Male,2021-03-02_14h41.21.796,exp11,2020.2.6,Win32,60,,,,,,,,,,,
,,,,,,,,,,,,,,a,1,0.834005,space,0.30127,0,155,155,131,1,0_targ_4_dist_green/trial7.png,,,0,4,greenverival,a,83,63,Male,2021-03-02_14h41.21.796,exp11,2020.2.6,Win32,60,,,,,,,,,,,
,,,,,,,,,,,,,,a,1,1.24661,space,0.387185,0,156,156,188,1,0_targ_16_dist_green/trial14.png,,,0,16,greenverival,a,83,63,Male,2021-03-02_14h41.21.796,exp11,2020.2.6,Win32,60,,,,,,,,,,,
,,,,,,,,,,,,,,p,1,1.801,space,0.318335,0,157,157,96,1,15_dist_green/trial22.png,,,1,15,greenverival,p,83,63,Male,2021-03-02_14h41.21.796,exp11,2020.2.6,Win32,60,,,,,,,,,,,
,,,,,,,,,,,,,,a,1,1.27266,space,0.36467,0,158,158,150,1,0_targ_10_dist_green/trial1.png,,,0,10,greenverival,a,83,63,Male,2021-03-02_14h41.21.796,exp11,2020.2.6,Win32,60,,,,,,,,,,,
,,,,,,,,,,,,,,p,1,0.68896,space,0.21706,0,159,159,57,1,9_dist_green/trial8.png,,,1,9,greenverival,p,83,63,Male,2021-03-02_14h41.21.796,exp11,2020.2.6,Win32,60,,,,,,,,,,,
,,,,,,,,,,,,,,p,1,0.712055,space,0.26594,0,160,160,34,1,3_dist_green/trial10.png,,,1,3,greenverival,p,83,63,Male,2021-03-02_14h41.21.796,exp11,2020.2.6,Win32,60,,,,,,,,,,,
,,,,,,,,,,,,,,p,1,0.88335,space,0.25162,0,161,161,53,1,9_dist_green/trial4.png,,,1,9,greenverival,p,83,63,Male,2021-03-02_14h41.21.796,exp11,2020.2.6,Win32,60,,,,,,,,,,,
,,,,,,,,,,,,,,a,1,1.261305,space,0.904785,0,162,162,142,1,0_targ_4_dist_green/trial18.png,,,0,4,greenverival,a,83,63,Male,2021-03-02_14h41.21.796,exp11,2020.2.6,Win32,60,,,,,,,,,,,
,,,,,,,,,,,,,,a,1,1.51736,space,0.30088,0,163,163,100,1,0_targ_1_dist_green/trial1.png,,,0,1,greenverival,a,83,63,Male,2021-03-02_14h41.21.796,exp11,2020.2.6,Win32,60,,,,,,,,,,,
,,,,,,,,,,,,,,p,1,1.262475,space,0.283955,0,164,164,92,1,15_dist_green/trial18.png,,,1,15,greenverival,p,83,63,Male,2021-03-02_14h41.21.796,exp11,2020.2.6,Win32,60,,,,,,,,,,,
,,,,,,,,,,,,,,p,1,1.99342,space,0.267475,0,165,165,61,1,9_dist_green/trial12.png,,,1,9,greenverival,p,83,63,Male,2021-03-02_14h41.21.796,exp11,2020.2.6,Win32,60,,,,,,,,,,,
,,,,,,,,,,,,,,a,1,1.166575,space,0.234395,0,166,166,120,1,0_targ_1_dist_green/trial21.png,,,0,1,greenverival,a,83,63,Male,2021-03-02_14h41.21.796,exp11,2020.2.6,Win32,60,,,,,,,,,,,
,,,,,,,,,,,,,,a,1,1.43999,space,0.26772,0,167,167,174,1,0_targ_10_dist_green/trial25.png,,,0,10,greenverival,a,83,63,Male,2021-03-02_14h41.21.796,exp11,2020.2.6,Win32,60,,,,,,,,,,,
,,,,,,,,,,,,,,a,1,1.10431,space,0.334585,0,168,168,192,1,0_targ_16_dist_green/trial18.png,,,0,16,greenverival,a,83,63,Male,2021-03-02_14h41.21.796,exp11,2020.2.6,Win32,60,,,,,,,,,,,
,,,,,,,,,,,,,,a,1,0.62947,space,0.332245,0,169,169,108,1,0_targ_1_dist_green/trial9.png,,,0,1,greenverival,a,83,63,Male,2021-03-02_14h41.21.796,exp11,2020.2.6,Win32,60,,,,,,,,,,,
,,,,,,,,,,,,,,p,1,0.617255,space,0.185235,0,170,170,3,1,0_dist_green/trial4.png,,,1,0,greenverival,p,83,63,Male,2021-03-02_14h41.21.796,exp11,2020.2.6,Win32,60,,,,,,,,,,,
,,,,,,,,,,,,,,a,1,0.98927,space,0.234675,0,171,171,105,1,0_targ_1_dist_green/trial6.png,,,0,1,greenverival,a,83,63,Male,2021-03-02_14h41.21.796,exp11,2020.2.6,Win32,60,,,,,,,,,,,
,,,,,,,,,,,,,,p,1,0.93058,space,0.168655,0,172,172,8,1,0_dist_green/trial9.png,,,1,0,greenverival,p,83,63,Male,2021-03-02_14h41.21.796,exp11,2020.2.6,Win32,60,,,,,,,,,,,
,,,,,,,,,,,,,,a,1,1.01754,space,0.26899,0,173,173,114,1,0_targ_1_dist_green/trial15.png,,,0,1,greenverival,a,83,63,Male,2021-03-02_14h41.21.796,exp11,2020.2.6,Win32,60,,,,,,,,,,,
,,,,,,,,,,,,,,p,1,0.88482,space,0.25064,0,174,174,62,1,9_dist_green/trial13.png,,,1,9,greenverival,p,83,63,Male,2021-03-02_14h41.21.796,exp11,2020.2.6,Win32,60,,,,,,,,,,,
,,,,,,,,,,,,,,a,1,1.440015,space,0.300685,0,175,175,153,1,0_targ_10_dist_green/trial4.png,,,0,10,greenverival,a,83,63,Male,2021-03-02_14h41.21.796,exp11,2020.2.6,Win32,60,,,,,,,,,,,
,,,,,,,,,,,,,,a,1,0.905265,space,0.310655,0,176,176,141,1,0_targ_4_dist_green/trial17.png,,,0,4,greenverival,a,83,63,Male,2021-03-02_14h41.21.796,exp11,2020.2.6,Win32,60,,,,,,,,,,,
,,,,,,,,,,,,,,p,1,0.67302,space,0.21779,0,177,177,19,1,0_dist_green/trial20.png,,,1,0,greenverival,p,83,63,Male,2021-03-02_14h41.21.796,exp11,2020.2.6,Win32,60,,,,,,,,,,,
,,,,,,,,,,,,,,a,1,0.874375,space,0.337255,0,178,178,161,1,0_targ_10_dist_green/trial12.png,,,0,10,greenverival,a,83,63,Male,2021-03-02_14h41.21.796,exp11,2020.2.6,Win32,60,,,,,,,,,,,
,,,,,,,,,,,,,,p,1,1.420935,space,0.23402,0,179,179,90,1,15_dist_green/trial16.png,,,1,15,greenverival,p,83,63,Male,2021-03-02_14h41.21.796,exp11,2020.2.6,Win32,60,,,,,,,,,,,
,,,,,,,,,,,,,,a,1,0.77693,space,1.13353,0,180,180,113,1,0_targ_1_dist_green/trial14.png,,,0,1,greenverival,a,83,63,Male,2021-03-02_14h41.21.796,exp11,2020.2.6,Win32,60,,,,,,,,,,,
,,,,,,,,,,,,,,a,1,0.869035,space,0.333615,0,181,181,163,1,0_targ_10_dist_green/trial14.png,,,0,10,greenverival,a,83,63,Male,2021-03-02_14h41.21.796,exp11,2020.2.6,Win32,60,,,,,,,,,,,
,,,,,,,,,,,,,,a,1,1.118235,space,0.267905,0,182,182,111,1,0_targ_1_dist_green/trial12.png,,,0,1,greenverival,a,83,63,Male,2021-03-02_14h41.21.796,exp11,2020.2.6,Win32,60,,,,,,,,,,,
,,,,,,,,,,,,,,a,0,0.61218,space,4.020595,0,183,183,12,1,0_dist_green/trial13.png,,,1,0,greenverival,p,83,63,Male,2021-03-02_14h41.21.796,exp11,2020.2.6,Win32,60,,,,,,,,,,,
,,,,,,,,,,,,,,a,1,1.11773,space,0.348285,0,184,184,101,1,0_targ_1_dist_green/trial2.png,,,0,1,greenverival,a,83,63,Male,2021-03-02_14h41.21.796,exp11,2020.2.6,Win32,60,,,,,,,,,,,
,,,,,,,,,,,,,,a,1,0.901135,space,0.31848,0,185,185,158,1,0_targ_10_dist_green/trial9.png,,,0,10,greenverival,a,83,63,Male,2021-03-02_14h41.21.796,exp11,2020.2.6,Win32,60,,,,,,,,,,,
,,,,,,,,,,,,,,a,1,0.54064,space,0.317925,0,186,186,102,1,0_targ_1_dist_green/trial3.png,,,0,1,greenverival,a,83,63,Male,2021-03-02_14h41.21.796,exp11,2020.2.6,Win32,60,,,,,,,,,,,
,,,,,,,,,,,,,,a,1,0.688175,space,0.268155,0,187,187,132,1,0_targ_4_dist_green/trial8.png,,,0,4,greenverival,a,83,63,Male,2021-03-02_14h41.21.796,exp11,2020.2.6,Win32,60,,,,,,,,,,,
,,,,,,,,,,,,,,p,1,0.75967,space,0.2013,0,188,188,14,1,0_dist_green/trial15.png,,,1,0,greenverival,p,83,63,Male,2021-03-02_14h41.21.796,exp11,2020.2.6,Win32,60,,,,,,,,,,,
,,,,,,,,,,,,,,p,1,0.80476,space,0.22146,0,189,189,11,1,0_dist_green/trial12.png,,,1,0,greenverival,p,83,63,Male,2021-03-02_14h41.21.796,exp11,2020.2.6,Win32,60,,,,,,,,,,,
,,,,,,,,,,,,,,p,1,0.56614,space,0.23445,0,190,190,17,1,0_dist_green/trial18.png,,,1,0,greenverival,p,83,63,Male,2021-03-02_14h41.21.796,exp11,2020.2.6,Win32,60,,,,,,,,,,,
,,,,,,,,,,,,,,a,1,1.291695,space,0.301075,0,191,191,178,1,0_targ_16_dist_green/trial4.png,,,0,16,greenverival,a,83,63,Male,2021-03-02_14h41.21.796,exp11,2020.2.6,Win32,60,,,,,,,,,,,
,,,,,,,,,,,,,,a,1,1.10026,space,0.284005,0,192,192,160,1,0_targ_10_dist_green/trial11.png,,,0,10,greenverival,a,83,63,Male,2021-03-02_14h41.21.796,exp11,2020.2.6,Win32,60,,,,,,,,,,,
,,,,,,,,,,,,,,a,0,1.203375,space,6.035885,0,193,193,91,1,15_dist_green/trial17.png,,,1,15,greenverival,p,83,63,Male,2021-03-02_14h41.21.796,exp11,2020.2.6,Win32,60,,,,,,,,,,,
,,,,,,,,,,,,,,p,1,1.446915,space,0.288525,0,194,194,25,1,3_dist_green/trial1.png,,,1,3,greenverival,p,83,63,Male,2021-03-02_14h41.21.796,exp11,2020.2.6,Win32,60,,,,,,,,,,,
,,,,,,,,,,,,,,a,1,3.929485,space,0.718035,0,195,195,187,1,0_targ_16_dist_green/trial13.png,,,0,16,greenverival,a,83,63,Male,2021-03-02_14h41.21.796,exp11,2020.2.6,Win32,60,,,,,,,,,,,
,,,,,,,,,,,,,,a,1,1.670645,space,0.451295,0,196,196,138,1,0_targ_4_dist_green/trial14.png,,,0,4,greenverival,a,83,63,Male,2021-03-02_14h41.21.796,exp11,2020.2.6,Win32,60,,,,,,,,,,,
,,,,,,,,,,,,,,a,1,1.431035,space,0.368805,0,197,197,185,1,0_targ_16_dist_green/trial11.png,,,0,16,greenverival,a,83,63,Male,2021-03-02_14h41.21.796,exp11,2020.2.6,Win32,60,,,,,,,,,,,
,,,,,,,,,,,,,,p,1,1.32784,space,0.236105,0,198,198,73,1,9_dist_green/trial24.png,,,1,9,greenverival,p,83,63,Male,2021-03-02_14h41.21.796,exp11,2020.2.6,Win32,60,,,,,,,,,,,
,,,,,,,,,,,,,,p,1,0.738005,space,0.234025,0,199,199,49,1,3_dist_green/trial25.png,,,1,3,greenverival,p,83,63,Male,2021-03-02_14h41.21.796,exp11,2020.2.6,Win32,60,,,,,,,,,,,
,,,,,,,,,,,,,,,,,,,,,,,,,,,,,,,83,63,Male,2021-03-02_14h41.21.796,exp11,2020.2.6,Win32,60,0,1,1,0,1,conGreen.xlsx,green vertical,Look for green vertical bar (target) and indicate if it is present or absent in the array. If green vertical target is present press 'p' and if absent press 'a'. Press SPACE to start.,,,
