key_resp_6.keys,key_resp_6.rt,key_resp_7.keys,key_resp_7.rt,key_resp_8.keys,key_resp_8.rt,key_resp_10.keys,key_resp_10.rt,key_resp_9.keys,key_resp_9.rt,key_resp_3.keys,key_resp_3.rt,key_resp_5.keys,key_resp_5.rt,key_resp.keys,key_resp.corr,key_resp.rt,key_resp_4.keys,key_resp_4.rt,trials.thisRepN,trials.thisTrialN,trials.thisN,trials.thisIndex,trials.ran,ImageFile,tarPos,tarSize,targPres,numDist,targetName,correctAns,participant,age,sex,date,expName,psychopyVersion,OS,frameRate,fbclid,trials_2.thisRepN,trials_2.thisTrialN,trials_2.thisN,trials_2.thisIndex,trials_2.ran,condsFile,targName,instructionText,colTarget,sizeTarg,posit
space,5.564,space,1.011,space,0.656,space,0.526,space,0.539,space,0.463,space,14.1,p,1,37.654,space,2.656,0,0,0,50,1,9_dist_green/trial1.png,,,1,9,greenverival,p,97,70,male,2021-02-25_09h21.24.017,exp11,2020.2.6,Win32,60,IwAR3mkXheuWjJbMbaCX9Cngpz4bh3hxRhD6RYQH4XzkJw8jaGLHKohvxkHvs,,,,,,,,,,,
,,,,,,,,,,,,,,p,1,2.117,space,1.55,0,1,1,14,1,0_dist_green/trial15.png,,,1,0,greenverival,p,97,70,male,2021-02-25_09h21.24.017,exp11,2020.2.6,Win32,60,IwAR3mkXheuWjJbMbaCX9Cngpz4bh3hxRhD6RYQH4XzkJw8jaGLHKohvxkHvs,,,,,,,,,,,
,,,,,,,,,,,,,,p,1,5.586,space,5.402,0,2,2,62,1,9_dist_green/trial13.png,,,1,9,greenverival,p,97,70,male,2021-02-25_09h21.24.017,exp11,2020.2.6,Win32,60,IwAR3mkXheuWjJbMbaCX9Cngpz4bh3hxRhD6RYQH4XzkJw8jaGLHKohvxkHvs,,,,,,,,,,,
,,,,,,,,,,,,,,p,1,1.606,space,1.987,0,3,3,59,1,9_dist_green/trial10.png,,,1,9,greenverival,p,97,70,male,2021-02-25_09h21.24.017,exp11,2020.2.6,Win32,60,IwAR3mkXheuWjJbMbaCX9Cngpz4bh3hxRhD6RYQH4XzkJw8jaGLHKohvxkHvs,,,,,,,,,,,
,,,,,,,,,,,,,,p,1,1.359,space,0.437,0,4,4,64,1,9_dist_green/trial15.png,,,1,9,greenverival,p,97,70,male,2021-02-25_09h21.24.017,exp11,2020.2.6,Win32,60,IwAR3mkXheuWjJbMbaCX9Cngpz4bh3hxRhD6RYQH4XzkJw8jaGLHKohvxkHvs,,,,,,,,,,,
,,,,,,,,,,,,,,a,1,2.25,space,0.72,0,5,5,186,1,0_targ_16_dist_green/trial12.png,,,0,16,greenverival,a,97,70,male,2021-02-25_09h21.24.017,exp11,2020.2.6,Win32,60,IwAR3mkXheuWjJbMbaCX9Cngpz4bh3hxRhD6RYQH4XzkJw8jaGLHKohvxkHvs,,,,,,,,,,,
,,,,,,,,,,,,,,p,1,1.38,space,0.52,0,6,6,83,1,15_dist_green/trial9.png,,,1,15,greenverival,p,97,70,male,2021-02-25_09h21.24.017,exp11,2020.2.6,Win32,60,IwAR3mkXheuWjJbMbaCX9Cngpz4bh3hxRhD6RYQH4XzkJw8jaGLHKohvxkHvs,,,,,,,,,,,
,,,,,,,,,,,,,,a,1,1.592,space,0.607,0,7,7,181,1,0_targ_16_dist_green/trial7.png,,,0,16,greenverival,a,97,70,male,2021-02-25_09h21.24.017,exp11,2020.2.6,Win32,60,IwAR3mkXheuWjJbMbaCX9Cngpz4bh3hxRhD6RYQH4XzkJw8jaGLHKohvxkHvs,,,,,,,,,,,
,,,,,,,,,,,,,,a,1,2.031,space,0.636,0,8,8,193,1,0_targ_16_dist_green/trial19.png,,,0,16,greenverival,a,97,70,male,2021-02-25_09h21.24.017,exp11,2020.2.6,Win32,60,IwAR3mkXheuWjJbMbaCX9Cngpz4bh3hxRhD6RYQH4XzkJw8jaGLHKohvxkHvs,,,,,,,,,,,
,,,,,,,,,,,,,,a,1,1.505,space,0.554,0,9,9,148,1,0_targ_4_dist_green/trial24.png,,,0,4,greenverival,a,97,70,male,2021-02-25_09h21.24.017,exp11,2020.2.6,Win32,60,IwAR3mkXheuWjJbMbaCX9Cngpz4bh3hxRhD6RYQH4XzkJw8jaGLHKohvxkHvs,,,,,,,,,,,
,,,,,,,,,,,,,,p,1,1.309,space,0.392,0,10,10,49,1,3_dist_green/trial25.png,,,1,3,greenverival,p,97,70,male,2021-02-25_09h21.24.017,exp11,2020.2.6,Win32,60,IwAR3mkXheuWjJbMbaCX9Cngpz4bh3hxRhD6RYQH4XzkJw8jaGLHKohvxkHvs,,,,,,,,,,,
,,,,,,,,,,,,,,p,1,1.933,space,0.436,0,11,11,90,1,15_dist_green/trial16.png,,,1,15,greenverival,p,97,70,male,2021-02-25_09h21.24.017,exp11,2020.2.6,Win32,60,IwAR3mkXheuWjJbMbaCX9Cngpz4bh3hxRhD6RYQH4XzkJw8jaGLHKohvxkHvs,,,,,,,,,,,
,,,,,,,,,,,,,,a,1,1.232,space,0.543,0,12,12,149,1,0_targ_4_dist_green/trial25.png,,,0,4,greenverival,a,97,70,male,2021-02-25_09h21.24.017,exp11,2020.2.6,Win32,60,IwAR3mkXheuWjJbMbaCX9Cngpz4bh3hxRhD6RYQH4XzkJw8jaGLHKohvxkHvs,,,,,,,,,,,
,,,,,,,,,,,,,,p,1,1.931,space,0.491,0,13,13,76,1,15_dist_green/trial2.png,,,1,15,greenverival,p,97,70,male,2021-02-25_09h21.24.017,exp11,2020.2.6,Win32,60,IwAR3mkXheuWjJbMbaCX9Cngpz4bh3hxRhD6RYQH4XzkJw8jaGLHKohvxkHvs,,,,,,,,,,,
,,,,,,,,,,,,,,p,1,1.221,space,0.436,0,14,14,87,1,15_dist_green/trial13.png,,,1,15,greenverival,p,97,70,male,2021-02-25_09h21.24.017,exp11,2020.2.6,Win32,60,IwAR3mkXheuWjJbMbaCX9Cngpz4bh3hxRhD6RYQH4XzkJw8jaGLHKohvxkHvs,,,,,,,,,,,
,,,,,,,,,,,,,,p,1,1.16,space,0.385,0,15,15,39,1,3_dist_green/trial15.png,,,1,3,greenverival,p,97,70,male,2021-02-25_09h21.24.017,exp11,2020.2.6,Win32,60,IwAR3mkXheuWjJbMbaCX9Cngpz4bh3hxRhD6RYQH4XzkJw8jaGLHKohvxkHvs,,,,,,,,,,,
,,,,,,,,,,,,,,a,1,1.193,space,0.486,0,16,16,128,1,0_targ_4_dist_green/trial4.png,,,0,4,greenverival,a,97,70,male,2021-02-25_09h21.24.017,exp11,2020.2.6,Win32,60,IwAR3mkXheuWjJbMbaCX9Cngpz4bh3hxRhD6RYQH4XzkJw8jaGLHKohvxkHvs,,,,,,,,,,,
,,,,,,,,,,,,,,p,1,1.068,space,0.352,0,17,17,7,1,0_dist_green/trial8.png,,,1,0,greenverival,p,97,70,male,2021-02-25_09h21.24.017,exp11,2020.2.6,Win32,60,IwAR3mkXheuWjJbMbaCX9Cngpz4bh3hxRhD6RYQH4XzkJw8jaGLHKohvxkHvs,,,,,,,,,,,
,,,,,,,,,,,,,,p,1,1.239,space,0.42,0,18,18,60,1,9_dist_green/trial11.png,,,1,9,greenverival,p,97,70,male,2021-02-25_09h21.24.017,exp11,2020.2.6,Win32,60,IwAR3mkXheuWjJbMbaCX9Cngpz4bh3hxRhD6RYQH4XzkJw8jaGLHKohvxkHvs,,,,,,,,,,,
,,,,,,,,,,,,,,a,1,1.508,space,0.468,0,19,19,180,1,0_targ_16_dist_green/trial6.png,,,0,16,greenverival,a,97,70,male,2021-02-25_09h21.24.017,exp11,2020.2.6,Win32,60,IwAR3mkXheuWjJbMbaCX9Cngpz4bh3hxRhD6RYQH4XzkJw8jaGLHKohvxkHvs,,,,,,,,,,,
,,,,,,,,,,,,,,a,1,5.486,space,0.49,0,20,20,121,1,0_targ_1_dist_green/trial22.png,,,0,1,greenverival,a,97,70,male,2021-02-25_09h21.24.017,exp11,2020.2.6,Win32,60,IwAR3mkXheuWjJbMbaCX9Cngpz4bh3hxRhD6RYQH4XzkJw8jaGLHKohvxkHvs,,,,,,,,,,,
,,,,,,,,,,,,,,p,1,1.555,space,0.367,0,21,21,10,1,0_dist_green/trial11.png,,,1,0,greenverival,p,97,70,male,2021-02-25_09h21.24.017,exp11,2020.2.6,Win32,60,IwAR3mkXheuWjJbMbaCX9Cngpz4bh3hxRhD6RYQH4XzkJw8jaGLHKohvxkHvs,,,,,,,,,,,
,,,,,,,,,,,,,,p,1,1.159,space,0.322,0,22,22,36,1,3_dist_green/trial12.png,,,1,3,greenverival,p,97,70,male,2021-02-25_09h21.24.017,exp11,2020.2.6,Win32,60,IwAR3mkXheuWjJbMbaCX9Cngpz4bh3hxRhD6RYQH4XzkJw8jaGLHKohvxkHvs,,,,,,,,,,,
,,,,,,,,,,,,,,a,1,1.834,space,0.621,0,23,23,196,1,0_targ_16_dist_green/trial22.png,,,0,16,greenverival,a,97,70,male,2021-02-25_09h21.24.017,exp11,2020.2.6,Win32,60,IwAR3mkXheuWjJbMbaCX9Cngpz4bh3hxRhD6RYQH4XzkJw8jaGLHKohvxkHvs,,,,,,,,,,,
,,,,,,,,,,,,,,a,1,1.419,space,0.441,0,24,24,160,1,0_targ_10_dist_green/trial11.png,,,0,10,greenverival,a,97,70,male,2021-02-25_09h21.24.017,exp11,2020.2.6,Win32,60,IwAR3mkXheuWjJbMbaCX9Cngpz4bh3hxRhD6RYQH4XzkJw8jaGLHKohvxkHvs,,,,,,,,,,,
,,,,,,,,,,,,,,a,1,3.567,space,0.603,0,25,25,163,1,0_targ_10_dist_green/trial14.png,,,0,10,greenverival,a,97,70,male,2021-02-25_09h21.24.017,exp11,2020.2.6,Win32,60,IwAR3mkXheuWjJbMbaCX9Cngpz4bh3hxRhD6RYQH4XzkJw8jaGLHKohvxkHvs,,,,,,,,,,,
,,,,,,,,,,,,,,a,1,1.524,space,0.455,0,26,26,134,1,0_targ_4_dist_green/trial10.png,,,0,4,greenverival,a,97,70,male,2021-02-25_09h21.24.017,exp11,2020.2.6,Win32,60,IwAR3mkXheuWjJbMbaCX9Cngpz4bh3hxRhD6RYQH4XzkJw8jaGLHKohvxkHvs,,,,,,,,,,,
,,,,,,,,,,,,,,a,1,2.076,space,0.483,0,27,27,184,1,0_targ_16_dist_green/trial10.png,,,0,16,greenverival,a,97,70,male,2021-02-25_09h21.24.017,exp11,2020.2.6,Win32,60,IwAR3mkXheuWjJbMbaCX9Cngpz4bh3hxRhD6RYQH4XzkJw8jaGLHKohvxkHvs,,,,,,,,,,,
,,,,,,,,,,,,,,p,1,1.213,space,0.334,0,28,28,2,1,0_dist_green/trial3.png,,,1,0,greenverival,p,97,70,male,2021-02-25_09h21.24.017,exp11,2020.2.6,Win32,60,IwAR3mkXheuWjJbMbaCX9Cngpz4bh3hxRhD6RYQH4XzkJw8jaGLHKohvxkHvs,,,,,,,,,,,
,,,,,,,,,,,,,,a,1,1.102,space,0.436,0,29,29,105,1,0_targ_1_dist_green/trial6.png,,,0,1,greenverival,a,97,70,male,2021-02-25_09h21.24.017,exp11,2020.2.6,Win32,60,IwAR3mkXheuWjJbMbaCX9Cngpz4bh3hxRhD6RYQH4XzkJw8jaGLHKohvxkHvs,,,,,,,,,,,
,,,,,,,,,,,,,,a,1,2.631,space,0.74,0,30,30,122,1,0_targ_1_dist_green/trial23.png,,,0,1,greenverival,a,97,70,male,2021-02-25_09h21.24.017,exp11,2020.2.6,Win32,60,IwAR3mkXheuWjJbMbaCX9Cngpz4bh3hxRhD6RYQH4XzkJw8jaGLHKohvxkHvs,,,,,,,,,,,
,,,,,,,,,,,,,,a,1,2.375,space,0.471,0,31,31,191,1,0_targ_16_dist_green/trial17.png,,,0,16,greenverival,a,97,70,male,2021-02-25_09h21.24.017,exp11,2020.2.6,Win32,60,IwAR3mkXheuWjJbMbaCX9Cngpz4bh3hxRhD6RYQH4XzkJw8jaGLHKohvxkHvs,,,,,,,,,,,
,,,,,,,,,,,,,,a,1,1.312,space,0.526,0,32,32,142,1,0_targ_4_dist_green/trial18.png,,,0,4,greenverival,a,97,70,male,2021-02-25_09h21.24.017,exp11,2020.2.6,Win32,60,IwAR3mkXheuWjJbMbaCX9Cngpz4bh3hxRhD6RYQH4XzkJw8jaGLHKohvxkHvs,,,,,,,,,,,
,,,,,,,,,,,,,,a,1,1.404,space,0.503,0,33,33,183,1,0_targ_16_dist_green/trial9.png,,,0,16,greenverival,a,97,70,male,2021-02-25_09h21.24.017,exp11,2020.2.6,Win32,60,IwAR3mkXheuWjJbMbaCX9Cngpz4bh3hxRhD6RYQH4XzkJw8jaGLHKohvxkHvs,,,,,,,,,,,
,,,,,,,,,,,,,,a,1,1.073,space,0.402,0,34,34,137,1,0_targ_4_dist_green/trial13.png,,,0,4,greenverival,a,97,70,male,2021-02-25_09h21.24.017,exp11,2020.2.6,Win32,60,IwAR3mkXheuWjJbMbaCX9Cngpz4bh3hxRhD6RYQH4XzkJw8jaGLHKohvxkHvs,,,,,,,,,,,
,,,,,,,,,,,,,,a,1,0.905,space,0.504,0,35,35,106,1,0_targ_1_dist_green/trial7.png,,,0,1,greenverival,a,97,70,male,2021-02-25_09h21.24.017,exp11,2020.2.6,Win32,60,IwAR3mkXheuWjJbMbaCX9Cngpz4bh3hxRhD6RYQH4XzkJw8jaGLHKohvxkHvs,,,,,,,,,,,
,,,,,,,,,,,,,,a,1,0.916,space,0.455,0,36,36,107,1,0_targ_1_dist_green/trial8.png,,,0,1,greenverival,a,97,70,male,2021-02-25_09h21.24.017,exp11,2020.2.6,Win32,60,IwAR3mkXheuWjJbMbaCX9Cngpz4bh3hxRhD6RYQH4XzkJw8jaGLHKohvxkHvs,,,,,,,,,,,
,,,,,,,,,,,,,,p,1,1.239,space,0.353,0,37,37,22,1,0_dist_green/trial23.png,,,1,0,greenverival,p,97,70,male,2021-02-25_09h21.24.017,exp11,2020.2.6,Win32,60,IwAR3mkXheuWjJbMbaCX9Cngpz4bh3hxRhD6RYQH4XzkJw8jaGLHKohvxkHvs,,,,,,,,,,,
,,,,,,,,,,,,,,p,1,1.165,space,0.363,0,38,38,28,1,3_dist_green/trial4.png,,,1,3,greenverival,p,97,70,male,2021-02-25_09h21.24.017,exp11,2020.2.6,Win32,60,IwAR3mkXheuWjJbMbaCX9Cngpz4bh3hxRhD6RYQH4XzkJw8jaGLHKohvxkHvs,,,,,,,,,,,
,,,,,,,,,,,,,,p,1,2.362,space,0.337,0,39,39,68,1,9_dist_green/trial19.png,,,1,9,greenverival,p,97,70,male,2021-02-25_09h21.24.017,exp11,2020.2.6,Win32,60,IwAR3mkXheuWjJbMbaCX9Cngpz4bh3hxRhD6RYQH4XzkJw8jaGLHKohvxkHvs,,,,,,,,,,,
,,,,,,,,,,,,,,a,1,1.321,space,0.517,0,40,40,174,1,0_targ_10_dist_green/trial25.png,,,0,10,greenverival,a,97,70,male,2021-02-25_09h21.24.017,exp11,2020.2.6,Win32,60,IwAR3mkXheuWjJbMbaCX9Cngpz4bh3hxRhD6RYQH4XzkJw8jaGLHKohvxkHvs,,,,,,,,,,,
,,,,,,,,,,,,,,a,1,1.128,space,0.438,0,41,41,153,1,0_targ_10_dist_green/trial4.png,,,0,10,greenverival,a,97,70,male,2021-02-25_09h21.24.017,exp11,2020.2.6,Win32,60,IwAR3mkXheuWjJbMbaCX9Cngpz4bh3hxRhD6RYQH4XzkJw8jaGLHKohvxkHvs,,,,,,,,,,,
,,,,,,,,,,,,,,a,0,2.133,space,2.704,0,42,42,81,1,15_dist_green/trial7.png,,,1,15,greenverival,p,97,70,male,2021-02-25_09h21.24.017,exp11,2020.2.6,Win32,60,IwAR3mkXheuWjJbMbaCX9Cngpz4bh3hxRhD6RYQH4XzkJw8jaGLHKohvxkHvs,,,,,,,,,,,
,,,,,,,,,,,,,,a,1,3.185,space,0.596,0,43,43,130,1,0_targ_4_dist_green/trial6.png,,,0,4,greenverival,a,97,70,male,2021-02-25_09h21.24.017,exp11,2020.2.6,Win32,60,IwAR3mkXheuWjJbMbaCX9Cngpz4bh3hxRhD6RYQH4XzkJw8jaGLHKohvxkHvs,,,,,,,,,,,
,,,,,,,,,,,,,,a,1,2.436,space,0.539,0,44,44,151,1,0_targ_10_dist_green/trial2.png,,,0,10,greenverival,a,97,70,male,2021-02-25_09h21.24.017,exp11,2020.2.6,Win32,60,IwAR3mkXheuWjJbMbaCX9Cngpz4bh3hxRhD6RYQH4XzkJw8jaGLHKohvxkHvs,,,,,,,,,,,
,,,,,,,,,,,,,,p,1,2.743,space,0.353,0,45,45,1,1,0_dist_green/trial2.png,,,1,0,greenverival,p,97,70,male,2021-02-25_09h21.24.017,exp11,2020.2.6,Win32,60,IwAR3mkXheuWjJbMbaCX9Cngpz4bh3hxRhD6RYQH4XzkJw8jaGLHKohvxkHvs,,,,,,,,,,,
,,,,,,,,,,,,,,p,1,2.258,space,0.337,0,46,46,79,1,15_dist_green/trial5.png,,,1,15,greenverival,p,97,70,male,2021-02-25_09h21.24.017,exp11,2020.2.6,Win32,60,IwAR3mkXheuWjJbMbaCX9Cngpz4bh3hxRhD6RYQH4XzkJw8jaGLHKohvxkHvs,,,,,,,,,,,
,,,,,,,,,,,,,,p,1,1.316,space,0.315,0,47,47,44,1,3_dist_green/trial20.png,,,1,3,greenverival,p,97,70,male,2021-02-25_09h21.24.017,exp11,2020.2.6,Win32,60,IwAR3mkXheuWjJbMbaCX9Cngpz4bh3hxRhD6RYQH4XzkJw8jaGLHKohvxkHvs,,,,,,,,,,,
,,,,,,,,,,,,,,p,1,1.1,space,0.415,0,48,48,29,1,3_dist_green/trial5.png,,,1,3,greenverival,p,97,70,male,2021-02-25_09h21.24.017,exp11,2020.2.6,Win32,60,IwAR3mkXheuWjJbMbaCX9Cngpz4bh3hxRhD6RYQH4XzkJw8jaGLHKohvxkHvs,,,,,,,,,,,
,,,,,,,,,,,,,,a,1,1.178,space,0.472,0,49,49,100,1,0_targ_1_dist_green/trial1.png,,,0,1,greenverival,a,97,70,male,2021-02-25_09h21.24.017,exp11,2020.2.6,Win32,60,IwAR3mkXheuWjJbMbaCX9Cngpz4bh3hxRhD6RYQH4XzkJw8jaGLHKohvxkHvs,,,,,,,,,,,
,,,,,,,,,,,,,,p,1,1.232,space,0.353,0,50,50,73,1,9_dist_green/trial24.png,,,1,9,greenverival,p,97,70,male,2021-02-25_09h21.24.017,exp11,2020.2.6,Win32,60,IwAR3mkXheuWjJbMbaCX9Cngpz4bh3hxRhD6RYQH4XzkJw8jaGLHKohvxkHvs,,,,,,,,,,,
,,,,,,,,,,,,,,a,1,1.607,space,0.419,0,51,51,117,1,0_targ_1_dist_green/trial18.png,,,0,1,greenverival,a,97,70,male,2021-02-25_09h21.24.017,exp11,2020.2.6,Win32,60,IwAR3mkXheuWjJbMbaCX9Cngpz4bh3hxRhD6RYQH4XzkJw8jaGLHKohvxkHvs,,,,,,,,,,,
,,,,,,,,,,,,,,a,1,1.513,space,0.442,0,52,52,146,1,0_targ_4_dist_green/trial22.png,,,0,4,greenverival,a,97,70,male,2021-02-25_09h21.24.017,exp11,2020.2.6,Win32,60,IwAR3mkXheuWjJbMbaCX9Cngpz4bh3hxRhD6RYQH4XzkJw8jaGLHKohvxkHvs,,,,,,,,,,,
,,,,,,,,,,,,,,a,1,1.733,space,0.414,0,53,53,154,1,0_targ_10_dist_green/trial5.png,,,0,10,greenverival,a,97,70,male,2021-02-25_09h21.24.017,exp11,2020.2.6,Win32,60,IwAR3mkXheuWjJbMbaCX9Cngpz4bh3hxRhD6RYQH4XzkJw8jaGLHKohvxkHvs,,,,,,,,,,,
,,,,,,,,,,,,,,p,1,1.516,space,0.369,0,54,54,91,1,15_dist_green/trial17.png,,,1,15,greenverival,p,97,70,male,2021-02-25_09h21.24.017,exp11,2020.2.6,Win32,60,IwAR3mkXheuWjJbMbaCX9Cngpz4bh3hxRhD6RYQH4XzkJw8jaGLHKohvxkHvs,,,,,,,,,,,
,,,,,,,,,,,,,,p,1,1.028,space,0.365,0,55,55,89,1,15_dist_green/trial15.png,,,1,15,greenverival,p,97,70,male,2021-02-25_09h21.24.017,exp11,2020.2.6,Win32,60,IwAR3mkXheuWjJbMbaCX9Cngpz4bh3hxRhD6RYQH4XzkJw8jaGLHKohvxkHvs,,,,,,,,,,,
,,,,,,,,,,,,,,p,1,1.655,space,0.389,0,56,56,34,1,3_dist_green/trial10.png,,,1,3,greenverival,p,97,70,male,2021-02-25_09h21.24.017,exp11,2020.2.6,Win32,60,IwAR3mkXheuWjJbMbaCX9Cngpz4bh3hxRhD6RYQH4XzkJw8jaGLHKohvxkHvs,,,,,,,,,,,
,,,,,,,,,,,,,,a,1,1.489,space,0.421,0,57,57,189,1,0_targ_16_dist_green/trial15.png,,,0,16,greenverival,a,97,70,male,2021-02-25_09h21.24.017,exp11,2020.2.6,Win32,60,IwAR3mkXheuWjJbMbaCX9Cngpz4bh3hxRhD6RYQH4XzkJw8jaGLHKohvxkHvs,,,,,,,,,,,
,,,,,,,,,,,,,,a,1,1.75,space,0.487,0,58,58,115,1,0_targ_1_dist_green/trial6.png,,,0,1,greenverival,a,97,70,male,2021-02-25_09h21.24.017,exp11,2020.2.6,Win32,60,IwAR3mkXheuWjJbMbaCX9Cngpz4bh3hxRhD6RYQH4XzkJw8jaGLHKohvxkHvs,,,,,,,,,,,
,,,,,,,,,,,,,,p,1,1.448,space,0.368,0,59,59,88,1,15_dist_green/trial14.png,,,1,15,greenverival,p,97,70,male,2021-02-25_09h21.24.017,exp11,2020.2.6,Win32,60,IwAR3mkXheuWjJbMbaCX9Cngpz4bh3hxRhD6RYQH4XzkJw8jaGLHKohvxkHvs,,,,,,,,,,,
,,,,,,,,,,,,,,p,1,1.153,space,0.355,0,60,60,0,1,0_dist_green/trial1.png,,,1,0,greenverival,p,97,70,male,2021-02-25_09h21.24.017,exp11,2020.2.6,Win32,60,IwAR3mkXheuWjJbMbaCX9Cngpz4bh3hxRhD6RYQH4XzkJw8jaGLHKohvxkHvs,,,,,,,,,,,
,,,,,,,,,,,,,,a,1,1.232,space,0.352,0,61,61,172,1,0_targ_10_dist_green/trial23.png,,,0,10,greenverival,a,97,70,male,2021-02-25_09h21.24.017,exp11,2020.2.6,Win32,60,IwAR3mkXheuWjJbMbaCX9Cngpz4bh3hxRhD6RYQH4XzkJw8jaGLHKohvxkHvs,,,,,,,,,,,
,,,,,,,,,,,,,,p,1,1.136,space,0.323,0,62,62,94,1,15_dist_green/trial20.png,,,1,15,greenverival,p,97,70,male,2021-02-25_09h21.24.017,exp11,2020.2.6,Win32,60,IwAR3mkXheuWjJbMbaCX9Cngpz4bh3hxRhD6RYQH4XzkJw8jaGLHKohvxkHvs,,,,,,,,,,,
,,,,,,,,,,,,,,a,1,1.664,space,0.47,0,63,63,179,1,0_targ_16_dist_green/trial5.png,,,0,16,greenverival,a,97,70,male,2021-02-25_09h21.24.017,exp11,2020.2.6,Win32,60,IwAR3mkXheuWjJbMbaCX9Cngpz4bh3hxRhD6RYQH4XzkJw8jaGLHKohvxkHvs,,,,,,,,,,,
,,,,,,,,,,,,,,p,1,1.068,space,0.343,0,64,64,42,1,3_dist_green/trial18.png,,,1,3,greenverival,p,97,70,male,2021-02-25_09h21.24.017,exp11,2020.2.6,Win32,60,IwAR3mkXheuWjJbMbaCX9Cngpz4bh3hxRhD6RYQH4XzkJw8jaGLHKohvxkHvs,,,,,,,,,,,
,,,,,,,,,,,,,,p,1,0.918,space,0.368,0,65,65,11,1,0_dist_green/trial12.png,,,1,0,greenverival,p,97,70,male,2021-02-25_09h21.24.017,exp11,2020.2.6,Win32,60,IwAR3mkXheuWjJbMbaCX9Cngpz4bh3hxRhD6RYQH4XzkJw8jaGLHKohvxkHvs,,,,,,,,,,,
,,,,,,,,,,,,,,a,1,0.969,space,0.376,0,66,66,131,1,0_targ_4_dist_green/trial7.png,,,0,4,greenverival,a,97,70,male,2021-02-25_09h21.24.017,exp11,2020.2.6,Win32,60,IwAR3mkXheuWjJbMbaCX9Cngpz4bh3hxRhD6RYQH4XzkJw8jaGLHKohvxkHvs,,,,,,,,,,,
,,,,,,,,,,,,,,a,1,1.857,space,0.554,0,67,67,162,1,0_targ_10_dist_green/trial13.png,,,0,10,greenverival,a,97,70,male,2021-02-25_09h21.24.017,exp11,2020.2.6,Win32,60,IwAR3mkXheuWjJbMbaCX9Cngpz4bh3hxRhD6RYQH4XzkJw8jaGLHKohvxkHvs,,,,,,,,,,,
,,,,,,,,,,,,,,p,1,1.422,space,0.337,0,68,68,56,1,9_dist_green/trial7.png,,,1,9,greenverival,p,97,70,male,2021-02-25_09h21.24.017,exp11,2020.2.6,Win32,60,IwAR3mkXheuWjJbMbaCX9Cngpz4bh3hxRhD6RYQH4XzkJw8jaGLHKohvxkHvs,,,,,,,,,,,
,,,,,,,,,,,,,,a,1,1.937,space,0.45,0,69,69,126,1,0_targ_4_dist_green/trial2.png,,,0,4,greenverival,a,97,70,male,2021-02-25_09h21.24.017,exp11,2020.2.6,Win32,60,IwAR3mkXheuWjJbMbaCX9Cngpz4bh3hxRhD6RYQH4XzkJw8jaGLHKohvxkHvs,,,,,,,,,,,
,,,,,,,,,,,,,,p,1,1.374,space,0.319,0,70,70,51,1,9_dist_green/trial2.png,,,1,9,greenverival,p,97,70,male,2021-02-25_09h21.24.017,exp11,2020.2.6,Win32,60,IwAR3mkXheuWjJbMbaCX9Cngpz4bh3hxRhD6RYQH4XzkJw8jaGLHKohvxkHvs,,,,,,,,,,,
,,,,,,,,,,,,,,p,1,1.796,space,0.372,0,71,71,31,1,3_dist_green/trial7.png,,,1,3,greenverival,p,97,70,male,2021-02-25_09h21.24.017,exp11,2020.2.6,Win32,60,IwAR3mkXheuWjJbMbaCX9Cngpz4bh3hxRhD6RYQH4XzkJw8jaGLHKohvxkHvs,,,,,,,,,,,
,,,,,,,,,,,,,,p,1,1.545,space,0.335,0,72,72,45,1,3_dist_green/trial21.png,,,1,3,greenverival,p,97,70,male,2021-02-25_09h21.24.017,exp11,2020.2.6,Win32,60,IwAR3mkXheuWjJbMbaCX9Cngpz4bh3hxRhD6RYQH4XzkJw8jaGLHKohvxkHvs,,,,,,,,,,,
,,,,,,,,,,,,,,a,1,2.703,space,0.401,0,73,73,112,1,0_targ_1_dist_green/trial13.png,,,0,1,greenverival,a,97,70,male,2021-02-25_09h21.24.017,exp11,2020.2.6,Win32,60,IwAR3mkXheuWjJbMbaCX9Cngpz4bh3hxRhD6RYQH4XzkJw8jaGLHKohvxkHvs,,,,,,,,,,,
,,,,,,,,,,,,,,a,1,2.398,space,0.57,0,74,74,123,1,0_targ_1_dist_green/trial24.png,,,0,1,greenverival,a,97,70,male,2021-02-25_09h21.24.017,exp11,2020.2.6,Win32,60,IwAR3mkXheuWjJbMbaCX9Cngpz4bh3hxRhD6RYQH4XzkJw8jaGLHKohvxkHvs,,,,,,,,,,,
,,,,,,,,,,,,,,p,1,1.521,space,0.319,0,75,75,66,1,9_dist_green/trial17.png,,,1,9,greenverival,p,97,70,male,2021-02-25_09h21.24.017,exp11,2020.2.6,Win32,60,IwAR3mkXheuWjJbMbaCX9Cngpz4bh3hxRhD6RYQH4XzkJw8jaGLHKohvxkHvs,,,,,,,,,,,
,,,,,,,,,,,,,,p,1,1.72,space,0.368,0,76,76,98,1,15_dist_green/trial24.png,,,1,15,greenverival,p,97,70,male,2021-02-25_09h21.24.017,exp11,2020.2.6,Win32,60,IwAR3mkXheuWjJbMbaCX9Cngpz4bh3hxRhD6RYQH4XzkJw8jaGLHKohvxkHvs,,,,,,,,,,,
,,,,,,,,,,,,,,a,1,1.217,space,0.522,0,77,77,136,1,0_targ_4_dist_green/trial12.png,,,0,4,greenverival,a,97,70,male,2021-02-25_09h21.24.017,exp11,2020.2.6,Win32,60,IwAR3mkXheuWjJbMbaCX9Cngpz4bh3hxRhD6RYQH4XzkJw8jaGLHKohvxkHvs,,,,,,,,,,,
,,,,,,,,,,,,,,p,1,2.499,space,0.286,0,78,78,24,1,0_dist_green/trial25.png,,,1,0,greenverival,p,97,70,male,2021-02-25_09h21.24.017,exp11,2020.2.6,Win32,60,IwAR3mkXheuWjJbMbaCX9Cngpz4bh3hxRhD6RYQH4XzkJw8jaGLHKohvxkHvs,,,,,,,,,,,
,,,,,,,,,,,,,,a,1,1.523,space,0.47,0,79,79,150,1,0_targ_10_dist_green/trial1.png,,,0,10,greenverival,a,97,70,male,2021-02-25_09h21.24.017,exp11,2020.2.6,Win32,60,IwAR3mkXheuWjJbMbaCX9Cngpz4bh3hxRhD6RYQH4XzkJw8jaGLHKohvxkHvs,,,,,,,,,,,
,,,,,,,,,,,,,,a,1,1.584,space,0.469,0,80,80,118,1,0_targ_1_dist_green/trial19.png,,,0,1,greenverival,a,97,70,male,2021-02-25_09h21.24.017,exp11,2020.2.6,Win32,60,IwAR3mkXheuWjJbMbaCX9Cngpz4bh3hxRhD6RYQH4XzkJw8jaGLHKohvxkHvs,,,,,,,,,,,
,,,,,,,,,,,,,,p,1,1.25,space,0.638,0,81,81,40,1,3_dist_green/trial16.png,,,1,3,greenverival,p,97,70,male,2021-02-25_09h21.24.017,exp11,2020.2.6,Win32,60,IwAR3mkXheuWjJbMbaCX9Cngpz4bh3hxRhD6RYQH4XzkJw8jaGLHKohvxkHvs,,,,,,,,,,,
,,,,,,,,,,,,,,p,1,1.64,space,0.344,0,82,82,93,1,15_dist_green/trial19.png,,,1,15,greenverival,p,97,70,male,2021-02-25_09h21.24.017,exp11,2020.2.6,Win32,60,IwAR3mkXheuWjJbMbaCX9Cngpz4bh3hxRhD6RYQH4XzkJw8jaGLHKohvxkHvs,,,,,,,,,,,
,,,,,,,,,,,,,,a,1,1.558,space,0.551,0,83,83,133,1,0_targ_4_dist_green/trial9.png,,,0,4,greenverival,a,97,70,male,2021-02-25_09h21.24.017,exp11,2020.2.6,Win32,60,IwAR3mkXheuWjJbMbaCX9Cngpz4bh3hxRhD6RYQH4XzkJw8jaGLHKohvxkHvs,,,,,,,,,,,
,,,,,,,,,,,,,,a,1,1.225,space,0.399,0,84,84,110,1,0_targ_1_dist_green/trial11.png,,,0,1,greenverival,a,97,70,male,2021-02-25_09h21.24.017,exp11,2020.2.6,Win32,60,IwAR3mkXheuWjJbMbaCX9Cngpz4bh3hxRhD6RYQH4XzkJw8jaGLHKohvxkHvs,,,,,,,,,,,
,,,,,,,,,,,,,,a,1,0.961,space,0.52,0,85,85,101,1,0_targ_1_dist_green/trial2.png,,,0,1,greenverival,a,97,70,male,2021-02-25_09h21.24.017,exp11,2020.2.6,Win32,60,IwAR3mkXheuWjJbMbaCX9Cngpz4bh3hxRhD6RYQH4XzkJw8jaGLHKohvxkHvs,,,,,,,,,,,
,,,,,,,,,,,,,,a,1,2.388,space,0.437,0,86,86,119,1,0_targ_1_dist_green/trial20.png,,,0,1,greenverival,a,97,70,male,2021-02-25_09h21.24.017,exp11,2020.2.6,Win32,60,IwAR3mkXheuWjJbMbaCX9Cngpz4bh3hxRhD6RYQH4XzkJw8jaGLHKohvxkHvs,,,,,,,,,,,
,,,,,,,,,,,,,,p,1,1.702,space,0.387,0,87,87,12,1,0_dist_green/trial13.png,,,1,0,greenverival,p,97,70,male,2021-02-25_09h21.24.017,exp11,2020.2.6,Win32,60,IwAR3mkXheuWjJbMbaCX9Cngpz4bh3hxRhD6RYQH4XzkJw8jaGLHKohvxkHvs,,,,,,,,,,,
,,,,,,,,,,,,,,p,1,1.554,space,1.42,0,88,88,26,1,3_dist_green/trial2.png,,,1,3,greenverival,p,97,70,male,2021-02-25_09h21.24.017,exp11,2020.2.6,Win32,60,IwAR3mkXheuWjJbMbaCX9Cngpz4bh3hxRhD6RYQH4XzkJw8jaGLHKohvxkHvs,,,,,,,,,,,
,,,,,,,,,,,,,,a,1,1.741,space,0.441,0,89,89,199,1,0_targ_16_dist_green/trial25.png,,,0,16,greenverival,a,97,70,male,2021-02-25_09h21.24.017,exp11,2020.2.6,Win32,60,IwAR3mkXheuWjJbMbaCX9Cngpz4bh3hxRhD6RYQH4XzkJw8jaGLHKohvxkHvs,,,,,,,,,,,
,,,,,,,,,,,,,,a,1,1.187,space,0.502,0,90,90,111,1,0_targ_1_dist_green/trial12.png,,,0,1,greenverival,a,97,70,male,2021-02-25_09h21.24.017,exp11,2020.2.6,Win32,60,IwAR3mkXheuWjJbMbaCX9Cngpz4bh3hxRhD6RYQH4XzkJw8jaGLHKohvxkHvs,,,,,,,,,,,
,,,,,,,,,,,,,,a,1,2.368,space,1.703,0,91,91,114,1,0_targ_1_dist_green/trial15.png,,,0,1,greenverival,a,97,70,male,2021-02-25_09h21.24.017,exp11,2020.2.6,Win32,60,IwAR3mkXheuWjJbMbaCX9Cngpz4bh3hxRhD6RYQH4XzkJw8jaGLHKohvxkHvs,,,,,,,,,,,
,,,,,,,,,,,,,,a,1,1.576,space,0.432,0,92,92,195,1,0_targ_16_dist_green/trial21.png,,,0,16,greenverival,a,97,70,male,2021-02-25_09h21.24.017,exp11,2020.2.6,Win32,60,IwAR3mkXheuWjJbMbaCX9Cngpz4bh3hxRhD6RYQH4XzkJw8jaGLHKohvxkHvs,,,,,,,,,,,
,,,,,,,,,,,,,,p,1,1.275,space,0.32,0,93,93,5,1,0_dist_green/trial6.png,,,1,0,greenverival,p,97,70,male,2021-02-25_09h21.24.017,exp11,2020.2.6,Win32,60,IwAR3mkXheuWjJbMbaCX9Cngpz4bh3hxRhD6RYQH4XzkJw8jaGLHKohvxkHvs,,,,,,,,,,,
,,,,,,,,,,,,,,a,1,1.278,space,0.386,0,94,94,139,1,0_targ_4_dist_green/trial15.png,,,0,4,greenverival,a,97,70,male,2021-02-25_09h21.24.017,exp11,2020.2.6,Win32,60,IwAR3mkXheuWjJbMbaCX9Cngpz4bh3hxRhD6RYQH4XzkJw8jaGLHKohvxkHvs,,,,,,,,,,,
,,,,,,,,,,,,,,p,1,1.56,space,0.303,0,95,95,46,1,3_dist_green/trial22.png,,,1,3,greenverival,p,97,70,male,2021-02-25_09h21.24.017,exp11,2020.2.6,Win32,60,IwAR3mkXheuWjJbMbaCX9Cngpz4bh3hxRhD6RYQH4XzkJw8jaGLHKohvxkHvs,,,,,,,,,,,
,,,,,,,,,,,,,,p,1,1.257,space,0.337,0,96,96,30,1,3_dist_green/trial6.png,,,1,3,greenverival,p,97,70,male,2021-02-25_09h21.24.017,exp11,2020.2.6,Win32,60,IwAR3mkXheuWjJbMbaCX9Cngpz4bh3hxRhD6RYQH4XzkJw8jaGLHKohvxkHvs,,,,,,,,,,,
,,,,,,,,,,,,,,p,1,1.252,space,0.36,0,97,97,8,1,0_dist_green/trial9.png,,,1,0,greenverival,p,97,70,male,2021-02-25_09h21.24.017,exp11,2020.2.6,Win32,60,IwAR3mkXheuWjJbMbaCX9Cngpz4bh3hxRhD6RYQH4XzkJw8jaGLHKohvxkHvs,,,,,,,,,,,
,,,,,,,,,,,,,,a,1,1.381,space,0.419,0,98,98,185,1,0_targ_16_dist_green/trial11.png,,,0,16,greenverival,a,97,70,male,2021-02-25_09h21.24.017,exp11,2020.2.6,Win32,60,IwAR3mkXheuWjJbMbaCX9Cngpz4bh3hxRhD6RYQH4XzkJw8jaGLHKohvxkHvs,,,,,,,,,,,
,,,,,,,,,,,,,,p,1,1,space,0.303,0,99,99,16,1,0_dist_green/trial17.png,,,1,0,greenverival,p,97,70,male,2021-02-25_09h21.24.017,exp11,2020.2.6,Win32,60,IwAR3mkXheuWjJbMbaCX9Cngpz4bh3hxRhD6RYQH4XzkJw8jaGLHKohvxkHvs,,,,,,,,,,,
,,,,,,,,,,,,,,a,1,1.969,space,0.452,0,100,100,103,1,0_targ_1_dist_green/trial4.png,,,0,1,greenverival,a,97,70,male,2021-02-25_09h21.24.017,exp11,2020.2.6,Win32,60,IwAR3mkXheuWjJbMbaCX9Cngpz4bh3hxRhD6RYQH4XzkJw8jaGLHKohvxkHvs,,,,,,,,,,,
,,,,,,,,,,,,,,a,1,1.74,space,0.552,0,101,101,198,1,0_targ_16_dist_green/trial24.png,,,0,16,greenverival,a,97,70,male,2021-02-25_09h21.24.017,exp11,2020.2.6,Win32,60,IwAR3mkXheuWjJbMbaCX9Cngpz4bh3hxRhD6RYQH4XzkJw8jaGLHKohvxkHvs,,,,,,,,,,,
,,,,,,,,,,,,,,a,1,1.083,space,0.634,0,102,102,144,1,0_targ_4_dist_green/trial20.png,,,0,4,greenverival,a,97,70,male,2021-02-25_09h21.24.017,exp11,2020.2.6,Win32,60,IwAR3mkXheuWjJbMbaCX9Cngpz4bh3hxRhD6RYQH4XzkJw8jaGLHKohvxkHvs,,,,,,,,,,,
,,,,,,,,,,,,,,p,1,1.897,space,0.335,0,103,103,97,1,15_dist_green/trial23.png,,,1,15,greenverival,p,97,70,male,2021-02-25_09h21.24.017,exp11,2020.2.6,Win32,60,IwAR3mkXheuWjJbMbaCX9Cngpz4bh3hxRhD6RYQH4XzkJw8jaGLHKohvxkHvs,,,,,,,,,,,
,,,,,,,,,,,,,,a,1,1.039,space,0.469,0,104,104,127,1,0_targ_4_dist_green/trial3.png,,,0,4,greenverival,a,97,70,male,2021-02-25_09h21.24.017,exp11,2020.2.6,Win32,60,IwAR3mkXheuWjJbMbaCX9Cngpz4bh3hxRhD6RYQH4XzkJw8jaGLHKohvxkHvs,,,,,,,,,,,
,,,,,,,,,,,,,,p,1,1.269,space,0.319,0,105,105,54,1,9_dist_green/trial5.png,,,1,9,greenverival,p,97,70,male,2021-02-25_09h21.24.017,exp11,2020.2.6,Win32,60,IwAR3mkXheuWjJbMbaCX9Cngpz4bh3hxRhD6RYQH4XzkJw8jaGLHKohvxkHvs,,,,,,,,,,,
,,,,,,,,,,,,,,p,1,1.242,space,0.325,0,106,106,3,1,0_dist_green/trial4.png,,,1,0,greenverival,p,97,70,male,2021-02-25_09h21.24.017,exp11,2020.2.6,Win32,60,IwAR3mkXheuWjJbMbaCX9Cngpz4bh3hxRhD6RYQH4XzkJw8jaGLHKohvxkHvs,,,,,,,,,,,
,,,,,,,,,,,,,,p,1,1.276,space,0.285,0,107,107,70,1,9_dist_green/trial21.png,,,1,9,greenverival,p,97,70,male,2021-02-25_09h21.24.017,exp11,2020.2.6,Win32,60,IwAR3mkXheuWjJbMbaCX9Cngpz4bh3hxRhD6RYQH4XzkJw8jaGLHKohvxkHvs,,,,,,,,,,,
,,,,,,,,,,,,,,a,1,1.153,space,0.469,0,108,108,166,1,0_targ_10_dist_green/trial17.png,,,0,10,greenverival,a,97,70,male,2021-02-25_09h21.24.017,exp11,2020.2.6,Win32,60,IwAR3mkXheuWjJbMbaCX9Cngpz4bh3hxRhD6RYQH4XzkJw8jaGLHKohvxkHvs,,,,,,,,,,,
,,,,,,,,,,,,,,a,1,1.558,space,0.384,0,109,109,188,1,0_targ_16_dist_green/trial14.png,,,0,16,greenverival,a,97,70,male,2021-02-25_09h21.24.017,exp11,2020.2.6,Win32,60,IwAR3mkXheuWjJbMbaCX9Cngpz4bh3hxRhD6RYQH4XzkJw8jaGLHKohvxkHvs,,,,,,,,,,,
,,,,,,,,,,,,,,p,1,1.356,space,0.342,0,110,110,78,1,15_dist_green/trial4.png,,,1,15,greenverival,p,97,70,male,2021-02-25_09h21.24.017,exp11,2020.2.6,Win32,60,IwAR3mkXheuWjJbMbaCX9Cngpz4bh3hxRhD6RYQH4XzkJw8jaGLHKohvxkHvs,,,,,,,,,,,
,,,,,,,,,,,,,,a,1,1.235,space,0.482,0,111,111,164,1,0_targ_10_dist_green/trial15.png,,,0,10,greenverival,a,97,70,male,2021-02-25_09h21.24.017,exp11,2020.2.6,Win32,60,IwAR3mkXheuWjJbMbaCX9Cngpz4bh3hxRhD6RYQH4XzkJw8jaGLHKohvxkHvs,,,,,,,,,,,
,,,,,,,,,,,,,,p,1,1.191,space,0.418,0,112,112,52,1,9_dist_green/trial3.png,,,1,9,greenverival,p,97,70,male,2021-02-25_09h21.24.017,exp11,2020.2.6,Win32,60,IwAR3mkXheuWjJbMbaCX9Cngpz4bh3hxRhD6RYQH4XzkJw8jaGLHKohvxkHvs,,,,,,,,,,,
,,,,,,,,,,,,,,a,1,1.097,space,0.389,0,113,113,132,1,0_targ_4_dist_green/trial8.png,,,0,4,greenverival,a,97,70,male,2021-02-25_09h21.24.017,exp11,2020.2.6,Win32,60,IwAR3mkXheuWjJbMbaCX9Cngpz4bh3hxRhD6RYQH4XzkJw8jaGLHKohvxkHvs,,,,,,,,,,,
,,,,,,,,,,,,,,p,1,1.038,space,0.335,0,114,114,58,1,9_dist_green/trial9.png,,,1,9,greenverival,p,97,70,male,2021-02-25_09h21.24.017,exp11,2020.2.6,Win32,60,IwAR3mkXheuWjJbMbaCX9Cngpz4bh3hxRhD6RYQH4XzkJw8jaGLHKohvxkHvs,,,,,,,,,,,
,,,,,,,,,,,,,,a,1,1.062,space,0.406,0,115,115,125,1,0_targ_4_dist_green/trial1.png,,,0,4,greenverival,a,97,70,male,2021-02-25_09h21.24.017,exp11,2020.2.6,Win32,60,IwAR3mkXheuWjJbMbaCX9Cngpz4bh3hxRhD6RYQH4XzkJw8jaGLHKohvxkHvs,,,,,,,,,,,
,,,,,,,,,,,,,,p,1,1.142,space,0.37,0,116,116,65,1,9_dist_green/trial16.png,,,1,9,greenverival,p,97,70,male,2021-02-25_09h21.24.017,exp11,2020.2.6,Win32,60,IwAR3mkXheuWjJbMbaCX9Cngpz4bh3hxRhD6RYQH4XzkJw8jaGLHKohvxkHvs,,,,,,,,,,,
,,,,,,,,,,,,,,p,1,1.181,space,0.385,0,117,117,9,1,0_dist_green/trial10.png,,,1,0,greenverival,p,97,70,male,2021-02-25_09h21.24.017,exp11,2020.2.6,Win32,60,IwAR3mkXheuWjJbMbaCX9Cngpz4bh3hxRhD6RYQH4XzkJw8jaGLHKohvxkHvs,,,,,,,,,,,
,,,,,,,,,,,,,,p,1,1.248,space,0.385,0,118,118,85,1,15_dist_green/trial11.png,,,1,15,greenverival,p,97,70,male,2021-02-25_09h21.24.017,exp11,2020.2.6,Win32,60,IwAR3mkXheuWjJbMbaCX9Cngpz4bh3hxRhD6RYQH4XzkJw8jaGLHKohvxkHvs,,,,,,,,,,,
,,,,,,,,,,,,,,a,1,1.633,space,0.485,0,119,119,158,1,0_targ_10_dist_green/trial9.png,,,0,10,greenverival,a,97,70,male,2021-02-25_09h21.24.017,exp11,2020.2.6,Win32,60,IwAR3mkXheuWjJbMbaCX9Cngpz4bh3hxRhD6RYQH4XzkJw8jaGLHKohvxkHvs,,,,,,,,,,,
,,,,,,,,,,,,,,a,1,1.044,space,0.434,0,120,120,102,1,0_targ_1_dist_green/trial3.png,,,0,1,greenverival,a,97,70,male,2021-02-25_09h21.24.017,exp11,2020.2.6,Win32,60,IwAR3mkXheuWjJbMbaCX9Cngpz4bh3hxRhD6RYQH4XzkJw8jaGLHKohvxkHvs,,,,,,,,,,,
,,,,,,,,,,,,,,a,1,1.178,space,0.386,0,121,121,187,1,0_targ_16_dist_green/trial13.png,,,0,16,greenverival,a,97,70,male,2021-02-25_09h21.24.017,exp11,2020.2.6,Win32,60,IwAR3mkXheuWjJbMbaCX9Cngpz4bh3hxRhD6RYQH4XzkJw8jaGLHKohvxkHvs,,,,,,,,,,,
,,,,,,,,,,,,,,p,1,1.179,space,0.475,0,122,122,69,1,9_dist_green/trial20.png,,,1,9,greenverival,p,97,70,male,2021-02-25_09h21.24.017,exp11,2020.2.6,Win32,60,IwAR3mkXheuWjJbMbaCX9Cngpz4bh3hxRhD6RYQH4XzkJw8jaGLHKohvxkHvs,,,,,,,,,,,
,,,,,,,,,,,,,,p,1,1.744,space,0.356,0,123,123,43,1,3_dist_green/trial19.png,,,1,3,greenverival,p,97,70,male,2021-02-25_09h21.24.017,exp11,2020.2.6,Win32,60,IwAR3mkXheuWjJbMbaCX9Cngpz4bh3hxRhD6RYQH4XzkJw8jaGLHKohvxkHvs,,,,,,,,,,,
,,,,,,,,,,,,,,a,1,2.353,space,0.788,0,124,124,157,1,0_targ_10_dist_green/trial8.png,,,0,10,greenverival,a,97,70,male,2021-02-25_09h21.24.017,exp11,2020.2.6,Win32,60,IwAR3mkXheuWjJbMbaCX9Cngpz4bh3hxRhD6RYQH4XzkJw8jaGLHKohvxkHvs,,,,,,,,,,,
,,,,,,,,,,,,,,p,1,1.574,space,1.489,0,125,125,99,1,15_dist_green/trial25.png,,,1,15,greenverival,p,97,70,male,2021-02-25_09h21.24.017,exp11,2020.2.6,Win32,60,IwAR3mkXheuWjJbMbaCX9Cngpz4bh3hxRhD6RYQH4XzkJw8jaGLHKohvxkHvs,,,,,,,,,,,
,,,,,,,,,,,,,,p,1,0.807,space,0.967,0,126,126,74,1,9_dist_green/trial25.png,,,1,9,greenverival,p,97,70,male,2021-02-25_09h21.24.017,exp11,2020.2.6,Win32,60,IwAR3mkXheuWjJbMbaCX9Cngpz4bh3hxRhD6RYQH4XzkJw8jaGLHKohvxkHvs,,,,,,,,,,,
,,,,,,,,,,,,,,p,1,0.683,space,2.069,0,127,127,86,1,15_dist_green/trial12.png,,,1,15,greenverival,p,97,70,male,2021-02-25_09h21.24.017,exp11,2020.2.6,Win32,60,IwAR3mkXheuWjJbMbaCX9Cngpz4bh3hxRhD6RYQH4XzkJw8jaGLHKohvxkHvs,,,,,,,,,,,
,,,,,,,,,,,,,,p,1,0.654,space,1.636,0,128,128,53,1,9_dist_green/trial4.png,,,1,9,greenverival,p,97,70,male,2021-02-25_09h21.24.017,exp11,2020.2.6,Win32,60,IwAR3mkXheuWjJbMbaCX9Cngpz4bh3hxRhD6RYQH4XzkJw8jaGLHKohvxkHvs,,,,,,,,,,,
,,,,,,,,,,,,,,p,0,0.641,space,2.104,0,129,129,177,1,0_targ_16_dist_green/trial3.png,,,0,16,greenverival,a,97,70,male,2021-02-25_09h21.24.017,exp11,2020.2.6,Win32,60,IwAR3mkXheuWjJbMbaCX9Cngpz4bh3hxRhD6RYQH4XzkJw8jaGLHKohvxkHvs,,,,,,,,,,,
,,,,,,,,,,,,,,a,1,3.544,space,0.575,0,130,130,169,1,0_targ_10_dist_green/trial20.png,,,0,10,greenverival,a,97,70,male,2021-02-25_09h21.24.017,exp11,2020.2.6,Win32,60,IwAR3mkXheuWjJbMbaCX9Cngpz4bh3hxRhD6RYQH4XzkJw8jaGLHKohvxkHvs,,,,,,,,,,,
,,,,,,,,,,,,,,p,1,1.238,space,0.355,0,131,131,6,1,0_dist_green/trial7.png,,,1,0,greenverival,p,97,70,male,2021-02-25_09h21.24.017,exp11,2020.2.6,Win32,60,IwAR3mkXheuWjJbMbaCX9Cngpz4bh3hxRhD6RYQH4XzkJw8jaGLHKohvxkHvs,,,,,,,,,,,
,,,,,,,,,,,,,,a,1,1.208,space,0.405,0,132,132,152,1,0_targ_10_dist_green/trial3.png,,,0,10,greenverival,a,97,70,male,2021-02-25_09h21.24.017,exp11,2020.2.6,Win32,60,IwAR3mkXheuWjJbMbaCX9Cngpz4bh3hxRhD6RYQH4XzkJw8jaGLHKohvxkHvs,,,,,,,,,,,
,,,,,,,,,,,,,,p,1,1.376,space,0.322,0,133,133,96,1,15_dist_green/trial22.png,,,1,15,greenverival,p,97,70,male,2021-02-25_09h21.24.017,exp11,2020.2.6,Win32,60,IwAR3mkXheuWjJbMbaCX9Cngpz4bh3hxRhD6RYQH4XzkJw8jaGLHKohvxkHvs,,,,,,,,,,,
,,,,,,,,,,,,,,p,1,2.052,space,0.42,0,134,134,55,1,9_dist_green/trial6.png,,,1,9,greenverival,p,97,70,male,2021-02-25_09h21.24.017,exp11,2020.2.6,Win32,60,IwAR3mkXheuWjJbMbaCX9Cngpz4bh3hxRhD6RYQH4XzkJw8jaGLHKohvxkHvs,,,,,,,,,,,
,,,,,,,,,,,,,,p,1,1.156,space,0.351,0,135,135,27,1,3_dist_green/trial3.png,,,1,3,greenverival,p,97,70,male,2021-02-25_09h21.24.017,exp11,2020.2.6,Win32,60,IwAR3mkXheuWjJbMbaCX9Cngpz4bh3hxRhD6RYQH4XzkJw8jaGLHKohvxkHvs,,,,,,,,,,,
,,,,,,,,,,,,,,p,1,0.953,space,0.302,0,136,136,4,1,0_dist_green/trial5.png,,,1,0,greenverival,p,97,70,male,2021-02-25_09h21.24.017,exp11,2020.2.6,Win32,60,IwAR3mkXheuWjJbMbaCX9Cngpz4bh3hxRhD6RYQH4XzkJw8jaGLHKohvxkHvs,,,,,,,,,,,
,,,,,,,,,,,,,,p,1,1.417,space,0.353,0,137,137,48,1,3_dist_green/trial24.png,,,1,3,greenverival,p,97,70,male,2021-02-25_09h21.24.017,exp11,2020.2.6,Win32,60,IwAR3mkXheuWjJbMbaCX9Cngpz4bh3hxRhD6RYQH4XzkJw8jaGLHKohvxkHvs,,,,,,,,,,,
,,,,,,,,,,,,,,p,1,1.273,space,0.321,0,138,138,61,1,9_dist_green/trial12.png,,,1,9,greenverival,p,97,70,male,2021-02-25_09h21.24.017,exp11,2020.2.6,Win32,60,IwAR3mkXheuWjJbMbaCX9Cngpz4bh3hxRhD6RYQH4XzkJw8jaGLHKohvxkHvs,,,,,,,,,,,
,,,,,,,,,,,,,,a,1,1.103,space,0.404,0,139,139,138,1,0_targ_4_dist_green/trial14.png,,,0,4,greenverival,a,97,70,male,2021-02-25_09h21.24.017,exp11,2020.2.6,Win32,60,IwAR3mkXheuWjJbMbaCX9Cngpz4bh3hxRhD6RYQH4XzkJw8jaGLHKohvxkHvs,,,,,,,,,,,
,,,,,,,,,,,,,,a,1,1.217,space,0.401,0,140,140,182,1,0_targ_16_dist_green/trial8.png,,,0,16,greenverival,a,97,70,male,2021-02-25_09h21.24.017,exp11,2020.2.6,Win32,60,IwAR3mkXheuWjJbMbaCX9Cngpz4bh3hxRhD6RYQH4XzkJw8jaGLHKohvxkHvs,,,,,,,,,,,
,,,,,,,,,,,,,,p,1,1.231,space,0.351,0,141,141,84,1,15_dist_green/trial10.png,,,1,15,greenverival,p,97,70,male,2021-02-25_09h21.24.017,exp11,2020.2.6,Win32,60,IwAR3mkXheuWjJbMbaCX9Cngpz4bh3hxRhD6RYQH4XzkJw8jaGLHKohvxkHvs,,,,,,,,,,,
,,,,,,,,,,,,,,a,1,1.32,space,0.403,0,142,142,156,1,0_targ_10_dist_green/trial7.png,,,0,10,greenverival,a,97,70,male,2021-02-25_09h21.24.017,exp11,2020.2.6,Win32,60,IwAR3mkXheuWjJbMbaCX9Cngpz4bh3hxRhD6RYQH4XzkJw8jaGLHKohvxkHvs,,,,,,,,,,,
,,,,,,,,,,,,,,p,1,1.682,space,0.331,0,143,143,47,1,3_dist_green/trial23.png,,,1,3,greenverival,p,97,70,male,2021-02-25_09h21.24.017,exp11,2020.2.6,Win32,60,IwAR3mkXheuWjJbMbaCX9Cngpz4bh3hxRhD6RYQH4XzkJw8jaGLHKohvxkHvs,,,,,,,,,,,
,,,,,,,,,,,,,,a,1,1.307,space,0.375,0,144,144,190,1,0_targ_16_dist_green/trial16.png,,,0,16,greenverival,a,97,70,male,2021-02-25_09h21.24.017,exp11,2020.2.6,Win32,60,IwAR3mkXheuWjJbMbaCX9Cngpz4bh3hxRhD6RYQH4XzkJw8jaGLHKohvxkHvs,,,,,,,,,,,
,,,,,,,,,,,,,,p,1,2.239,space,0.419,0,145,145,32,1,3_dist_green/trial8.png,,,1,3,greenverival,p,97,70,male,2021-02-25_09h21.24.017,exp11,2020.2.6,Win32,60,IwAR3mkXheuWjJbMbaCX9Cngpz4bh3hxRhD6RYQH4XzkJw8jaGLHKohvxkHvs,,,,,,,,,,,
,,,,,,,,,,,,,,p,1,2.596,space,0.328,0,146,146,33,1,3_dist_green/trial9.png,,,1,3,greenverival,p,97,70,male,2021-02-25_09h21.24.017,exp11,2020.2.6,Win32,60,IwAR3mkXheuWjJbMbaCX9Cngpz4bh3hxRhD6RYQH4XzkJw8jaGLHKohvxkHvs,,,,,,,,,,,
,,,,,,,,,,,,,,a,1,1.256,space,0.437,0,147,147,178,1,0_targ_16_dist_green/trial4.png,,,0,16,greenverival,a,97,70,male,2021-02-25_09h21.24.017,exp11,2020.2.6,Win32,60,IwAR3mkXheuWjJbMbaCX9Cngpz4bh3hxRhD6RYQH4XzkJw8jaGLHKohvxkHvs,,,,,,,,,,,
,,,,,,,,,,,,,,p,1,1.457,space,0.324,0,148,148,71,1,9_dist_green/trial22.png,,,1,9,greenverival,p,97,70,male,2021-02-25_09h21.24.017,exp11,2020.2.6,Win32,60,IwAR3mkXheuWjJbMbaCX9Cngpz4bh3hxRhD6RYQH4XzkJw8jaGLHKohvxkHvs,,,,,,,,,,,
,,,,,,,,,,,,,,p,1,1.079,space,0.335,0,149,149,23,1,0_dist_green/trial24.png,,,1,0,greenverival,p,97,70,male,2021-02-25_09h21.24.017,exp11,2020.2.6,Win32,60,IwAR3mkXheuWjJbMbaCX9Cngpz4bh3hxRhD6RYQH4XzkJw8jaGLHKohvxkHvs,,,,,,,,,,,
,,,,,,,,,,,,,,a,1,1.17,space,0.457,0,150,150,147,1,0_targ_4_dist_green/trial23.png,,,0,4,greenverival,a,97,70,male,2021-02-25_09h21.24.017,exp11,2020.2.6,Win32,60,IwAR3mkXheuWjJbMbaCX9Cngpz4bh3hxRhD6RYQH4XzkJw8jaGLHKohvxkHvs,,,,,,,,,,,
,,,,,,,,,,,,,,a,1,0.95,space,0.368,0,151,151,129,1,0_targ_4_dist_green/trial5.png,,,0,4,greenverival,a,97,70,male,2021-02-25_09h21.24.017,exp11,2020.2.6,Win32,60,IwAR3mkXheuWjJbMbaCX9Cngpz4bh3hxRhD6RYQH4XzkJw8jaGLHKohvxkHvs,,,,,,,,,,,
,,,,,,,,,,,,,,a,1,2.335,space,0.337,0,152,152,194,1,0_targ_16_dist_green/trial20.png,,,0,16,greenverival,a,97,70,male,2021-02-25_09h21.24.017,exp11,2020.2.6,Win32,60,IwAR3mkXheuWjJbMbaCX9Cngpz4bh3hxRhD6RYQH4XzkJw8jaGLHKohvxkHvs,,,,,,,,,,,
,,,,,,,,,,,,,,p,1,1.35,space,0.319,0,153,153,80,1,15_dist_green/trial6.png,,,1,15,greenverival,p,97,70,male,2021-02-25_09h21.24.017,exp11,2020.2.6,Win32,60,IwAR3mkXheuWjJbMbaCX9Cngpz4bh3hxRhD6RYQH4XzkJw8jaGLHKohvxkHvs,,,,,,,,,,,
,,,,,,,,,,,,,,p,1,1.049,space,0.335,0,154,154,13,1,0_dist_green/trial14.png,,,1,0,greenverival,p,97,70,male,2021-02-25_09h21.24.017,exp11,2020.2.6,Win32,60,IwAR3mkXheuWjJbMbaCX9Cngpz4bh3hxRhD6RYQH4XzkJw8jaGLHKohvxkHvs,,,,,,,,,,,
,,,,,,,,,,,,,,a,1,1.327,space,0.364,0,155,155,155,1,0_targ_10_dist_green/trial6.png,,,0,10,greenverival,a,97,70,male,2021-02-25_09h21.24.017,exp11,2020.2.6,Win32,60,IwAR3mkXheuWjJbMbaCX9Cngpz4bh3hxRhD6RYQH4XzkJw8jaGLHKohvxkHvs,,,,,,,,,,,
,,,,,,,,,,,,,,a,1,2.525,space,0.585,0,156,156,170,1,0_targ_10_dist_green/trial21.png,,,0,10,greenverival,a,97,70,male,2021-02-25_09h21.24.017,exp11,2020.2.6,Win32,60,IwAR3mkXheuWjJbMbaCX9Cngpz4bh3hxRhD6RYQH4XzkJw8jaGLHKohvxkHvs,,,,,,,,,,,
,,,,,,,,,,,,,,a,1,1.838,space,0.436,0,157,157,116,1,0_targ_1_dist_green/trial17.png,,,0,1,greenverival,a,97,70,male,2021-02-25_09h21.24.017,exp11,2020.2.6,Win32,60,IwAR3mkXheuWjJbMbaCX9Cngpz4bh3hxRhD6RYQH4XzkJw8jaGLHKohvxkHvs,,,,,,,,,,,
,,,,,,,,,,,,,,p,1,1.56,space,0.387,0,158,158,25,1,3_dist_green/trial1.png,,,1,3,greenverival,p,97,70,male,2021-02-25_09h21.24.017,exp11,2020.2.6,Win32,60,IwAR3mkXheuWjJbMbaCX9Cngpz4bh3hxRhD6RYQH4XzkJw8jaGLHKohvxkHvs,,,,,,,,,,,
,,,,,,,,,,,,,,p,1,1.312,space,0.302,0,159,159,18,1,0_dist_green/trial19.png,,,1,0,greenverival,p,97,70,male,2021-02-25_09h21.24.017,exp11,2020.2.6,Win32,60,IwAR3mkXheuWjJbMbaCX9Cngpz4bh3hxRhD6RYQH4XzkJw8jaGLHKohvxkHvs,,,,,,,,,,,
,,,,,,,,,,,,,,a,1,1.306,space,0.435,0,160,160,192,1,0_targ_16_dist_green/trial18.png,,,0,16,greenverival,a,97,70,male,2021-02-25_09h21.24.017,exp11,2020.2.6,Win32,60,IwAR3mkXheuWjJbMbaCX9Cngpz4bh3hxRhD6RYQH4XzkJw8jaGLHKohvxkHvs,,,,,,,,,,,
,,,,,,,,,,,,,,p,1,0.997,space,0.289,0,161,161,41,1,3_dist_green/trial17.png,,,1,3,greenverival,p,97,70,male,2021-02-25_09h21.24.017,exp11,2020.2.6,Win32,60,IwAR3mkXheuWjJbMbaCX9Cngpz4bh3hxRhD6RYQH4XzkJw8jaGLHKohvxkHvs,,,,,,,,,,,
,,,,,,,,,,,,,,a,1,1.543,space,0.436,0,162,162,197,1,0_targ_16_dist_green/trial23.png,,,0,16,greenverival,a,97,70,male,2021-02-25_09h21.24.017,exp11,2020.2.6,Win32,60,IwAR3mkXheuWjJbMbaCX9Cngpz4bh3hxRhD6RYQH4XzkJw8jaGLHKohvxkHvs,,,,,,,,,,,
,,,,,,,,,,,,,,a,1,2.951,space,1.084,0,163,163,176,1,0_targ_16_dist_green/trial2.png,,,0,16,greenverival,a,97,70,male,2021-02-25_09h21.24.017,exp11,2020.2.6,Win32,60,IwAR3mkXheuWjJbMbaCX9Cngpz4bh3hxRhD6RYQH4XzkJw8jaGLHKohvxkHvs,,,,,,,,,,,
,,,,,,,,,,,,,,p,1,1.275,space,0.318,0,164,164,77,1,15_dist_green/trial3.png,,,1,15,greenverival,p,97,70,male,2021-02-25_09h21.24.017,exp11,2020.2.6,Win32,60,IwAR3mkXheuWjJbMbaCX9Cngpz4bh3hxRhD6RYQH4XzkJw8jaGLHKohvxkHvs,,,,,,,,,,,
,,,,,,,,,,,,,,a,1,1.741,space,0.601,0,165,165,145,1,0_targ_4_dist_green/trial21.png,,,0,4,greenverival,a,97,70,male,2021-02-25_09h21.24.017,exp11,2020.2.6,Win32,60,IwAR3mkXheuWjJbMbaCX9Cngpz4bh3hxRhD6RYQH4XzkJw8jaGLHKohvxkHvs,,,,,,,,,,,
,,,,,,,,,,,,,,p,1,1.512,space,0.303,0,166,166,95,1,15_dist_green/trial21.png,,,1,15,greenverival,p,97,70,male,2021-02-25_09h21.24.017,exp11,2020.2.6,Win32,60,IwAR3mkXheuWjJbMbaCX9Cngpz4bh3hxRhD6RYQH4XzkJw8jaGLHKohvxkHvs,,,,,,,,,,,
,,,,,,,,,,,,,,p,1,1.101,space,0.285,0,167,167,19,1,0_dist_green/trial20.png,,,1,0,greenverival,p,97,70,male,2021-02-25_09h21.24.017,exp11,2020.2.6,Win32,60,IwAR3mkXheuWjJbMbaCX9Cngpz4bh3hxRhD6RYQH4XzkJw8jaGLHKohvxkHvs,,,,,,,,,,,
,,,,,,,,,,,,,,p,1,1.001,space,0.317,0,168,168,38,1,3_dist_green/trial14.png,,,1,3,greenverival,p,97,70,male,2021-02-25_09h21.24.017,exp11,2020.2.6,Win32,60,IwAR3mkXheuWjJbMbaCX9Cngpz4bh3hxRhD6RYQH4XzkJw8jaGLHKohvxkHvs,,,,,,,,,,,
,,,,,,,,,,,,,,a,1,1.482,space,0.439,0,169,169,173,1,0_targ_10_dist_green/trial24.png,,,0,10,greenverival,a,97,70,male,2021-02-25_09h21.24.017,exp11,2020.2.6,Win32,60,IwAR3mkXheuWjJbMbaCX9Cngpz4bh3hxRhD6RYQH4XzkJw8jaGLHKohvxkHvs,,,,,,,,,,,
,,,,,,,,,,,,,,p,1,1.505,space,0.268,0,170,170,82,1,15_dist_green/trial8.png,,,1,15,greenverival,p,97,70,male,2021-02-25_09h21.24.017,exp11,2020.2.6,Win32,60,IwAR3mkXheuWjJbMbaCX9Cngpz4bh3hxRhD6RYQH4XzkJw8jaGLHKohvxkHvs,,,,,,,,,,,
,,,,,,,,,,,,,,p,1,1.092,space,0.303,0,171,171,15,1,0_dist_green/trial16.png,,,1,0,greenverival,p,97,70,male,2021-02-25_09h21.24.017,exp11,2020.2.6,Win32,60,IwAR3mkXheuWjJbMbaCX9Cngpz4bh3hxRhD6RYQH4XzkJw8jaGLHKohvxkHvs,,,,,,,,,,,
,,,,,,,,,,,,,,a,1,1.36,space,0.351,0,172,172,113,1,0_targ_1_dist_green/trial14.png,,,0,1,greenverival,a,97,70,male,2021-02-25_09h21.24.017,exp11,2020.2.6,Win32,60,IwAR3mkXheuWjJbMbaCX9Cngpz4bh3hxRhD6RYQH4XzkJw8jaGLHKohvxkHvs,,,,,,,,,,,
,,,,,,,,,,,,,,a,1,1.024,space,0.37,0,173,173,108,1,0_targ_1_dist_green/trial9.png,,,0,1,greenverival,a,97,70,male,2021-02-25_09h21.24.017,exp11,2020.2.6,Win32,60,IwAR3mkXheuWjJbMbaCX9Cngpz4bh3hxRhD6RYQH4XzkJw8jaGLHKohvxkHvs,,,,,,,,,,,
,,,,,,,,,,,,,,a,1,1.77,space,0.519,0,174,174,168,1,0_targ_10_dist_green/trial19.png,,,0,10,greenverival,a,97,70,male,2021-02-25_09h21.24.017,exp11,2020.2.6,Win32,60,IwAR3mkXheuWjJbMbaCX9Cngpz4bh3hxRhD6RYQH4XzkJw8jaGLHKohvxkHvs,,,,,,,,,,,
,,,,,,,,,,,,,,p,1,1.329,space,0.35,0,175,175,20,1,0_dist_green/trial21.png,,,1,0,greenverival,p,97,70,male,2021-02-25_09h21.24.017,exp11,2020.2.6,Win32,60,IwAR3mkXheuWjJbMbaCX9Cngpz4bh3hxRhD6RYQH4XzkJw8jaGLHKohvxkHvs,,,,,,,,,,,
,,,,,,,,,,,,,,a,1,1.754,space,0.484,0,176,176,165,1,0_targ_10_dist_green/trial16.png,,,0,10,greenverival,a,97,70,male,2021-02-25_09h21.24.017,exp11,2020.2.6,Win32,60,IwAR3mkXheuWjJbMbaCX9Cngpz4bh3hxRhD6RYQH4XzkJw8jaGLHKohvxkHvs,,,,,,,,,,,
,,,,,,,,,,,,,,a,1,1.017,space,0.39,0,177,177,140,1,0_targ_4_dist_green/trial6.png,,,0,4,greenverival,a,97,70,male,2021-02-25_09h21.24.017,exp11,2020.2.6,Win32,60,IwAR3mkXheuWjJbMbaCX9Cngpz4bh3hxRhD6RYQH4XzkJw8jaGLHKohvxkHvs,,,,,,,,,,,
,,,,,,,,,,,,,,a,1,2.001,space,0.533,0,178,178,175,1,0_targ_16_dist_green/trial1.png,,,0,16,greenverival,a,97,70,male,2021-02-25_09h21.24.017,exp11,2020.2.6,Win32,60,IwAR3mkXheuWjJbMbaCX9Cngpz4bh3hxRhD6RYQH4XzkJw8jaGLHKohvxkHvs,,,,,,,,,,,
,,,,,,,,,,,,,,a,1,1.262,space,0.44,0,179,179,167,1,0_targ_10_dist_green/trial18.png,,,0,10,greenverival,a,97,70,male,2021-02-25_09h21.24.017,exp11,2020.2.6,Win32,60,IwAR3mkXheuWjJbMbaCX9Cngpz4bh3hxRhD6RYQH4XzkJw8jaGLHKohvxkHvs,,,,,,,,,,,
,,,,,,,,,,,,,,p,1,1.152,space,0.303,0,180,180,37,1,3_dist_green/trial13.png,,,1,3,greenverival,p,97,70,male,2021-02-25_09h21.24.017,exp11,2020.2.6,Win32,60,IwAR3mkXheuWjJbMbaCX9Cngpz4bh3hxRhD6RYQH4XzkJw8jaGLHKohvxkHvs,,,,,,,,,,,
,,,,,,,,,,,,,,p,1,1.165,space,0.328,0,181,181,63,1,9_dist_green/trial14.png,,,1,9,greenverival,p,97,70,male,2021-02-25_09h21.24.017,exp11,2020.2.6,Win32,60,IwAR3mkXheuWjJbMbaCX9Cngpz4bh3hxRhD6RYQH4XzkJw8jaGLHKohvxkHvs,,,,,,,,,,,
,,,,,,,,,,,,,,a,1,1.306,space,0.42,0,182,182,159,1,0_targ_10_dist_green/trial10.png,,,0,10,greenverival,a,97,70,male,2021-02-25_09h21.24.017,exp11,2020.2.6,Win32,60,IwAR3mkXheuWjJbMbaCX9Cngpz4bh3hxRhD6RYQH4XzkJw8jaGLHKohvxkHvs,,,,,,,,,,,
,,,,,,,,,,,,,,a,1,2.605,space,0.353,0,183,183,161,1,0_targ_10_dist_green/trial12.png,,,0,10,greenverival,a,97,70,male,2021-02-25_09h21.24.017,exp11,2020.2.6,Win32,60,IwAR3mkXheuWjJbMbaCX9Cngpz4bh3hxRhD6RYQH4XzkJw8jaGLHKohvxkHvs,,,,,,,,,,,
,,,,,,,,,,,,,,a,1,1.453,space,0.402,0,184,184,104,1,0_targ_1_dist_green/trial5.png,,,0,1,greenverival,a,97,70,male,2021-02-25_09h21.24.017,exp11,2020.2.6,Win32,60,IwAR3mkXheuWjJbMbaCX9Cngpz4bh3hxRhD6RYQH4XzkJw8jaGLHKohvxkHvs,,,,,,,,,,,
,,,,,,,,,,,,,,a,1,2.109,space,0.356,0,185,185,120,1,0_targ_1_dist_green/trial21.png,,,0,1,greenverival,a,97,70,male,2021-02-25_09h21.24.017,exp11,2020.2.6,Win32,60,IwAR3mkXheuWjJbMbaCX9Cngpz4bh3hxRhD6RYQH4XzkJw8jaGLHKohvxkHvs,,,,,,,,,,,
,,,,,,,,,,,,,,p,1,1.367,space,0.337,0,186,186,75,1,15_dist_green/trial1.png,,,1,15,greenverival,p,97,70,male,2021-02-25_09h21.24.017,exp11,2020.2.6,Win32,60,IwAR3mkXheuWjJbMbaCX9Cngpz4bh3hxRhD6RYQH4XzkJw8jaGLHKohvxkHvs,,,,,,,,,,,
,,,,,,,,,,,,,,a,1,1.231,space,0.371,0,187,187,141,1,0_targ_4_dist_green/trial17.png,,,0,4,greenverival,a,97,70,male,2021-02-25_09h21.24.017,exp11,2020.2.6,Win32,60,IwAR3mkXheuWjJbMbaCX9Cngpz4bh3hxRhD6RYQH4XzkJw8jaGLHKohvxkHvs,,,,,,,,,,,
,,,,,,,,,,,,,,p,1,2.074,space,0.319,0,188,188,21,1,0_dist_green/trial22.png,,,1,0,greenverival,p,97,70,male,2021-02-25_09h21.24.017,exp11,2020.2.6,Win32,60,IwAR3mkXheuWjJbMbaCX9Cngpz4bh3hxRhD6RYQH4XzkJw8jaGLHKohvxkHvs,,,,,,,,,,,
,,,,,,,,,,,,,,p,1,1.205,space,0.342,0,189,189,57,1,9_dist_green/trial8.png,,,1,9,greenverival,p,97,70,male,2021-02-25_09h21.24.017,exp11,2020.2.6,Win32,60,IwAR3mkXheuWjJbMbaCX9Cngpz4bh3hxRhD6RYQH4XzkJw8jaGLHKohvxkHvs,,,,,,,,,,,
,,,,,,,,,,,,,,a,1,1.167,space,0.451,0,190,190,143,1,0_targ_4_dist_green/trial19.png,,,0,4,greenverival,a,97,70,male,2021-02-25_09h21.24.017,exp11,2020.2.6,Win32,60,IwAR3mkXheuWjJbMbaCX9Cngpz4bh3hxRhD6RYQH4XzkJw8jaGLHKohvxkHvs,,,,,,,,,,,
,,,,,,,,,,,,,,a,1,2.896,space,1.623,0,191,191,109,1,0_targ_1_dist_green/trial10.png,,,0,1,greenverival,a,97,70,male,2021-02-25_09h21.24.017,exp11,2020.2.6,Win32,60,IwAR3mkXheuWjJbMbaCX9Cngpz4bh3hxRhD6RYQH4XzkJw8jaGLHKohvxkHvs,,,,,,,,,,,
,,,,,,,,,,,,,,p,1,1.049,space,0.325,0,192,192,67,1,9_dist_green/trial18.png,,,1,9,greenverival,p,97,70,male,2021-02-25_09h21.24.017,exp11,2020.2.6,Win32,60,IwAR3mkXheuWjJbMbaCX9Cngpz4bh3hxRhD6RYQH4XzkJw8jaGLHKohvxkHvs,,,,,,,,,,,
,,,,,,,,,,,,,,a,1,1.561,space,0.388,0,193,193,124,1,0_targ_1_dist_green/trial25.png,,,0,1,greenverival,a,97,70,male,2021-02-25_09h21.24.017,exp11,2020.2.6,Win32,60,IwAR3mkXheuWjJbMbaCX9Cngpz4bh3hxRhD6RYQH4XzkJw8jaGLHKohvxkHvs,,,,,,,,,,,
,,,,,,,,,,,,,,a,1,1.636,space,0.436,0,194,194,135,1,0_targ_4_dist_green/trial11.png,,,0,4,greenverival,a,97,70,male,2021-02-25_09h21.24.017,exp11,2020.2.6,Win32,60,IwAR3mkXheuWjJbMbaCX9Cngpz4bh3hxRhD6RYQH4XzkJw8jaGLHKohvxkHvs,,,,,,,,,,,
,,,,,,,,,,,,,,a,1,1.233,space,0.421,0,195,195,171,1,0_targ_10_dist_green/trial22.png,,,0,10,greenverival,a,97,70,male,2021-02-25_09h21.24.017,exp11,2020.2.6,Win32,60,IwAR3mkXheuWjJbMbaCX9Cngpz4bh3hxRhD6RYQH4XzkJw8jaGLHKohvxkHvs,,,,,,,,,,,
,,,,,,,,,,,,,,p,1,1.41,space,0.322,0,196,196,72,1,9_dist_green/trial23.png,,,1,9,greenverival,p,97,70,male,2021-02-25_09h21.24.017,exp11,2020.2.6,Win32,60,IwAR3mkXheuWjJbMbaCX9Cngpz4bh3hxRhD6RYQH4XzkJw8jaGLHKohvxkHvs,,,,,,,,,,,
,,,,,,,,,,,,,,p,1,0.99,space,0.305,0,197,197,92,1,15_dist_green/trial18.png,,,1,15,greenverival,p,97,70,male,2021-02-25_09h21.24.017,exp11,2020.2.6,Win32,60,IwAR3mkXheuWjJbMbaCX9Cngpz4bh3hxRhD6RYQH4XzkJw8jaGLHKohvxkHvs,,,,,,,,,,,
,,,,,,,,,,,,,,p,1,2.996,space,0.303,0,198,198,35,1,3_dist_green/trial11.png,,,1,3,greenverival,p,97,70,male,2021-02-25_09h21.24.017,exp11,2020.2.6,Win32,60,IwAR3mkXheuWjJbMbaCX9Cngpz4bh3hxRhD6RYQH4XzkJw8jaGLHKohvxkHvs,,,,,,,,,,,
,,,,,,,,,,,,,,p,1,1.276,space,0.308,0,199,199,17,1,0_dist_green/trial18.png,,,1,0,greenverival,p,97,70,male,2021-02-25_09h21.24.017,exp11,2020.2.6,Win32,60,IwAR3mkXheuWjJbMbaCX9Cngpz4bh3hxRhD6RYQH4XzkJw8jaGLHKohvxkHvs,,,,,,,,,,,
,,,,,,,,,,,,,,,,,,,,,,,,,,,,,,,97,70,male,2021-02-25_09h21.24.017,exp11,2020.2.6,Win32,60,IwAR3mkXheuWjJbMbaCX9Cngpz4bh3hxRhD6RYQH4XzkJw8jaGLHKohvxkHvs,0,0,0,0,1,conGreen.xlsx,green vertical,Look for green vertical bar (target) and indicate if it is present or absent in the array. If green vertical target is present press 'p' and if absent press 'a'. Press SPACE to start.,,,
,,,,,,,,,,space,16.38,space,7.846,a,1,1.889,space,2.019,0,0,0,152,1,0_targ_10_dist_red/trial3.png,,,0,10,redHorizontal,a,97,70,male,2021-02-25_09h21.24.017,exp11,2020.2.6,Win32,60,IwAR3mkXheuWjJbMbaCX9Cngpz4bh3hxRhD6RYQH4XzkJw8jaGLHKohvxkHvs,,,,,,,,,,,
,,,,,,,,,,,,,,p,1,1.606,space,1.172,0,1,1,29,1,3_dist_red/trial5.png,,,1,3,redHorizontal,p,97,70,male,2021-02-25_09h21.24.017,exp11,2020.2.6,Win32,60,IwAR3mkXheuWjJbMbaCX9Cngpz4bh3hxRhD6RYQH4XzkJw8jaGLHKohvxkHvs,,,,,,,,,,,
,,,,,,,,,,,,,,a,1,2.376,space,0.77,0,2,2,107,1,0_targ_1_dist_red/trial8.png,,,0,1,redHorizontal,a,97,70,male,2021-02-25_09h21.24.017,exp11,2020.2.6,Win32,60,IwAR3mkXheuWjJbMbaCX9Cngpz4bh3hxRhD6RYQH4XzkJw8jaGLHKohvxkHvs,,,,,,,,,,,
,,,,,,,,,,,,,,p,1,1.39,space,0.337,0,3,3,33,1,3_dist_red/trial9.png,,,1,3,redHorizontal,p,97,70,male,2021-02-25_09h21.24.017,exp11,2020.2.6,Win32,60,IwAR3mkXheuWjJbMbaCX9Cngpz4bh3hxRhD6RYQH4XzkJw8jaGLHKohvxkHvs,,,,,,,,,,,
,,,,,,,,,,,,,,p,1,1.278,space,0.32,0,4,4,25,1,3_dist_red/trial1.png,,,1,3,redHorizontal,p,97,70,male,2021-02-25_09h21.24.017,exp11,2020.2.6,Win32,60,IwAR3mkXheuWjJbMbaCX9Cngpz4bh3hxRhD6RYQH4XzkJw8jaGLHKohvxkHvs,,,,,,,,,,,
,,,,,,,,,,,,,,a,1,1.502,space,0.372,0,5,5,166,1,0_targ_10_dist_red/trial17.png,,,0,10,redHorizontal,a,97,70,male,2021-02-25_09h21.24.017,exp11,2020.2.6,Win32,60,IwAR3mkXheuWjJbMbaCX9Cngpz4bh3hxRhD6RYQH4XzkJw8jaGLHKohvxkHvs,,,,,,,,,,,
,,,,,,,,,,,,,,p,1,1.248,space,0.302,0,6,6,88,1,15_dist_red/trial14.png,,,1,15,redHorizontal,p,97,70,male,2021-02-25_09h21.24.017,exp11,2020.2.6,Win32,60,IwAR3mkXheuWjJbMbaCX9Cngpz4bh3hxRhD6RYQH4XzkJw8jaGLHKohvxkHvs,,,,,,,,,,,
,,,,,,,,,,,,,,a,1,3.244,space,0.558,0,7,7,172,1,0_targ_10_dist_red/trial23.png,,,0,10,redHorizontal,a,97,70,male,2021-02-25_09h21.24.017,exp11,2020.2.6,Win32,60,IwAR3mkXheuWjJbMbaCX9Cngpz4bh3hxRhD6RYQH4XzkJw8jaGLHKohvxkHvs,,,,,,,,,,,
,,,,,,,,,,,,,,p,1,2.511,space,0.319,0,8,8,51,1,9_dist_red/trial2.png,,,1,9,redHorizontal,p,97,70,male,2021-02-25_09h21.24.017,exp11,2020.2.6,Win32,60,IwAR3mkXheuWjJbMbaCX9Cngpz4bh3hxRhD6RYQH4XzkJw8jaGLHKohvxkHvs,,,,,,,,,,,
,,,,,,,,,,,,,,a,1,2.732,space,0.625,0,9,9,113,1,0_targ_1_dist_red/trial14.png,,,0,1,redHorizontal,a,97,70,male,2021-02-25_09h21.24.017,exp11,2020.2.6,Win32,60,IwAR3mkXheuWjJbMbaCX9Cngpz4bh3hxRhD6RYQH4XzkJw8jaGLHKohvxkHvs,,,,,,,,,,,
,,,,,,,,,,,,,,a,1,1.886,space,0.407,0,10,10,173,1,0_targ_10_dist_red/trial24.png,,,0,10,redHorizontal,a,97,70,male,2021-02-25_09h21.24.017,exp11,2020.2.6,Win32,60,IwAR3mkXheuWjJbMbaCX9Cngpz4bh3hxRhD6RYQH4XzkJw8jaGLHKohvxkHvs,,,,,,,,,,,
,,,,,,,,,,,,,,p,1,1.41,space,0.336,0,11,11,56,1,9_dist_red/trial7.png,,,1,9,redHorizontal,p,97,70,male,2021-02-25_09h21.24.017,exp11,2020.2.6,Win32,60,IwAR3mkXheuWjJbMbaCX9Cngpz4bh3hxRhD6RYQH4XzkJw8jaGLHKohvxkHvs,,,,,,,,,,,
,,,,,,,,,,,,,,p,1,2.189,space,0.386,0,12,12,59,1,9_dist_red/trial10.png,,,1,9,redHorizontal,p,97,70,male,2021-02-25_09h21.24.017,exp11,2020.2.6,Win32,60,IwAR3mkXheuWjJbMbaCX9Cngpz4bh3hxRhD6RYQH4XzkJw8jaGLHKohvxkHvs,,,,,,,,,,,
,,,,,,,,,,,,,,p,1,1.095,space,0.318,0,13,13,83,1,15_dist_red/trial9.png,,,1,15,redHorizontal,p,97,70,male,2021-02-25_09h21.24.017,exp11,2020.2.6,Win32,60,IwAR3mkXheuWjJbMbaCX9Cngpz4bh3hxRhD6RYQH4XzkJw8jaGLHKohvxkHvs,,,,,,,,,,,
,,,,,,,,,,,,,,a,1,1.388,space,0.388,0,14,14,133,1,0_targ_4_dist_red/trial9.png,,,0,4,redHorizontal,a,97,70,male,2021-02-25_09h21.24.017,exp11,2020.2.6,Win32,60,IwAR3mkXheuWjJbMbaCX9Cngpz4bh3hxRhD6RYQH4XzkJw8jaGLHKohvxkHvs,,,,,,,,,,,
,,,,,,,,,,,,,,p,1,2.046,space,0.318,0,15,15,47,1,3_dist_red/trial23.png,,,1,3,redHorizontal,p,97,70,male,2021-02-25_09h21.24.017,exp11,2020.2.6,Win32,60,IwAR3mkXheuWjJbMbaCX9Cngpz4bh3hxRhD6RYQH4XzkJw8jaGLHKohvxkHvs,,,,,,,,,,,
,,,,,,,,,,,,,,a,1,1.467,space,0.423,0,16,16,141,1,0_targ_4_dist_red/trial17.png,,,0,4,redHorizontal,a,97,70,male,2021-02-25_09h21.24.017,exp11,2020.2.6,Win32,60,IwAR3mkXheuWjJbMbaCX9Cngpz4bh3hxRhD6RYQH4XzkJw8jaGLHKohvxkHvs,,,,,,,,,,,
,,,,,,,,,,,,,,p,1,1.054,space,0.325,0,17,17,32,1,3_dist_red/trial8.png,,,1,3,redHorizontal,p,97,70,male,2021-02-25_09h21.24.017,exp11,2020.2.6,Win32,60,IwAR3mkXheuWjJbMbaCX9Cngpz4bh3hxRhD6RYQH4XzkJw8jaGLHKohvxkHvs,,,,,,,,,,,
,,,,,,,,,,,,,,p,1,1.38,space,0.371,0,18,18,61,1,9_dist_red/trial12.png,,,1,9,redHorizontal,p,97,70,male,2021-02-25_09h21.24.017,exp11,2020.2.6,Win32,60,IwAR3mkXheuWjJbMbaCX9Cngpz4bh3hxRhD6RYQH4XzkJw8jaGLHKohvxkHvs,,,,,,,,,,,
,,,,,,,,,,,,,,a,1,4.566,space,0.806,0,19,19,198,1,0_targ_16_dist_red/trial24.png,,,0,16,redHorizontal,a,97,70,male,2021-02-25_09h21.24.017,exp11,2020.2.6,Win32,60,IwAR3mkXheuWjJbMbaCX9Cngpz4bh3hxRhD6RYQH4XzkJw8jaGLHKohvxkHvs,,,,,,,,,,,
,,,,,,,,,,,,,,p,1,1.058,space,0.35,0,20,20,7,1,0_dist_red/trial8.png,,,1,0,redHorizontal,p,97,70,male,2021-02-25_09h21.24.017,exp11,2020.2.6,Win32,60,IwAR3mkXheuWjJbMbaCX9Cngpz4bh3hxRhD6RYQH4XzkJw8jaGLHKohvxkHvs,,,,,,,,,,,
,,,,,,,,,,,,,,p,1,1.077,space,0.318,0,21,21,12,1,0_dist_red/trial13.png,,,1,0,redHorizontal,p,97,70,male,2021-02-25_09h21.24.017,exp11,2020.2.6,Win32,60,IwAR3mkXheuWjJbMbaCX9Cngpz4bh3hxRhD6RYQH4XzkJw8jaGLHKohvxkHvs,,,,,,,,,,,
,,,,,,,,,,,,,,p,1,1.288,space,0.369,0,22,22,80,1,15_dist_red/trial6.png,,,1,15,redHorizontal,p,97,70,male,2021-02-25_09h21.24.017,exp11,2020.2.6,Win32,60,IwAR3mkXheuWjJbMbaCX9Cngpz4bh3hxRhD6RYQH4XzkJw8jaGLHKohvxkHvs,,,,,,,,,,,
,,,,,,,,,,,,,,p,1,1.538,space,0.406,0,23,23,92,1,15_dist_red/trial18.png,,,1,15,redHorizontal,p,97,70,male,2021-02-25_09h21.24.017,exp11,2020.2.6,Win32,60,IwAR3mkXheuWjJbMbaCX9Cngpz4bh3hxRhD6RYQH4XzkJw8jaGLHKohvxkHvs,,,,,,,,,,,
,,,,,,,,,,,,,,p,1,1.307,space,0.306,0,24,24,99,1,15_dist_red/trial25.png,,,1,15,redHorizontal,p,97,70,male,2021-02-25_09h21.24.017,exp11,2020.2.6,Win32,60,IwAR3mkXheuWjJbMbaCX9Cngpz4bh3hxRhD6RYQH4XzkJw8jaGLHKohvxkHvs,,,,,,,,,,,
,,,,,,,,,,,,,,a,1,1.175,space,0.385,0,25,25,115,1,0_targ_1_dist_red/trial6.png,,,0,1,redHorizontal,a,97,70,male,2021-02-25_09h21.24.017,exp11,2020.2.6,Win32,60,IwAR3mkXheuWjJbMbaCX9Cngpz4bh3hxRhD6RYQH4XzkJw8jaGLHKohvxkHvs,,,,,,,,,,,
,,,,,,,,,,,,,,a,0,1.353,space,2.968,0,26,26,0,1,0_dist_red/trial1.png,,,1,0,redHorizontal,p,97,70,male,2021-02-25_09h21.24.017,exp11,2020.2.6,Win32,60,IwAR3mkXheuWjJbMbaCX9Cngpz4bh3hxRhD6RYQH4XzkJw8jaGLHKohvxkHvs,,,,,,,,,,,
,,,,,,,,,,,,,,p,1,1.533,space,0.767,0,27,27,34,1,3_dist_red/trial10.png,,,1,3,redHorizontal,p,97,70,male,2021-02-25_09h21.24.017,exp11,2020.2.6,Win32,60,IwAR3mkXheuWjJbMbaCX9Cngpz4bh3hxRhD6RYQH4XzkJw8jaGLHKohvxkHvs,,,,,,,,,,,
,,,,,,,,,,,,,,p,1,3.492,space,0.42,0,28,28,31,1,3_dist_red/trial7.png,,,1,3,redHorizontal,p,97,70,male,2021-02-25_09h21.24.017,exp11,2020.2.6,Win32,60,IwAR3mkXheuWjJbMbaCX9Cngpz4bh3hxRhD6RYQH4XzkJw8jaGLHKohvxkHvs,,,,,,,,,,,
,,,,,,,,,,,,,,p,1,1.083,space,0.368,0,29,29,67,1,9_dist_red/trial18.png,,,1,9,redHorizontal,p,97,70,male,2021-02-25_09h21.24.017,exp11,2020.2.6,Win32,60,IwAR3mkXheuWjJbMbaCX9Cngpz4bh3hxRhD6RYQH4XzkJw8jaGLHKohvxkHvs,,,,,,,,,,,
,,,,,,,,,,,,,,a,1,1.301,space,0.319,0,30,30,185,1,0_targ_16_dist_red/trial11.png,,,0,16,redHorizontal,a,97,70,male,2021-02-25_09h21.24.017,exp11,2020.2.6,Win32,60,IwAR3mkXheuWjJbMbaCX9Cngpz4bh3hxRhD6RYQH4XzkJw8jaGLHKohvxkHvs,,,,,,,,,,,
,,,,,,,,,,,,,,a,1,2.17,space,0.551,0,31,31,181,1,0_targ_16_dist_red/trial7.png,,,0,16,redHorizontal,a,97,70,male,2021-02-25_09h21.24.017,exp11,2020.2.6,Win32,60,IwAR3mkXheuWjJbMbaCX9Cngpz4bh3hxRhD6RYQH4XzkJw8jaGLHKohvxkHvs,,,,,,,,,,,
,,,,,,,,,,,,,,p,1,2.027,space,0.339,0,32,32,74,1,9_dist_red/trial25.png,,,1,9,redHorizontal,p,97,70,male,2021-02-25_09h21.24.017,exp11,2020.2.6,Win32,60,IwAR3mkXheuWjJbMbaCX9Cngpz4bh3hxRhD6RYQH4XzkJw8jaGLHKohvxkHvs,,,,,,,,,,,
,,,,,,,,,,,,,,p,1,1.406,space,0.287,0,33,33,81,1,15_dist_red/trial7.png,,,1,15,redHorizontal,p,97,70,male,2021-02-25_09h21.24.017,exp11,2020.2.6,Win32,60,IwAR3mkXheuWjJbMbaCX9Cngpz4bh3hxRhD6RYQH4XzkJw8jaGLHKohvxkHvs,,,,,,,,,,,
,,,,,,,,,,,,,,p,1,1.192,space,0.316,0,34,34,27,1,3_dist_red/trial3.png,,,1,3,redHorizontal,p,97,70,male,2021-02-25_09h21.24.017,exp11,2020.2.6,Win32,60,IwAR3mkXheuWjJbMbaCX9Cngpz4bh3hxRhD6RYQH4XzkJw8jaGLHKohvxkHvs,,,,,,,,,,,
,,,,,,,,,,,,,,p,1,0.921,space,0.351,0,35,35,8,1,0_dist_red/trial9.png,,,1,0,redHorizontal,p,97,70,male,2021-02-25_09h21.24.017,exp11,2020.2.6,Win32,60,IwAR3mkXheuWjJbMbaCX9Cngpz4bh3hxRhD6RYQH4XzkJw8jaGLHKohvxkHvs,,,,,,,,,,,
,,,,,,,,,,,,,,p,1,1.36,space,0.318,0,36,36,72,1,9_dist_red/trial23.png,,,1,9,redHorizontal,p,97,70,male,2021-02-25_09h21.24.017,exp11,2020.2.6,Win32,60,IwAR3mkXheuWjJbMbaCX9Cngpz4bh3hxRhD6RYQH4XzkJw8jaGLHKohvxkHvs,,,,,,,,,,,
,,,,,,,,,,,,,,a,1,1.58,space,0.42,0,37,37,178,1,0_targ_16_dist_red/trial4.png,,,0,16,redHorizontal,a,97,70,male,2021-02-25_09h21.24.017,exp11,2020.2.6,Win32,60,IwAR3mkXheuWjJbMbaCX9Cngpz4bh3hxRhD6RYQH4XzkJw8jaGLHKohvxkHvs,,,,,,,,,,,
,,,,,,,,,,,,,,a,1,1.22,space,0.353,0,38,38,191,1,0_targ_16_dist_red/trial17.png,,,0,16,redHorizontal,a,97,70,male,2021-02-25_09h21.24.017,exp11,2020.2.6,Win32,60,IwAR3mkXheuWjJbMbaCX9Cngpz4bh3hxRhD6RYQH4XzkJw8jaGLHKohvxkHvs,,,,,,,,,,,
,,,,,,,,,,,,,,p,1,1.223,space,0.355,0,39,39,86,1,15_dist_red/trial12.png,,,1,15,redHorizontal,p,97,70,male,2021-02-25_09h21.24.017,exp11,2020.2.6,Win32,60,IwAR3mkXheuWjJbMbaCX9Cngpz4bh3hxRhD6RYQH4XzkJw8jaGLHKohvxkHvs,,,,,,,,,,,
,,,,,,,,,,,,,,p,1,1.171,space,0.32,0,40,40,62,1,9_dist_red/trial13.png,,,1,9,redHorizontal,p,97,70,male,2021-02-25_09h21.24.017,exp11,2020.2.6,Win32,60,IwAR3mkXheuWjJbMbaCX9Cngpz4bh3hxRhD6RYQH4XzkJw8jaGLHKohvxkHvs,,,,,,,,,,,
,,,,,,,,,,,,,,p,1,1.198,space,0.375,0,41,41,85,1,15_dist_red/trial11.png,,,1,15,redHorizontal,p,97,70,male,2021-02-25_09h21.24.017,exp11,2020.2.6,Win32,60,IwAR3mkXheuWjJbMbaCX9Cngpz4bh3hxRhD6RYQH4XzkJw8jaGLHKohvxkHvs,,,,,,,,,,,
,,,,,,,,,,,,,,a,1,1.028,space,0.334,0,42,42,137,1,0_targ_4_dist_red/trial13.png,,,0,4,redHorizontal,a,97,70,male,2021-02-25_09h21.24.017,exp11,2020.2.6,Win32,60,IwAR3mkXheuWjJbMbaCX9Cngpz4bh3hxRhD6RYQH4XzkJw8jaGLHKohvxkHvs,,,,,,,,,,,
,,,,,,,,,,,,,,a,1,3.603,space,0.436,0,43,43,157,1,0_targ_10_dist_red/trial8.png,,,0,10,redHorizontal,a,97,70,male,2021-02-25_09h21.24.017,exp11,2020.2.6,Win32,60,IwAR3mkXheuWjJbMbaCX9Cngpz4bh3hxRhD6RYQH4XzkJw8jaGLHKohvxkHvs,,,,,,,,,,,
,,,,,,,,,,,,,,a,1,1.232,space,0.376,0,44,44,134,1,0_targ_4_dist_red/trial10.png,,,0,4,redHorizontal,a,97,70,male,2021-02-25_09h21.24.017,exp11,2020.2.6,Win32,60,IwAR3mkXheuWjJbMbaCX9Cngpz4bh3hxRhD6RYQH4XzkJw8jaGLHKohvxkHvs,,,,,,,,,,,
,,,,,,,,,,,,,,p,1,1.129,space,0.285,0,45,45,42,1,3_dist_red/trial18.png,,,1,3,redHorizontal,p,97,70,male,2021-02-25_09h21.24.017,exp11,2020.2.6,Win32,60,IwAR3mkXheuWjJbMbaCX9Cngpz4bh3hxRhD6RYQH4XzkJw8jaGLHKohvxkHvs,,,,,,,,,,,
,,,,,,,,,,,,,,p,1,1.14,space,0.334,0,46,46,44,1,3_dist_red/trial20.png,,,1,3,redHorizontal,p,97,70,male,2021-02-25_09h21.24.017,exp11,2020.2.6,Win32,60,IwAR3mkXheuWjJbMbaCX9Cngpz4bh3hxRhD6RYQH4XzkJw8jaGLHKohvxkHvs,,,,,,,,,,,
,,,,,,,,,,,,,,p,1,1.081,space,0.385,0,47,47,58,1,9_dist_red/trial9.png,,,1,9,redHorizontal,p,97,70,male,2021-02-25_09h21.24.017,exp11,2020.2.6,Win32,60,IwAR3mkXheuWjJbMbaCX9Cngpz4bh3hxRhD6RYQH4XzkJw8jaGLHKohvxkHvs,,,,,,,,,,,
,,,,,,,,,,,,,,a,1,1.241,space,0.352,0,48,48,125,1,0_targ_4_dist_red/trial1.png,,,0,4,redHorizontal,a,97,70,male,2021-02-25_09h21.24.017,exp11,2020.2.6,Win32,60,IwAR3mkXheuWjJbMbaCX9Cngpz4bh3hxRhD6RYQH4XzkJw8jaGLHKohvxkHvs,,,,,,,,,,,
,,,,,,,,,,,,,,p,1,1.667,space,0.352,0,49,49,53,1,9_dist_red/trial4.png,,,1,9,redHorizontal,p,97,70,male,2021-02-25_09h21.24.017,exp11,2020.2.6,Win32,60,IwAR3mkXheuWjJbMbaCX9Cngpz4bh3hxRhD6RYQH4XzkJw8jaGLHKohvxkHvs,,,,,,,,,,,
,,,,,,,,,,,,,,a,1,1.99,space,0.388,0,50,50,105,1,0_targ_1_dist_red/trial6.png,,,0,1,redHorizontal,a,97,70,male,2021-02-25_09h21.24.017,exp11,2020.2.6,Win32,60,IwAR3mkXheuWjJbMbaCX9Cngpz4bh3hxRhD6RYQH4XzkJw8jaGLHKohvxkHvs,,,,,,,,,,,
,,,,,,,,,,,,,,a,1,1.659,space,0.487,0,51,51,151,1,0_targ_10_dist_red/trial2.png,,,0,10,redHorizontal,a,97,70,male,2021-02-25_09h21.24.017,exp11,2020.2.6,Win32,60,IwAR3mkXheuWjJbMbaCX9Cngpz4bh3hxRhD6RYQH4XzkJw8jaGLHKohvxkHvs,,,,,,,,,,,
,,,,,,,,,,,,,,a,1,1.229,space,0.386,0,52,52,108,1,0_targ_1_dist_red/trial9.png,,,0,1,redHorizontal,a,97,70,male,2021-02-25_09h21.24.017,exp11,2020.2.6,Win32,60,IwAR3mkXheuWjJbMbaCX9Cngpz4bh3hxRhD6RYQH4XzkJw8jaGLHKohvxkHvs,,,,,,,,,,,
,,,,,,,,,,,,,,a,1,5.205,space,0.518,0,53,53,169,1,0_targ_10_dist_red/trial20.png,,,0,10,redHorizontal,a,97,70,male,2021-02-25_09h21.24.017,exp11,2020.2.6,Win32,60,IwAR3mkXheuWjJbMbaCX9Cngpz4bh3hxRhD6RYQH4XzkJw8jaGLHKohvxkHvs,,,,,,,,,,,
,,,,,,,,,,,,,,p,1,3.81,space,0.335,0,54,54,14,1,0_dist_red/trial15.png,,,1,0,redHorizontal,p,97,70,male,2021-02-25_09h21.24.017,exp11,2020.2.6,Win32,60,IwAR3mkXheuWjJbMbaCX9Cngpz4bh3hxRhD6RYQH4XzkJw8jaGLHKohvxkHvs,,,,,,,,,,,
,,,,,,,,,,,,,,p,1,1.934,space,0.318,0,55,55,55,1,9_dist_red/trial6.png,,,1,9,redHorizontal,p,97,70,male,2021-02-25_09h21.24.017,exp11,2020.2.6,Win32,60,IwAR3mkXheuWjJbMbaCX9Cngpz4bh3hxRhD6RYQH4XzkJw8jaGLHKohvxkHvs,,,,,,,,,,,
,,,,,,,,,,,,,,a,1,1.327,space,0.318,0,56,56,143,1,0_targ_4_dist_red/trial19.png,,,0,4,redHorizontal,a,97,70,male,2021-02-25_09h21.24.017,exp11,2020.2.6,Win32,60,IwAR3mkXheuWjJbMbaCX9Cngpz4bh3hxRhD6RYQH4XzkJw8jaGLHKohvxkHvs,,,,,,,,,,,
,,,,,,,,,,,,,,a,1,1.718,space,0.354,0,57,57,174,1,0_targ_10_dist_red/trial25.png,,,0,10,redHorizontal,a,97,70,male,2021-02-25_09h21.24.017,exp11,2020.2.6,Win32,60,IwAR3mkXheuWjJbMbaCX9Cngpz4bh3hxRhD6RYQH4XzkJw8jaGLHKohvxkHvs,,,,,,,,,,,
,,,,,,,,,,,,,,a,1,1.315,space,0.318,0,58,58,131,1,0_targ_4_dist_red/trial7.png,,,0,4,redHorizontal,a,97,70,male,2021-02-25_09h21.24.017,exp11,2020.2.6,Win32,60,IwAR3mkXheuWjJbMbaCX9Cngpz4bh3hxRhD6RYQH4XzkJw8jaGLHKohvxkHvs,,,,,,,,,,,
,,,,,,,,,,,,,,p,1,1.643,space,0.316,0,59,59,71,1,9_dist_red/trial22.png,,,1,9,redHorizontal,p,97,70,male,2021-02-25_09h21.24.017,exp11,2020.2.6,Win32,60,IwAR3mkXheuWjJbMbaCX9Cngpz4bh3hxRhD6RYQH4XzkJw8jaGLHKohvxkHvs,,,,,,,,,,,
,,,,,,,,,,,,,,a,1,1.194,space,0.321,0,60,60,139,1,0_targ_4_dist_red/trial15.png,,,0,4,redHorizontal,a,97,70,male,2021-02-25_09h21.24.017,exp11,2020.2.6,Win32,60,IwAR3mkXheuWjJbMbaCX9Cngpz4bh3hxRhD6RYQH4XzkJw8jaGLHKohvxkHvs,,,,,,,,,,,
,,,,,,,,,,,,,,a,1,1.207,space,0.271,0,61,61,116,1,0_targ_1_dist_red/trial17.png,,,0,1,redHorizontal,a,97,70,male,2021-02-25_09h21.24.017,exp11,2020.2.6,Win32,60,IwAR3mkXheuWjJbMbaCX9Cngpz4bh3hxRhD6RYQH4XzkJw8jaGLHKohvxkHvs,,,,,,,,,,,
,,,,,,,,,,,,,,a,1,1.405,space,0.285,0,62,62,183,1,0_targ_16_dist_red/trial9.png,,,0,16,redHorizontal,a,97,70,male,2021-02-25_09h21.24.017,exp11,2020.2.6,Win32,60,IwAR3mkXheuWjJbMbaCX9Cngpz4bh3hxRhD6RYQH4XzkJw8jaGLHKohvxkHvs,,,,,,,,,,,
,,,,,,,,,,,,,,a,1,1.24,space,0.272,0,63,63,167,1,0_targ_10_dist_red/trial18.png,,,0,10,redHorizontal,a,97,70,male,2021-02-25_09h21.24.017,exp11,2020.2.6,Win32,60,IwAR3mkXheuWjJbMbaCX9Cngpz4bh3hxRhD6RYQH4XzkJw8jaGLHKohvxkHvs,,,,,,,,,,,
,,,,,,,,,,,,,,a,1,1.116,space,0.284,0,64,64,196,1,0_targ_16_dist_red/trial22.png,,,0,16,redHorizontal,a,97,70,male,2021-02-25_09h21.24.017,exp11,2020.2.6,Win32,60,IwAR3mkXheuWjJbMbaCX9Cngpz4bh3hxRhD6RYQH4XzkJw8jaGLHKohvxkHvs,,,,,,,,,,,
,,,,,,,,,,,,,,a,1,1.432,space,0.286,0,65,65,177,1,0_targ_16_dist_red/trial3.png,,,0,16,redHorizontal,a,97,70,male,2021-02-25_09h21.24.017,exp11,2020.2.6,Win32,60,IwAR3mkXheuWjJbMbaCX9Cngpz4bh3hxRhD6RYQH4XzkJw8jaGLHKohvxkHvs,,,,,,,,,,,
,,,,,,,,,,,,,,p,1,1.04,space,0.239,0,66,66,11,1,0_dist_red/trial12.png,,,1,0,redHorizontal,p,97,70,male,2021-02-25_09h21.24.017,exp11,2020.2.6,Win32,60,IwAR3mkXheuWjJbMbaCX9Cngpz4bh3hxRhD6RYQH4XzkJw8jaGLHKohvxkHvs,,,,,,,,,,,
,,,,,,,,,,,,,,p,1,1.013,space,0.286,0,67,67,15,1,0_dist_red/trial16.png,,,1,0,redHorizontal,p,97,70,male,2021-02-25_09h21.24.017,exp11,2020.2.6,Win32,60,IwAR3mkXheuWjJbMbaCX9Cngpz4bh3hxRhD6RYQH4XzkJw8jaGLHKohvxkHvs,,,,,,,,,,,
,,,,,,,,,,,,,,p,1,1.691,space,0.304,0,68,68,73,1,9_dist_red/trial24.png,,,1,9,redHorizontal,p,97,70,male,2021-02-25_09h21.24.017,exp11,2020.2.6,Win32,60,IwAR3mkXheuWjJbMbaCX9Cngpz4bh3hxRhD6RYQH4XzkJw8jaGLHKohvxkHvs,,,,,,,,,,,
,,,,,,,,,,,,,,p,1,1.077,space,1.454,0,69,69,40,1,3_dist_red/trial16.png,,,1,3,redHorizontal,p,97,70,male,2021-02-25_09h21.24.017,exp11,2020.2.6,Win32,60,IwAR3mkXheuWjJbMbaCX9Cngpz4bh3hxRhD6RYQH4XzkJw8jaGLHKohvxkHvs,,,,,,,,,,,
,,,,,,,,,,,,,,p,1,2.979,space,0.386,0,70,70,60,1,9_dist_red/trial11.png,,,1,9,redHorizontal,p,97,70,male,2021-02-25_09h21.24.017,exp11,2020.2.6,Win32,60,IwAR3mkXheuWjJbMbaCX9Cngpz4bh3hxRhD6RYQH4XzkJw8jaGLHKohvxkHvs,,,,,,,,,,,
,,,,,,,,,,,,,,p,1,1.179,space,0.269,0,71,71,48,1,3_dist_red/trial24.png,,,1,3,redHorizontal,p,97,70,male,2021-02-25_09h21.24.017,exp11,2020.2.6,Win32,60,IwAR3mkXheuWjJbMbaCX9Cngpz4bh3hxRhD6RYQH4XzkJw8jaGLHKohvxkHvs,,,,,,,,,,,
,,,,,,,,,,,,,,a,1,1.112,space,0.302,0,72,72,117,1,0_targ_1_dist_red/trial18.png,,,0,1,redHorizontal,a,97,70,male,2021-02-25_09h21.24.017,exp11,2020.2.6,Win32,60,IwAR3mkXheuWjJbMbaCX9Cngpz4bh3hxRhD6RYQH4XzkJw8jaGLHKohvxkHvs,,,,,,,,,,,
,,,,,,,,,,,,,,p,1,0.994,space,0.268,0,73,73,17,1,0_dist_red/trial18.png,,,1,0,redHorizontal,p,97,70,male,2021-02-25_09h21.24.017,exp11,2020.2.6,Win32,60,IwAR3mkXheuWjJbMbaCX9Cngpz4bh3hxRhD6RYQH4XzkJw8jaGLHKohvxkHvs,,,,,,,,,,,
,,,,,,,,,,,,,,a,1,2.09,space,0.389,0,74,74,163,1,0_targ_10_dist_red/trial14.png,,,0,10,redHorizontal,a,97,70,male,2021-02-25_09h21.24.017,exp11,2020.2.6,Win32,60,IwAR3mkXheuWjJbMbaCX9Cngpz4bh3hxRhD6RYQH4XzkJw8jaGLHKohvxkHvs,,,,,,,,,,,
,,,,,,,,,,,,,,a,1,1.302,space,0.274,0,75,75,104,1,0_targ_1_dist_red/trial5.png,,,0,1,redHorizontal,a,97,70,male,2021-02-25_09h21.24.017,exp11,2020.2.6,Win32,60,IwAR3mkXheuWjJbMbaCX9Cngpz4bh3hxRhD6RYQH4XzkJw8jaGLHKohvxkHvs,,,,,,,,,,,
,,,,,,,,,,,,,,p,1,1.4,space,0.271,0,76,76,2,1,0_dist_red/trial3.png,,,1,0,redHorizontal,p,97,70,male,2021-02-25_09h21.24.017,exp11,2020.2.6,Win32,60,IwAR3mkXheuWjJbMbaCX9Cngpz4bh3hxRhD6RYQH4XzkJw8jaGLHKohvxkHvs,,,,,,,,,,,
,,,,,,,,,,,,,,p,1,0.971,space,0.272,0,77,77,57,1,9_dist_red/trial8.png,,,1,9,redHorizontal,p,97,70,male,2021-02-25_09h21.24.017,exp11,2020.2.6,Win32,60,IwAR3mkXheuWjJbMbaCX9Cngpz4bh3hxRhD6RYQH4XzkJw8jaGLHKohvxkHvs,,,,,,,,,,,
,,,,,,,,,,,,,,p,1,1.114,space,0.268,0,78,78,97,1,15_dist_red/trial23.png,,,1,15,redHorizontal,p,97,70,male,2021-02-25_09h21.24.017,exp11,2020.2.6,Win32,60,IwAR3mkXheuWjJbMbaCX9Cngpz4bh3hxRhD6RYQH4XzkJw8jaGLHKohvxkHvs,,,,,,,,,,,
,,,,,,,,,,,,,,a,1,1.214,space,0.318,0,79,79,149,1,0_targ_4_dist_red/trial25.png,,,0,4,redHorizontal,a,97,70,male,2021-02-25_09h21.24.017,exp11,2020.2.6,Win32,60,IwAR3mkXheuWjJbMbaCX9Cngpz4bh3hxRhD6RYQH4XzkJw8jaGLHKohvxkHvs,,,,,,,,,,,
,,,,,,,,,,,,,,a,1,1.346,space,0.286,0,80,80,168,1,0_targ_10_dist_red/trial19.png,,,0,10,redHorizontal,a,97,70,male,2021-02-25_09h21.24.017,exp11,2020.2.6,Win32,60,IwAR3mkXheuWjJbMbaCX9Cngpz4bh3hxRhD6RYQH4XzkJw8jaGLHKohvxkHvs,,,,,,,,,,,
,,,,,,,,,,,,,,p,1,1.12,space,0.286,0,81,81,82,1,15_dist_red/trial8.png,,,1,15,redHorizontal,p,97,70,male,2021-02-25_09h21.24.017,exp11,2020.2.6,Win32,60,IwAR3mkXheuWjJbMbaCX9Cngpz4bh3hxRhD6RYQH4XzkJw8jaGLHKohvxkHvs,,,,,,,,,,,
,,,,,,,,,,,,,,a,1,1.064,space,0.277,0,82,82,128,1,0_targ_4_dist_red/trial4.png,,,0,4,redHorizontal,a,97,70,male,2021-02-25_09h21.24.017,exp11,2020.2.6,Win32,60,IwAR3mkXheuWjJbMbaCX9Cngpz4bh3hxRhD6RYQH4XzkJw8jaGLHKohvxkHvs,,,,,,,,,,,
,,,,,,,,,,,,,,a,1,1.652,space,0.286,0,83,83,148,1,0_targ_4_dist_red/trial24.png,,,0,4,redHorizontal,a,97,70,male,2021-02-25_09h21.24.017,exp11,2020.2.6,Win32,60,IwAR3mkXheuWjJbMbaCX9Cngpz4bh3hxRhD6RYQH4XzkJw8jaGLHKohvxkHvs,,,,,,,,,,,
,,,,,,,,,,,,,,p,1,1.449,space,0.257,0,84,84,3,1,0_dist_red/trial4.png,,,1,0,redHorizontal,p,97,70,male,2021-02-25_09h21.24.017,exp11,2020.2.6,Win32,60,IwAR3mkXheuWjJbMbaCX9Cngpz4bh3hxRhD6RYQH4XzkJw8jaGLHKohvxkHvs,,,,,,,,,,,
,,,,,,,,,,,,,,p,1,0.896,space,0.223,0,85,85,10,1,0_dist_red/trial11.png,,,1,0,redHorizontal,p,97,70,male,2021-02-25_09h21.24.017,exp11,2020.2.6,Win32,60,IwAR3mkXheuWjJbMbaCX9Cngpz4bh3hxRhD6RYQH4XzkJw8jaGLHKohvxkHvs,,,,,,,,,,,
,,,,,,,,,,,,,,a,1,1.402,space,0.267,0,86,86,164,1,0_targ_10_dist_red/trial15.png,,,0,10,redHorizontal,a,97,70,male,2021-02-25_09h21.24.017,exp11,2020.2.6,Win32,60,IwAR3mkXheuWjJbMbaCX9Cngpz4bh3hxRhD6RYQH4XzkJw8jaGLHKohvxkHvs,,,,,,,,,,,
,,,,,,,,,,,,,,a,1,2.342,space,0.555,0,87,87,102,1,0_targ_1_dist_red/trial3.png,,,0,1,redHorizontal,a,97,70,male,2021-02-25_09h21.24.017,exp11,2020.2.6,Win32,60,IwAR3mkXheuWjJbMbaCX9Cngpz4bh3hxRhD6RYQH4XzkJw8jaGLHKohvxkHvs,,,,,,,,,,,
,,,,,,,,,,,,,,p,1,1.076,space,0.255,0,88,88,46,1,3_dist_red/trial22.png,,,1,3,redHorizontal,p,97,70,male,2021-02-25_09h21.24.017,exp11,2020.2.6,Win32,60,IwAR3mkXheuWjJbMbaCX9Cngpz4bh3hxRhD6RYQH4XzkJw8jaGLHKohvxkHvs,,,,,,,,,,,
,,,,,,,,,,,,,,p,1,0.981,space,0.268,0,89,89,9,1,0_dist_red/trial10.png,,,1,0,redHorizontal,p,97,70,male,2021-02-25_09h21.24.017,exp11,2020.2.6,Win32,60,IwAR3mkXheuWjJbMbaCX9Cngpz4bh3hxRhD6RYQH4XzkJw8jaGLHKohvxkHvs,,,,,,,,,,,
,,,,,,,,,,,,,,p,1,0.911,space,0.751,0,90,90,39,1,3_dist_red/trial15.png,,,1,3,redHorizontal,p,97,70,male,2021-02-25_09h21.24.017,exp11,2020.2.6,Win32,60,IwAR3mkXheuWjJbMbaCX9Cngpz4bh3hxRhD6RYQH4XzkJw8jaGLHKohvxkHvs,,,,,,,,,,,
,,,,,,,,,,,,,,p,1,0.899,space,0.252,0,91,91,4,1,0_dist_red/trial5.png,,,1,0,redHorizontal,p,97,70,male,2021-02-25_09h21.24.017,exp11,2020.2.6,Win32,60,IwAR3mkXheuWjJbMbaCX9Cngpz4bh3hxRhD6RYQH4XzkJw8jaGLHKohvxkHvs,,,,,,,,,,,
,,,,,,,,,,,,,,a,1,1.162,space,0.287,0,92,92,165,1,0_targ_10_dist_red/trial16.png,,,0,10,redHorizontal,a,97,70,male,2021-02-25_09h21.24.017,exp11,2020.2.6,Win32,60,IwAR3mkXheuWjJbMbaCX9Cngpz4bh3hxRhD6RYQH4XzkJw8jaGLHKohvxkHvs,,,,,,,,,,,
,,,,,,,,,,,,,,a,1,1.558,space,0.289,0,93,93,161,1,0_targ_10_dist_red/trial12.png,,,0,10,redHorizontal,a,97,70,male,2021-02-25_09h21.24.017,exp11,2020.2.6,Win32,60,IwAR3mkXheuWjJbMbaCX9Cngpz4bh3hxRhD6RYQH4XzkJw8jaGLHKohvxkHvs,,,,,,,,,,,
,,,,,,,,,,,,,,a,1,1.272,space,0.406,0,94,94,145,1,0_targ_4_dist_red/trial21.png,,,0,4,redHorizontal,a,97,70,male,2021-02-25_09h21.24.017,exp11,2020.2.6,Win32,60,IwAR3mkXheuWjJbMbaCX9Cngpz4bh3hxRhD6RYQH4XzkJw8jaGLHKohvxkHvs,,,,,,,,,,,
,,,,,,,,,,,,,,p,1,0.986,space,0.3,0,95,95,38,1,3_dist_red/trial14.png,,,1,3,redHorizontal,p,97,70,male,2021-02-25_09h21.24.017,exp11,2020.2.6,Win32,60,IwAR3mkXheuWjJbMbaCX9Cngpz4bh3hxRhD6RYQH4XzkJw8jaGLHKohvxkHvs,,,,,,,,,,,
,,,,,,,,,,,,,,a,1,1.32,space,0.259,0,96,96,130,1,0_targ_4_dist_red/trial6.png,,,0,4,redHorizontal,a,97,70,male,2021-02-25_09h21.24.017,exp11,2020.2.6,Win32,60,IwAR3mkXheuWjJbMbaCX9Cngpz4bh3hxRhD6RYQH4XzkJw8jaGLHKohvxkHvs,,,,,,,,,,,
,,,,,,,,,,,,,,a,1,1.726,space,0.954,0,97,97,195,1,0_targ_16_dist_red/trial21.png,,,0,16,redHorizontal,a,97,70,male,2021-02-25_09h21.24.017,exp11,2020.2.6,Win32,60,IwAR3mkXheuWjJbMbaCX9Cngpz4bh3hxRhD6RYQH4XzkJw8jaGLHKohvxkHvs,,,,,,,,,,,
,,,,,,,,,,,,,,p,1,1.686,space,0.256,0,98,98,6,1,0_dist_red/trial7.png,,,1,0,redHorizontal,p,97,70,male,2021-02-25_09h21.24.017,exp11,2020.2.6,Win32,60,IwAR3mkXheuWjJbMbaCX9Cngpz4bh3hxRhD6RYQH4XzkJw8jaGLHKohvxkHvs,,,,,,,,,,,
,,,,,,,,,,,,,,a,1,1.127,space,0.267,0,99,99,156,1,0_targ_10_dist_red/trial7.png,,,0,10,redHorizontal,a,97,70,male,2021-02-25_09h21.24.017,exp11,2020.2.6,Win32,60,IwAR3mkXheuWjJbMbaCX9Cngpz4bh3hxRhD6RYQH4XzkJw8jaGLHKohvxkHvs,,,,,,,,,,,
,,,,,,,,,,,,,,p,1,1.571,space,0.249,0,100,100,70,1,9_dist_red/trial21.png,,,1,9,redHorizontal,p,97,70,male,2021-02-25_09h21.24.017,exp11,2020.2.6,Win32,60,IwAR3mkXheuWjJbMbaCX9Cngpz4bh3hxRhD6RYQH4XzkJw8jaGLHKohvxkHvs,,,,,,,,,,,
,,,,,,,,,,,,,,p,1,1.17,space,0.306,0,101,101,63,1,9_dist_red/trial14.png,,,1,9,redHorizontal,p,97,70,male,2021-02-25_09h21.24.017,exp11,2020.2.6,Win32,60,IwAR3mkXheuWjJbMbaCX9Cngpz4bh3hxRhD6RYQH4XzkJw8jaGLHKohvxkHvs,,,,,,,,,,,
,,,,,,,,,,,,,,a,1,1.373,space,0.285,0,102,102,124,1,0_targ_1_dist_red/trial25.png,,,0,1,redHorizontal,a,97,70,male,2021-02-25_09h21.24.017,exp11,2020.2.6,Win32,60,IwAR3mkXheuWjJbMbaCX9Cngpz4bh3hxRhD6RYQH4XzkJw8jaGLHKohvxkHvs,,,,,,,,,,,
,,,,,,,,,,,,,,p,1,1.329,space,0.301,0,103,103,22,1,0_dist_red/trial23.png,,,1,0,redHorizontal,p,97,70,male,2021-02-25_09h21.24.017,exp11,2020.2.6,Win32,60,IwAR3mkXheuWjJbMbaCX9Cngpz4bh3hxRhD6RYQH4XzkJw8jaGLHKohvxkHvs,,,,,,,,,,,
,,,,,,,,,,,,,,p,1,1.136,space,0.234,0,104,104,49,1,3_dist_red/trial25.png,,,1,3,redHorizontal,p,97,70,male,2021-02-25_09h21.24.017,exp11,2020.2.6,Win32,60,IwAR3mkXheuWjJbMbaCX9Cngpz4bh3hxRhD6RYQH4XzkJw8jaGLHKohvxkHvs,,,,,,,,,,,
,,,,,,,,,,,,,,a,1,2.696,space,0.984,0,105,105,192,1,0_targ_16_dist_red/trial18.png,,,0,16,redHorizontal,a,97,70,male,2021-02-25_09h21.24.017,exp11,2020.2.6,Win32,60,IwAR3mkXheuWjJbMbaCX9Cngpz4bh3hxRhD6RYQH4XzkJw8jaGLHKohvxkHvs,,,,,,,,,,,
,,,,,,,,,,,,,,a,1,1.692,space,0.309,0,106,106,189,1,0_targ_16_dist_red/trial15.png,,,0,16,redHorizontal,a,97,70,male,2021-02-25_09h21.24.017,exp11,2020.2.6,Win32,60,IwAR3mkXheuWjJbMbaCX9Cngpz4bh3hxRhD6RYQH4XzkJw8jaGLHKohvxkHvs,,,,,,,,,,,
,,,,,,,,,,,,,,p,1,1.363,space,0.301,0,107,107,50,1,9_dist_red/trial1.png,,,1,9,redHorizontal,p,97,70,male,2021-02-25_09h21.24.017,exp11,2020.2.6,Win32,60,IwAR3mkXheuWjJbMbaCX9Cngpz4bh3hxRhD6RYQH4XzkJw8jaGLHKohvxkHvs,,,,,,,,,,,
,,,,,,,,,,,,,,a,1,1.257,space,0.302,0,108,108,176,1,0_targ_16_dist_red/trial2.png,,,0,16,redHorizontal,a,97,70,male,2021-02-25_09h21.24.017,exp11,2020.2.6,Win32,60,IwAR3mkXheuWjJbMbaCX9Cngpz4bh3hxRhD6RYQH4XzkJw8jaGLHKohvxkHvs,,,,,,,,,,,
,,,,,,,,,,,,,,a,1,1.518,space,0.302,0,109,109,119,1,0_targ_1_dist_red/trial20.png,,,0,1,redHorizontal,a,97,70,male,2021-02-25_09h21.24.017,exp11,2020.2.6,Win32,60,IwAR3mkXheuWjJbMbaCX9Cngpz4bh3hxRhD6RYQH4XzkJw8jaGLHKohvxkHvs,,,,,,,,,,,
,,,,,,,,,,,,,,a,1,1.562,space,0.471,0,110,110,180,1,0_targ_16_dist_red/trial6.png,,,0,16,redHorizontal,a,97,70,male,2021-02-25_09h21.24.017,exp11,2020.2.6,Win32,60,IwAR3mkXheuWjJbMbaCX9Cngpz4bh3hxRhD6RYQH4XzkJw8jaGLHKohvxkHvs,,,,,,,,,,,
,,,,,,,,,,,,,,p,1,1.286,space,0.271,0,111,111,64,1,9_dist_red/trial15.png,,,1,9,redHorizontal,p,97,70,male,2021-02-25_09h21.24.017,exp11,2020.2.6,Win32,60,IwAR3mkXheuWjJbMbaCX9Cngpz4bh3hxRhD6RYQH4XzkJw8jaGLHKohvxkHvs,,,,,,,,,,,
,,,,,,,,,,,,,,a,1,1.198,space,0.302,0,112,112,100,1,0_targ_1_dist_red/trial1.png,,,0,1,redHorizontal,a,97,70,male,2021-02-25_09h21.24.017,exp11,2020.2.6,Win32,60,IwAR3mkXheuWjJbMbaCX9Cngpz4bh3hxRhD6RYQH4XzkJw8jaGLHKohvxkHvs,,,,,,,,,,,
,,,,,,,,,,,,,,a,1,2.43,space,0.868,0,113,113,123,1,0_targ_1_dist_red/trial24.png,,,0,1,redHorizontal,a,97,70,male,2021-02-25_09h21.24.017,exp11,2020.2.6,Win32,60,IwAR3mkXheuWjJbMbaCX9Cngpz4bh3hxRhD6RYQH4XzkJw8jaGLHKohvxkHvs,,,,,,,,,,,
,,,,,,,,,,,,,,a,1,1.493,space,0.453,0,114,114,140,1,0_targ_4_dist_red/trial6.png,,,0,4,redHorizontal,a,97,70,male,2021-02-25_09h21.24.017,exp11,2020.2.6,Win32,60,IwAR3mkXheuWjJbMbaCX9Cngpz4bh3hxRhD6RYQH4XzkJw8jaGLHKohvxkHvs,,,,,,,,,,,
,,,,,,,,,,,,,,a,1,0.905,space,0.29,0,115,115,138,1,0_targ_4_dist_red/trial14.png,,,0,4,redHorizontal,a,97,70,male,2021-02-25_09h21.24.017,exp11,2020.2.6,Win32,60,IwAR3mkXheuWjJbMbaCX9Cngpz4bh3hxRhD6RYQH4XzkJw8jaGLHKohvxkHvs,,,,,,,,,,,
,,,,,,,,,,,,,,p,1,1.311,space,0.403,0,116,116,77,1,15_dist_red/trial3.png,,,1,15,redHorizontal,p,97,70,male,2021-02-25_09h21.24.017,exp11,2020.2.6,Win32,60,IwAR3mkXheuWjJbMbaCX9Cngpz4bh3hxRhD6RYQH4XzkJw8jaGLHKohvxkHvs,,,,,,,,,,,
,,,,,,,,,,,,,,a,1,1.428,space,0.325,0,117,117,179,1,0_targ_16_dist_red/trial5.png,,,0,16,redHorizontal,a,97,70,male,2021-02-25_09h21.24.017,exp11,2020.2.6,Win32,60,IwAR3mkXheuWjJbMbaCX9Cngpz4bh3hxRhD6RYQH4XzkJw8jaGLHKohvxkHvs,,,,,,,,,,,
,,,,,,,,,,,,,,a,1,1.14,space,0.337,0,118,118,118,1,0_targ_1_dist_red/trial19.png,,,0,1,redHorizontal,a,97,70,male,2021-02-25_09h21.24.017,exp11,2020.2.6,Win32,60,IwAR3mkXheuWjJbMbaCX9Cngpz4bh3hxRhD6RYQH4XzkJw8jaGLHKohvxkHvs,,,,,,,,,,,
,,,,,,,,,,,,,,p,1,1.478,space,0.273,0,119,119,66,1,9_dist_red/trial17.png,,,1,9,redHorizontal,p,97,70,male,2021-02-25_09h21.24.017,exp11,2020.2.6,Win32,60,IwAR3mkXheuWjJbMbaCX9Cngpz4bh3hxRhD6RYQH4XzkJw8jaGLHKohvxkHvs,,,,,,,,,,,
,,,,,,,,,,,,,,a,1,1.134,space,0.925,0,120,120,126,1,0_targ_4_dist_red/trial2.png,,,0,4,redHorizontal,a,97,70,male,2021-02-25_09h21.24.017,exp11,2020.2.6,Win32,60,IwAR3mkXheuWjJbMbaCX9Cngpz4bh3hxRhD6RYQH4XzkJw8jaGLHKohvxkHvs,,,,,,,,,,,
,,,,,,,,,,,,,,a,1,1.274,space,0.307,0,121,121,146,1,0_targ_4_dist_red/trial22.png,,,0,4,redHorizontal,a,97,70,male,2021-02-25_09h21.24.017,exp11,2020.2.6,Win32,60,IwAR3mkXheuWjJbMbaCX9Cngpz4bh3hxRhD6RYQH4XzkJw8jaGLHKohvxkHvs,,,,,,,,,,,
,,,,,,,,,,,,,,p,1,2.554,space,0.284,0,122,122,98,1,15_dist_red/trial24.png,,,1,15,redHorizontal,p,97,70,male,2021-02-25_09h21.24.017,exp11,2020.2.6,Win32,60,IwAR3mkXheuWjJbMbaCX9Cngpz4bh3hxRhD6RYQH4XzkJw8jaGLHKohvxkHvs,,,,,,,,,,,
,,,,,,,,,,,,,,a,1,1.329,space,0.303,0,123,123,158,1,0_targ_10_dist_red/trial9.png,,,0,10,redHorizontal,a,97,70,male,2021-02-25_09h21.24.017,exp11,2020.2.6,Win32,60,IwAR3mkXheuWjJbMbaCX9Cngpz4bh3hxRhD6RYQH4XzkJw8jaGLHKohvxkHvs,,,,,,,,,,,
,,,,,,,,,,,,,,a,1,1.741,space,0.271,0,124,124,159,1,0_targ_10_dist_red/trial10.png,,,0,10,redHorizontal,a,97,70,male,2021-02-25_09h21.24.017,exp11,2020.2.6,Win32,60,IwAR3mkXheuWjJbMbaCX9Cngpz4bh3hxRhD6RYQH4XzkJw8jaGLHKohvxkHvs,,,,,,,,,,,
,,,,,,,,,,,,,,a,1,1.041,space,0.354,0,125,125,170,1,0_targ_10_dist_red/trial21.png,,,0,10,redHorizontal,a,97,70,male,2021-02-25_09h21.24.017,exp11,2020.2.6,Win32,60,IwAR3mkXheuWjJbMbaCX9Cngpz4bh3hxRhD6RYQH4XzkJw8jaGLHKohvxkHvs,,,,,,,,,,,
,,,,,,,,,,,,,,a,1,1.485,space,0.351,0,126,126,114,1,0_targ_1_dist_red/trial15.png,,,0,1,redHorizontal,a,97,70,male,2021-02-25_09h21.24.017,exp11,2020.2.6,Win32,60,IwAR3mkXheuWjJbMbaCX9Cngpz4bh3hxRhD6RYQH4XzkJw8jaGLHKohvxkHvs,,,,,,,,,,,
,,,,,,,,,,,,,,p,1,1.138,space,0.323,0,127,127,68,1,9_dist_red/trial19.png,,,1,9,redHorizontal,p,97,70,male,2021-02-25_09h21.24.017,exp11,2020.2.6,Win32,60,IwAR3mkXheuWjJbMbaCX9Cngpz4bh3hxRhD6RYQH4XzkJw8jaGLHKohvxkHvs,,,,,,,,,,,
,,,,,,,,,,,,,,p,1,1.37,space,0.254,0,128,128,28,1,3_dist_red/trial4.png,,,1,3,redHorizontal,p,97,70,male,2021-02-25_09h21.24.017,exp11,2020.2.6,Win32,60,IwAR3mkXheuWjJbMbaCX9Cngpz4bh3hxRhD6RYQH4XzkJw8jaGLHKohvxkHvs,,,,,,,,,,,
,,,,,,,,,,,,,,p,1,1.33,space,0.387,0,129,129,75,1,15_dist_red/trial1.png,,,1,15,redHorizontal,p,97,70,male,2021-02-25_09h21.24.017,exp11,2020.2.6,Win32,60,IwAR3mkXheuWjJbMbaCX9Cngpz4bh3hxRhD6RYQH4XzkJw8jaGLHKohvxkHvs,,,,,,,,,,,
,,,,,,,,,,,,,,p,1,2.421,space,0.324,0,130,130,20,1,0_dist_red/trial21.png,,,1,0,redHorizontal,p,97,70,male,2021-02-25_09h21.24.017,exp11,2020.2.6,Win32,60,IwAR3mkXheuWjJbMbaCX9Cngpz4bh3hxRhD6RYQH4XzkJw8jaGLHKohvxkHvs,,,,,,,,,,,
,,,,,,,,,,,,,,a,1,1.266,space,0.318,0,131,131,144,1,0_targ_4_dist_red/trial20.png,,,0,4,redHorizontal,a,97,70,male,2021-02-25_09h21.24.017,exp11,2020.2.6,Win32,60,IwAR3mkXheuWjJbMbaCX9Cngpz4bh3hxRhD6RYQH4XzkJw8jaGLHKohvxkHvs,,,,,,,,,,,
,,,,,,,,,,,,,,a,1,1.347,space,0.253,0,132,132,150,1,0_targ_10_dist_red/trial1.png,,,0,10,redHorizontal,a,97,70,male,2021-02-25_09h21.24.017,exp11,2020.2.6,Win32,60,IwAR3mkXheuWjJbMbaCX9Cngpz4bh3hxRhD6RYQH4XzkJw8jaGLHKohvxkHvs,,,,,,,,,,,
,,,,,,,,,,,,,,p,1,1.338,space,0.318,0,133,133,78,1,15_dist_red/trial4.png,,,1,15,redHorizontal,p,97,70,male,2021-02-25_09h21.24.017,exp11,2020.2.6,Win32,60,IwAR3mkXheuWjJbMbaCX9Cngpz4bh3hxRhD6RYQH4XzkJw8jaGLHKohvxkHvs,,,,,,,,,,,
,,,,,,,,,,,,,,p,1,1.021,space,0.252,0,134,134,19,1,0_dist_red/trial20.png,,,1,0,redHorizontal,p,97,70,male,2021-02-25_09h21.24.017,exp11,2020.2.6,Win32,60,IwAR3mkXheuWjJbMbaCX9Cngpz4bh3hxRhD6RYQH4XzkJw8jaGLHKohvxkHvs,,,,,,,,,,,
,,,,,,,,,,,,,,p,1,1.692,space,0.269,0,135,135,90,1,15_dist_red/trial16.png,,,1,15,redHorizontal,p,97,70,male,2021-02-25_09h21.24.017,exp11,2020.2.6,Win32,60,IwAR3mkXheuWjJbMbaCX9Cngpz4bh3hxRhD6RYQH4XzkJw8jaGLHKohvxkHvs,,,,,,,,,,,
,,,,,,,,,,,,,,p,1,1.203,space,0.235,0,136,136,26,1,3_dist_red/trial2.png,,,1,3,redHorizontal,p,97,70,male,2021-02-25_09h21.24.017,exp11,2020.2.6,Win32,60,IwAR3mkXheuWjJbMbaCX9Cngpz4bh3hxRhD6RYQH4XzkJw8jaGLHKohvxkHvs,,,,,,,,,,,
,,,,,,,,,,,,,,a,1,1.223,space,0.523,0,137,137,171,1,0_targ_10_dist_red/trial22.png,,,0,10,redHorizontal,a,97,70,male,2021-02-25_09h21.24.017,exp11,2020.2.6,Win32,60,IwAR3mkXheuWjJbMbaCX9Cngpz4bh3hxRhD6RYQH4XzkJw8jaGLHKohvxkHvs,,,,,,,,,,,
,,,,,,,,,,,,,,a,1,2.032,space,0.47,0,138,138,122,1,0_targ_1_dist_red/trial23.png,,,0,1,redHorizontal,a,97,70,male,2021-02-25_09h21.24.017,exp11,2020.2.6,Win32,60,IwAR3mkXheuWjJbMbaCX9Cngpz4bh3hxRhD6RYQH4XzkJw8jaGLHKohvxkHvs,,,,,,,,,,,
,,,,,,,,,,,,,,a,1,1.115,space,0.302,0,139,139,109,1,0_targ_1_dist_red/trial10.png,,,0,1,redHorizontal,a,97,70,male,2021-02-25_09h21.24.017,exp11,2020.2.6,Win32,60,IwAR3mkXheuWjJbMbaCX9Cngpz4bh3hxRhD6RYQH4XzkJw8jaGLHKohvxkHvs,,,,,,,,,,,
,,,,,,,,,,,,,,a,1,0.947,space,0.286,0,140,140,132,1,0_targ_4_dist_red/trial8.png,,,0,4,redHorizontal,a,97,70,male,2021-02-25_09h21.24.017,exp11,2020.2.6,Win32,60,IwAR3mkXheuWjJbMbaCX9Cngpz4bh3hxRhD6RYQH4XzkJw8jaGLHKohvxkHvs,,,,,,,,,,,
,,,,,,,,,,,,,,p,1,1.285,space,0.286,0,141,141,96,1,15_dist_red/trial22.png,,,1,15,redHorizontal,p,97,70,male,2021-02-25_09h21.24.017,exp11,2020.2.6,Win32,60,IwAR3mkXheuWjJbMbaCX9Cngpz4bh3hxRhD6RYQH4XzkJw8jaGLHKohvxkHvs,,,,,,,,,,,
,,,,,,,,,,,,,,a,1,1.229,space,0.35,0,142,142,154,1,0_targ_10_dist_red/trial5.png,,,0,10,redHorizontal,a,97,70,male,2021-02-25_09h21.24.017,exp11,2020.2.6,Win32,60,IwAR3mkXheuWjJbMbaCX9Cngpz4bh3hxRhD6RYQH4XzkJw8jaGLHKohvxkHvs,,,,,,,,,,,
,,,,,,,,,,,,,,p,1,1.311,space,0.295,0,143,143,30,1,3_dist_red/trial6.png,,,1,3,redHorizontal,p,97,70,male,2021-02-25_09h21.24.017,exp11,2020.2.6,Win32,60,IwAR3mkXheuWjJbMbaCX9Cngpz4bh3hxRhD6RYQH4XzkJw8jaGLHKohvxkHvs,,,,,,,,,,,
,,,,,,,,,,,,,,p,1,1.333,space,0.286,0,144,144,76,1,15_dist_red/trial2.png,,,1,15,redHorizontal,p,97,70,male,2021-02-25_09h21.24.017,exp11,2020.2.6,Win32,60,IwAR3mkXheuWjJbMbaCX9Cngpz4bh3hxRhD6RYQH4XzkJw8jaGLHKohvxkHvs,,,,,,,,,,,
,,,,,,,,,,,,,,a,1,1.896,space,0.287,0,145,145,120,1,0_targ_1_dist_red/trial21.png,,,0,1,redHorizontal,a,97,70,male,2021-02-25_09h21.24.017,exp11,2020.2.6,Win32,60,IwAR3mkXheuWjJbMbaCX9Cngpz4bh3hxRhD6RYQH4XzkJw8jaGLHKohvxkHvs,,,,,,,,,,,
,,,,,,,,,,,,,,a,0,1.015,space,2.205,0,146,146,16,1,0_dist_red/trial17.png,,,1,0,redHorizontal,p,97,70,male,2021-02-25_09h21.24.017,exp11,2020.2.6,Win32,60,IwAR3mkXheuWjJbMbaCX9Cngpz4bh3hxRhD6RYQH4XzkJw8jaGLHKohvxkHvs,,,,,,,,,,,
,,,,,,,,,,,,,,a,1,2.452,space,0.298,0,147,147,101,1,0_targ_1_dist_red/trial2.png,,,0,1,redHorizontal,a,97,70,male,2021-02-25_09h21.24.017,exp11,2020.2.6,Win32,60,IwAR3mkXheuWjJbMbaCX9Cngpz4bh3hxRhD6RYQH4XzkJw8jaGLHKohvxkHvs,,,,,,,,,,,
,,,,,,,,,,,,,,a,1,1.998,space,0.334,0,148,148,155,1,0_targ_10_dist_red/trial6.png,,,0,10,redHorizontal,a,97,70,male,2021-02-25_09h21.24.017,exp11,2020.2.6,Win32,60,IwAR3mkXheuWjJbMbaCX9Cngpz4bh3hxRhD6RYQH4XzkJw8jaGLHKohvxkHvs,,,,,,,,,,,
,,,,,,,,,,,,,,a,1,1.71,space,0.351,0,149,149,103,1,0_targ_1_dist_red/trial4.png,,,0,1,redHorizontal,a,97,70,male,2021-02-25_09h21.24.017,exp11,2020.2.6,Win32,60,IwAR3mkXheuWjJbMbaCX9Cngpz4bh3hxRhD6RYQH4XzkJw8jaGLHKohvxkHvs,,,,,,,,,,,
,,,,,,,,,,,,,,p,1,1.278,space,0.317,0,150,150,41,1,3_dist_red/trial17.png,,,1,3,redHorizontal,p,97,70,male,2021-02-25_09h21.24.017,exp11,2020.2.6,Win32,60,IwAR3mkXheuWjJbMbaCX9Cngpz4bh3hxRhD6RYQH4XzkJw8jaGLHKohvxkHvs,,,,,,,,,,,
,,,,,,,,,,,,,,a,1,1.002,space,0.302,0,151,151,136,1,0_targ_4_dist_red/trial12.png,,,0,4,redHorizontal,a,97,70,male,2021-02-25_09h21.24.017,exp11,2020.2.6,Win32,60,IwAR3mkXheuWjJbMbaCX9Cngpz4bh3hxRhD6RYQH4XzkJw8jaGLHKohvxkHvs,,,,,,,,,,,
,,,,,,,,,,,,,,a,1,2.159,space,0.353,0,152,152,187,1,0_targ_16_dist_red/trial13.png,,,0,16,redHorizontal,a,97,70,male,2021-02-25_09h21.24.017,exp11,2020.2.6,Win32,60,IwAR3mkXheuWjJbMbaCX9Cngpz4bh3hxRhD6RYQH4XzkJw8jaGLHKohvxkHvs,,,,,,,,,,,
,,,,,,,,,,,,,,a,1,1.704,space,0.443,0,153,153,121,1,0_targ_1_dist_red/trial22.png,,,0,1,redHorizontal,a,97,70,male,2021-02-25_09h21.24.017,exp11,2020.2.6,Win32,60,IwAR3mkXheuWjJbMbaCX9Cngpz4bh3hxRhD6RYQH4XzkJw8jaGLHKohvxkHvs,,,,,,,,,,,
,,,,,,,,,,,,,,p,1,1.157,space,0.339,0,154,154,1,1,0_dist_red/trial2.png,,,1,0,redHorizontal,p,97,70,male,2021-02-25_09h21.24.017,exp11,2020.2.6,Win32,60,IwAR3mkXheuWjJbMbaCX9Cngpz4bh3hxRhD6RYQH4XzkJw8jaGLHKohvxkHvs,,,,,,,,,,,
,,,,,,,,,,,,,,a,1,1.191,space,0.322,0,155,155,129,1,0_targ_4_dist_red/trial5.png,,,0,4,redHorizontal,a,97,70,male,2021-02-25_09h21.24.017,exp11,2020.2.6,Win32,60,IwAR3mkXheuWjJbMbaCX9Cngpz4bh3hxRhD6RYQH4XzkJw8jaGLHKohvxkHvs,,,,,,,,,,,
,,,,,,,,,,,,,,p,1,2.12,space,0.268,0,156,156,24,1,0_dist_red/trial25.png,,,1,0,redHorizontal,p,97,70,male,2021-02-25_09h21.24.017,exp11,2020.2.6,Win32,60,IwAR3mkXheuWjJbMbaCX9Cngpz4bh3hxRhD6RYQH4XzkJw8jaGLHKohvxkHvs,,,,,,,,,,,
,,,,,,,,,,,,,,a,1,1.628,space,0.302,0,157,157,147,1,0_targ_4_dist_red/trial23.png,,,0,4,redHorizontal,a,97,70,male,2021-02-25_09h21.24.017,exp11,2020.2.6,Win32,60,IwAR3mkXheuWjJbMbaCX9Cngpz4bh3hxRhD6RYQH4XzkJw8jaGLHKohvxkHvs,,,,,,,,,,,
,,,,,,,,,,,,,,p,1,1.109,space,0.308,0,158,158,5,1,0_dist_red/trial6.png,,,1,0,redHorizontal,p,97,70,male,2021-02-25_09h21.24.017,exp11,2020.2.6,Win32,60,IwAR3mkXheuWjJbMbaCX9Cngpz4bh3hxRhD6RYQH4XzkJw8jaGLHKohvxkHvs,,,,,,,,,,,
,,,,,,,,,,,,,,a,1,1.331,space,0.27,0,159,159,112,1,0_targ_1_dist_red/trial13.png,,,0,1,redHorizontal,a,97,70,male,2021-02-25_09h21.24.017,exp11,2020.2.6,Win32,60,IwAR3mkXheuWjJbMbaCX9Cngpz4bh3hxRhD6RYQH4XzkJw8jaGLHKohvxkHvs,,,,,,,,,,,
,,,,,,,,,,,,,,a,1,1.106,space,0.273,0,160,160,135,1,0_targ_4_dist_red/trial11.png,,,0,4,redHorizontal,a,97,70,male,2021-02-25_09h21.24.017,exp11,2020.2.6,Win32,60,IwAR3mkXheuWjJbMbaCX9Cngpz4bh3hxRhD6RYQH4XzkJw8jaGLHKohvxkHvs,,,,,,,,,,,
,,,,,,,,,,,,,,a,1,1.015,space,0.286,0,161,161,127,1,0_targ_4_dist_red/trial3.png,,,0,4,redHorizontal,a,97,70,male,2021-02-25_09h21.24.017,exp11,2020.2.6,Win32,60,IwAR3mkXheuWjJbMbaCX9Cngpz4bh3hxRhD6RYQH4XzkJw8jaGLHKohvxkHvs,,,,,,,,,,,
,,,,,,,,,,,,,,p,1,1.392,space,0.266,0,162,162,18,1,0_dist_red/trial19.png,,,1,0,redHorizontal,p,97,70,male,2021-02-25_09h21.24.017,exp11,2020.2.6,Win32,60,IwAR3mkXheuWjJbMbaCX9Cngpz4bh3hxRhD6RYQH4XzkJw8jaGLHKohvxkHvs,,,,,,,,,,,
,,,,,,,,,,,,,,a,1,2.55,space,0.452,0,163,163,194,1,0_targ_16_dist_red/trial20.png,,,0,16,redHorizontal,a,97,70,male,2021-02-25_09h21.24.017,exp11,2020.2.6,Win32,60,IwAR3mkXheuWjJbMbaCX9Cngpz4bh3hxRhD6RYQH4XzkJw8jaGLHKohvxkHvs,,,,,,,,,,,
,,,,,,,,,,,,,,p,1,2.156,space,0.753,0,164,164,35,1,3_dist_red/trial11.png,,,1,3,redHorizontal,p,97,70,male,2021-02-25_09h21.24.017,exp11,2020.2.6,Win32,60,IwAR3mkXheuWjJbMbaCX9Cngpz4bh3hxRhD6RYQH4XzkJw8jaGLHKohvxkHvs,,,,,,,,,,,
,,,,,,,,,,,,,,p,1,1.056,space,0.306,0,165,165,91,1,15_dist_red/trial17.png,,,1,15,redHorizontal,p,97,70,male,2021-02-25_09h21.24.017,exp11,2020.2.6,Win32,60,IwAR3mkXheuWjJbMbaCX9Cngpz4bh3hxRhD6RYQH4XzkJw8jaGLHKohvxkHvs,,,,,,,,,,,
,,,,,,,,,,,,,,a,1,1.442,space,0.301,0,166,166,197,1,0_targ_16_dist_red/trial23.png,,,0,16,redHorizontal,a,97,70,male,2021-02-25_09h21.24.017,exp11,2020.2.6,Win32,60,IwAR3mkXheuWjJbMbaCX9Cngpz4bh3hxRhD6RYQH4XzkJw8jaGLHKohvxkHvs,,,,,,,,,,,
,,,,,,,,,,,,,,p,1,1.608,space,0.352,0,167,167,21,1,0_dist_red/trial22.png,,,1,0,redHorizontal,p,97,70,male,2021-02-25_09h21.24.017,exp11,2020.2.6,Win32,60,IwAR3mkXheuWjJbMbaCX9Cngpz4bh3hxRhD6RYQH4XzkJw8jaGLHKohvxkHvs,,,,,,,,,,,
,,,,,,,,,,,,,,p,1,1.535,space,0.286,0,168,168,94,1,15_dist_red/trial20.png,,,1,15,redHorizontal,p,97,70,male,2021-02-25_09h21.24.017,exp11,2020.2.6,Win32,60,IwAR3mkXheuWjJbMbaCX9Cngpz4bh3hxRhD6RYQH4XzkJw8jaGLHKohvxkHvs,,,,,,,,,,,
,,,,,,,,,,,,,,p,1,1.069,space,0.267,0,169,169,89,1,15_dist_red/trial15.png,,,1,15,redHorizontal,p,97,70,male,2021-02-25_09h21.24.017,exp11,2020.2.6,Win32,60,IwAR3mkXheuWjJbMbaCX9Cngpz4bh3hxRhD6RYQH4XzkJw8jaGLHKohvxkHvs,,,,,,,,,,,
,,,,,,,,,,,,,,p,1,1.048,space,0.304,0,170,170,23,1,0_dist_red/trial24.png,,,1,0,redHorizontal,p,97,70,male,2021-02-25_09h21.24.017,exp11,2020.2.6,Win32,60,IwAR3mkXheuWjJbMbaCX9Cngpz4bh3hxRhD6RYQH4XzkJw8jaGLHKohvxkHvs,,,,,,,,,,,
,,,,,,,,,,,,,,a,1,1.18,space,0.336,0,171,171,153,1,0_targ_10_dist_red/trial4.png,,,0,10,redHorizontal,a,97,70,male,2021-02-25_09h21.24.017,exp11,2020.2.6,Win32,60,IwAR3mkXheuWjJbMbaCX9Cngpz4bh3hxRhD6RYQH4XzkJw8jaGLHKohvxkHvs,,,,,,,,,,,
,,,,,,,,,,,,,,a,1,1.518,space,0.304,0,172,172,190,1,0_targ_16_dist_red/trial16.png,,,0,16,redHorizontal,a,97,70,male,2021-02-25_09h21.24.017,exp11,2020.2.6,Win32,60,IwAR3mkXheuWjJbMbaCX9Cngpz4bh3hxRhD6RYQH4XzkJw8jaGLHKohvxkHvs,,,,,,,,,,,
,,,,,,,,,,,,,,a,1,1.279,space,0.335,0,173,173,184,1,0_targ_16_dist_red/trial10.png,,,0,16,redHorizontal,a,97,70,male,2021-02-25_09h21.24.017,exp11,2020.2.6,Win32,60,IwAR3mkXheuWjJbMbaCX9Cngpz4bh3hxRhD6RYQH4XzkJw8jaGLHKohvxkHvs,,,,,,,,,,,
,,,,,,,,,,,,,,p,1,2.075,space,0.283,0,174,174,95,1,15_dist_red/trial21.png,,,1,15,redHorizontal,p,97,70,male,2021-02-25_09h21.24.017,exp11,2020.2.6,Win32,60,IwAR3mkXheuWjJbMbaCX9Cngpz4bh3hxRhD6RYQH4XzkJw8jaGLHKohvxkHvs,,,,,,,,,,,
,,,,,,,,,,,,,,p,1,1.541,space,0.337,0,175,175,45,1,3_dist_red/trial21.png,,,1,3,redHorizontal,p,97,70,male,2021-02-25_09h21.24.017,exp11,2020.2.6,Win32,60,IwAR3mkXheuWjJbMbaCX9Cngpz4bh3hxRhD6RYQH4XzkJw8jaGLHKohvxkHvs,,,,,,,,,,,
,,,,,,,,,,,,,,p,1,1.406,space,0.337,0,176,176,54,1,9_dist_red/trial5.png,,,1,9,redHorizontal,p,97,70,male,2021-02-25_09h21.24.017,exp11,2020.2.6,Win32,60,IwAR3mkXheuWjJbMbaCX9Cngpz4bh3hxRhD6RYQH4XzkJw8jaGLHKohvxkHvs,,,,,,,,,,,
,,,,,,,,,,,,,,a,1,1.546,space,0.586,0,177,177,182,1,0_targ_16_dist_red/trial8.png,,,0,16,redHorizontal,a,97,70,male,2021-02-25_09h21.24.017,exp11,2020.2.6,Win32,60,IwAR3mkXheuWjJbMbaCX9Cngpz4bh3hxRhD6RYQH4XzkJw8jaGLHKohvxkHvs,,,,,,,,,,,
,,,,,,,,,,,,,,p,1,1.142,space,0.304,0,178,178,65,1,9_dist_red/trial16.png,,,1,9,redHorizontal,p,97,70,male,2021-02-25_09h21.24.017,exp11,2020.2.6,Win32,60,IwAR3mkXheuWjJbMbaCX9Cngpz4bh3hxRhD6RYQH4XzkJw8jaGLHKohvxkHvs,,,,,,,,,,,
,,,,,,,,,,,,,,p,1,1.081,space,0.32,0,179,179,87,1,15_dist_red/trial13.png,,,1,15,redHorizontal,p,97,70,male,2021-02-25_09h21.24.017,exp11,2020.2.6,Win32,60,IwAR3mkXheuWjJbMbaCX9Cngpz4bh3hxRhD6RYQH4XzkJw8jaGLHKohvxkHvs,,,,,,,,,,,
,,,,,,,,,,,,,,p,1,1.49,space,0.302,0,180,180,52,1,9_dist_red/trial3.png,,,1,9,redHorizontal,p,97,70,male,2021-02-25_09h21.24.017,exp11,2020.2.6,Win32,60,IwAR3mkXheuWjJbMbaCX9Cngpz4bh3hxRhD6RYQH4XzkJw8jaGLHKohvxkHvs,,,,,,,,,,,
,,,,,,,,,,,,,,a,1,1.291,space,0.272,0,181,181,193,1,0_targ_16_dist_red/trial19.png,,,0,16,redHorizontal,a,97,70,male,2021-02-25_09h21.24.017,exp11,2020.2.6,Win32,60,IwAR3mkXheuWjJbMbaCX9Cngpz4bh3hxRhD6RYQH4XzkJw8jaGLHKohvxkHvs,,,,,,,,,,,
,,,,,,,,,,,,,,p,1,2.242,space,2.251,0,182,182,36,1,3_dist_red/trial12.png,,,1,3,redHorizontal,p,97,70,male,2021-02-25_09h21.24.017,exp11,2020.2.6,Win32,60,IwAR3mkXheuWjJbMbaCX9Cngpz4bh3hxRhD6RYQH4XzkJw8jaGLHKohvxkHvs,,,,,,,,,,,
,,,,,,,,,,,,,,a,1,4.359,space,0.453,0,183,183,111,1,0_targ_1_dist_red/trial12.png,,,0,1,redHorizontal,a,97,70,male,2021-02-25_09h21.24.017,exp11,2020.2.6,Win32,60,IwAR3mkXheuWjJbMbaCX9Cngpz4bh3hxRhD6RYQH4XzkJw8jaGLHKohvxkHvs,,,,,,,,,,,
,,,,,,,,,,,,,,a,1,1.22,space,0.294,0,184,184,110,1,0_targ_1_dist_red/trial11.png,,,0,1,redHorizontal,a,97,70,male,2021-02-25_09h21.24.017,exp11,2020.2.6,Win32,60,IwAR3mkXheuWjJbMbaCX9Cngpz4bh3hxRhD6RYQH4XzkJw8jaGLHKohvxkHvs,,,,,,,,,,,
,,,,,,,,,,,,,,p,1,1.118,space,0.364,0,185,185,37,1,3_dist_red/trial13.png,,,1,3,redHorizontal,p,97,70,male,2021-02-25_09h21.24.017,exp11,2020.2.6,Win32,60,IwAR3mkXheuWjJbMbaCX9Cngpz4bh3hxRhD6RYQH4XzkJw8jaGLHKohvxkHvs,,,,,,,,,,,
,,,,,,,,,,,,,,a,1,1.564,space,0.436,0,186,186,142,1,0_targ_4_dist_red/trial18.png,,,0,4,redHorizontal,a,97,70,male,2021-02-25_09h21.24.017,exp11,2020.2.6,Win32,60,IwAR3mkXheuWjJbMbaCX9Cngpz4bh3hxRhD6RYQH4XzkJw8jaGLHKohvxkHvs,,,,,,,,,,,
,,,,,,,,,,,,,,p,1,1.279,space,0.286,0,187,187,84,1,15_dist_red/trial10.png,,,1,15,redHorizontal,p,97,70,male,2021-02-25_09h21.24.017,exp11,2020.2.6,Win32,60,IwAR3mkXheuWjJbMbaCX9Cngpz4bh3hxRhD6RYQH4XzkJw8jaGLHKohvxkHvs,,,,,,,,,,,
,,,,,,,,,,,,,,a,1,1.124,space,0.28,0,188,188,162,1,0_targ_10_dist_red/trial13.png,,,0,10,redHorizontal,a,97,70,male,2021-02-25_09h21.24.017,exp11,2020.2.6,Win32,60,IwAR3mkXheuWjJbMbaCX9Cngpz4bh3hxRhD6RYQH4XzkJw8jaGLHKohvxkHvs,,,,,,,,,,,
,,,,,,,,,,,,,,a,1,1.005,space,0.286,0,189,189,106,1,0_targ_1_dist_red/trial7.png,,,0,1,redHorizontal,a,97,70,male,2021-02-25_09h21.24.017,exp11,2020.2.6,Win32,60,IwAR3mkXheuWjJbMbaCX9Cngpz4bh3hxRhD6RYQH4XzkJw8jaGLHKohvxkHvs,,,,,,,,,,,
,,,,,,,,,,,,,,p,1,1.219,space,0.273,0,190,190,43,1,3_dist_red/trial19.png,,,1,3,redHorizontal,p,97,70,male,2021-02-25_09h21.24.017,exp11,2020.2.6,Win32,60,IwAR3mkXheuWjJbMbaCX9Cngpz4bh3hxRhD6RYQH4XzkJw8jaGLHKohvxkHvs,,,,,,,,,,,
,,,,,,,,,,,,,,a,1,1.873,space,0.303,0,191,191,186,1,0_targ_16_dist_red/trial12.png,,,0,16,redHorizontal,a,97,70,male,2021-02-25_09h21.24.017,exp11,2020.2.6,Win32,60,IwAR3mkXheuWjJbMbaCX9Cngpz4bh3hxRhD6RYQH4XzkJw8jaGLHKohvxkHvs,,,,,,,,,,,
,,,,,,,,,,,,,,p,1,1.359,space,0.287,0,192,192,69,1,9_dist_red/trial20.png,,,1,9,redHorizontal,p,97,70,male,2021-02-25_09h21.24.017,exp11,2020.2.6,Win32,60,IwAR3mkXheuWjJbMbaCX9Cngpz4bh3hxRhD6RYQH4XzkJw8jaGLHKohvxkHvs,,,,,,,,,,,
,,,,,,,,,,,,,,a,1,1.16,space,0.341,0,193,193,199,1,0_targ_16_dist_red/trial25.png,,,0,16,redHorizontal,a,97,70,male,2021-02-25_09h21.24.017,exp11,2020.2.6,Win32,60,IwAR3mkXheuWjJbMbaCX9Cngpz4bh3hxRhD6RYQH4XzkJw8jaGLHKohvxkHvs,,,,,,,,,,,
,,,,,,,,,,,,,,p,1,1.63,space,0.318,0,194,194,79,1,15_dist_red/trial5.png,,,1,15,redHorizontal,p,97,70,male,2021-02-25_09h21.24.017,exp11,2020.2.6,Win32,60,IwAR3mkXheuWjJbMbaCX9Cngpz4bh3hxRhD6RYQH4XzkJw8jaGLHKohvxkHvs,,,,,,,,,,,
,,,,,,,,,,,,,,a,1,1.37,space,0.309,0,195,195,160,1,0_targ_10_dist_red/trial11.png,,,0,10,redHorizontal,a,97,70,male,2021-02-25_09h21.24.017,exp11,2020.2.6,Win32,60,IwAR3mkXheuWjJbMbaCX9Cngpz4bh3hxRhD6RYQH4XzkJw8jaGLHKohvxkHvs,,,,,,,,,,,
,,,,,,,,,,,,,,a,1,1.031,space,0.29,0,196,196,175,1,0_targ_16_dist_red/trial1.png,,,0,16,redHorizontal,a,97,70,male,2021-02-25_09h21.24.017,exp11,2020.2.6,Win32,60,IwAR3mkXheuWjJbMbaCX9Cngpz4bh3hxRhD6RYQH4XzkJw8jaGLHKohvxkHvs,,,,,,,,,,,
,,,,,,,,,,,,,,p,1,1.158,space,0.274,0,197,197,93,1,15_dist_red/trial19.png,,,1,15,redHorizontal,p,97,70,male,2021-02-25_09h21.24.017,exp11,2020.2.6,Win32,60,IwAR3mkXheuWjJbMbaCX9Cngpz4bh3hxRhD6RYQH4XzkJw8jaGLHKohvxkHvs,,,,,,,,,,,
,,,,,,,,,,,,,,a,1,1.315,space,0.319,0,198,198,188,1,0_targ_16_dist_red/trial14.png,,,0,16,redHorizontal,a,97,70,male,2021-02-25_09h21.24.017,exp11,2020.2.6,Win32,60,IwAR3mkXheuWjJbMbaCX9Cngpz4bh3hxRhD6RYQH4XzkJw8jaGLHKohvxkHvs,,,,,,,,,,,
,,,,,,,,,,,,,,p,1,1.029,space,0.306,0,199,199,13,1,0_dist_red/trial14.png,,,1,0,redHorizontal,p,97,70,male,2021-02-25_09h21.24.017,exp11,2020.2.6,Win32,60,IwAR3mkXheuWjJbMbaCX9Cngpz4bh3hxRhD6RYQH4XzkJw8jaGLHKohvxkHvs,,,,,,,,,,,
,,,,,,,,,,,,,,,,,,,,,,,,,,,,,,,97,70,male,2021-02-25_09h21.24.017,exp11,2020.2.6,Win32,60,IwAR3mkXheuWjJbMbaCX9Cngpz4bh3hxRhD6RYQH4XzkJw8jaGLHKohvxkHvs,0,1,1,1,1,conRed.xlsx,red horizontal,Look for red horizontal bar (target) and indicate if it is present or absent in the array. If red horizontal target is present press 'p' and if absent press 'a'. Press SPACE to start.,,,
