key_resp_6.keys,key_resp_6.rt,key_resp_7.keys,key_resp_7.rt,key_resp_8.keys,key_resp_8.rt,key_resp_10.keys,key_resp_10.rt,key_resp_9.keys,key_resp_9.rt,key_resp_3.keys,key_resp_3.rt,key_resp_5.keys,key_resp_5.rt,key_resp.keys,key_resp.corr,key_resp.rt,key_resp_4.keys,key_resp_4.rt,trials.thisRepN,trials.thisTrialN,trials.thisN,trials.thisIndex,trials.ran,ImageFile,tarPos,tarSize,targPres,numDist,targetName,correctAns,participant,age,sex,date,expName,psychopyVersion,OS,frameRate,fbclid,trials_2.thisRepN,trials_2.thisTrialN,trials_2.thisN,trials_2.thisIndex,trials_2.ran,condsFile,targName,instructionText,colTarget,sizeTarg,posit
space,1.079,space,0.141,space,0.234,space,0.302,space,0.481,space,0.483,space,2.817,p,1,1.088,space,0.546,0,0,0,75,1,15_dist_green/trial1.png,,,1,15,greenverival,p,98,20,F,2021-02-22_15h06.52.352,exp11,2020.2.6,Win32,60,IwAR3R5PMcyePkaTCmI2UcelYmKvlv8dysMTiNvE4jYs1WxaZh729grXaSXYk,,,,,,,,,,,
,,,,,,,,,,,,,,p,0,0.637,space,3.2,0,1,1,189,1,0_targ_16_dist_green/trial15.png,,,0,16,greenverival,a,98,20,F,2021-02-22_15h06.52.352,exp11,2020.2.6,Win32,60,IwAR3R5PMcyePkaTCmI2UcelYmKvlv8dysMTiNvE4jYs1WxaZh729grXaSXYk,,,,,,,,,,,
,,,,,,,,,,,,,,p,0,1.637,space,0.5,0,2,2,182,1,0_targ_16_dist_green/trial8.png,,,0,16,greenverival,a,98,20,F,2021-02-22_15h06.52.352,exp11,2020.2.6,Win32,60,IwAR3R5PMcyePkaTCmI2UcelYmKvlv8dysMTiNvE4jYs1WxaZh729grXaSXYk,,,,,,,,,,,
,,,,,,,,,,,,,,p,1,0.754,space,0.369,0,3,3,10,1,0_dist_green/trial11.png,,,1,0,greenverival,p,98,20,F,2021-02-22_15h06.52.352,exp11,2020.2.6,Win32,60,IwAR3R5PMcyePkaTCmI2UcelYmKvlv8dysMTiNvE4jYs1WxaZh729grXaSXYk,,,,,,,,,,,
,,,,,,,,,,,,,,a,1,0.637,space,0.333,0,4,4,115,1,0_targ_1_dist_green/trial6.png,,,0,1,greenverival,a,98,20,F,2021-02-22_15h06.52.352,exp11,2020.2.6,Win32,60,IwAR3R5PMcyePkaTCmI2UcelYmKvlv8dysMTiNvE4jYs1WxaZh729grXaSXYk,,,,,,,,,,,
,,,,,,,,,,,,,,a,1,0.541,space,0.167,0,5,5,101,1,0_targ_1_dist_green/trial2.png,,,0,1,greenverival,a,98,20,F,2021-02-22_15h06.52.352,exp11,2020.2.6,Win32,60,IwAR3R5PMcyePkaTCmI2UcelYmKvlv8dysMTiNvE4jYs1WxaZh729grXaSXYk,,,,,,,,,,,
,,,,,,,,,,,,,,a,1,1.237,space,0.451,0,6,6,187,1,0_targ_16_dist_green/trial13.png,,,0,16,greenverival,a,98,20,F,2021-02-22_15h06.52.352,exp11,2020.2.6,Win32,60,IwAR3R5PMcyePkaTCmI2UcelYmKvlv8dysMTiNvE4jYs1WxaZh729grXaSXYk,,,,,,,,,,,
,,,,,,,,,,,,,,p,1,0.67,space,0.201,0,7,7,34,1,3_dist_green/trial10.png,,,1,3,greenverival,p,98,20,F,2021-02-22_15h06.52.352,exp11,2020.2.6,Win32,60,IwAR3R5PMcyePkaTCmI2UcelYmKvlv8dysMTiNvE4jYs1WxaZh729grXaSXYk,,,,,,,,,,,
,,,,,,,,,,,,,,a,1,0.902,space,0.068,0,8,8,196,1,0_targ_16_dist_green/trial22.png,,,0,16,greenverival,a,98,20,F,2021-02-22_15h06.52.352,exp11,2020.2.6,Win32,60,IwAR3R5PMcyePkaTCmI2UcelYmKvlv8dysMTiNvE4jYs1WxaZh729grXaSXYk,,,,,,,,,,,
,,,,,,,,,,,,,,p,1,1.336,space,0.07,0,9,9,25,1,3_dist_green/trial1.png,,,1,3,greenverival,p,98,20,F,2021-02-22_15h06.52.352,exp11,2020.2.6,Win32,60,IwAR3R5PMcyePkaTCmI2UcelYmKvlv8dysMTiNvE4jYs1WxaZh729grXaSXYk,,,,,,,,,,,
,,,,,,,,,,,,,,a,1,1.935,space,0.118,0,10,10,123,1,0_targ_1_dist_green/trial24.png,,,0,1,greenverival,a,98,20,F,2021-02-22_15h06.52.352,exp11,2020.2.6,Win32,60,IwAR3R5PMcyePkaTCmI2UcelYmKvlv8dysMTiNvE4jYs1WxaZh729grXaSXYk,,,,,,,,,,,
,,,,,,,,,,,,,,a,1,0.787,space,0.537,0,11,11,147,1,0_targ_4_dist_green/trial23.png,,,0,4,greenverival,a,98,20,F,2021-02-22_15h06.52.352,exp11,2020.2.6,Win32,60,IwAR3R5PMcyePkaTCmI2UcelYmKvlv8dysMTiNvE4jYs1WxaZh729grXaSXYk,,,,,,,,,,,
,,,,,,,,,,,,,,a,1,0.489,space,0.233,0,12,12,102,1,0_targ_1_dist_green/trial3.png,,,0,1,greenverival,a,98,20,F,2021-02-22_15h06.52.352,exp11,2020.2.6,Win32,60,IwAR3R5PMcyePkaTCmI2UcelYmKvlv8dysMTiNvE4jYs1WxaZh729grXaSXYk,,,,,,,,,,,
,,,,,,,,,,,,,,p,1,0.672,space,0.149,0,13,13,2,1,0_dist_green/trial3.png,,,1,0,greenverival,p,98,20,F,2021-02-22_15h06.52.352,exp11,2020.2.6,Win32,60,IwAR3R5PMcyePkaTCmI2UcelYmKvlv8dysMTiNvE4jYs1WxaZh729grXaSXYk,,,,,,,,,,,
,,,,,,,,,,,,,,p,1,0.704,space,0.067,0,14,14,29,1,3_dist_green/trial5.png,,,1,3,greenverival,p,98,20,F,2021-02-22_15h06.52.352,exp11,2020.2.6,Win32,60,IwAR3R5PMcyePkaTCmI2UcelYmKvlv8dysMTiNvE4jYs1WxaZh729grXaSXYk,,,,,,,,,,,
,,,,,,,,,,,,,,p,1,0.903,space,0.017,0,15,15,45,1,3_dist_green/trial21.png,,,1,3,greenverival,p,98,20,F,2021-02-22_15h06.52.352,exp11,2020.2.6,Win32,60,IwAR3R5PMcyePkaTCmI2UcelYmKvlv8dysMTiNvE4jYs1WxaZh729grXaSXYk,,,,,,,,,,,
,,,,,,,,,,,,,,p,1,0.604,space,0.054,0,16,16,48,1,3_dist_green/trial24.png,,,1,3,greenverival,p,98,20,F,2021-02-22_15h06.52.352,exp11,2020.2.6,Win32,60,IwAR3R5PMcyePkaTCmI2UcelYmKvlv8dysMTiNvE4jYs1WxaZh729grXaSXYk,,,,,,,,,,,
,,,,,,,,,,,,,,p,1,0.645,space,0.053,0,17,17,85,1,15_dist_green/trial11.png,,,1,15,greenverival,p,98,20,F,2021-02-22_15h06.52.352,exp11,2020.2.6,Win32,60,IwAR3R5PMcyePkaTCmI2UcelYmKvlv8dysMTiNvE4jYs1WxaZh729grXaSXYk,,,,,,,,,,,
,,,,,,,,,,,,,,p,1,0.807,space,0.018,0,18,18,81,1,15_dist_green/trial7.png,,,1,15,greenverival,p,98,20,F,2021-02-22_15h06.52.352,exp11,2020.2.6,Win32,60,IwAR3R5PMcyePkaTCmI2UcelYmKvlv8dysMTiNvE4jYs1WxaZh729grXaSXYk,,,,,,,,,,,
,,,,,,,,,,,,,,p,1,0.605,space,0.083,0,19,19,22,1,0_dist_green/trial23.png,,,1,0,greenverival,p,98,20,F,2021-02-22_15h06.52.352,exp11,2020.2.6,Win32,60,IwAR3R5PMcyePkaTCmI2UcelYmKvlv8dysMTiNvE4jYs1WxaZh729grXaSXYk,,,,,,,,,,,
,,,,,,,,,,,,,,a,1,0.722,space,0.039,0,20,20,110,1,0_targ_1_dist_green/trial11.png,,,0,1,greenverival,a,98,20,F,2021-02-22_15h06.52.352,exp11,2020.2.6,Win32,60,IwAR3R5PMcyePkaTCmI2UcelYmKvlv8dysMTiNvE4jYs1WxaZh729grXaSXYk,,,,,,,,,,,
,,,,,,,,,,,,,,a,1,0.723,space,0.05,0,21,21,146,1,0_targ_4_dist_green/trial22.png,,,0,4,greenverival,a,98,20,F,2021-02-22_15h06.52.352,exp11,2020.2.6,Win32,60,IwAR3R5PMcyePkaTCmI2UcelYmKvlv8dysMTiNvE4jYs1WxaZh729grXaSXYk,,,,,,,,,,,
,,,,,,,,,,,,,,p,1,0.837,space,0.067,0,22,22,39,1,3_dist_green/trial15.png,,,1,3,greenverival,p,98,20,F,2021-02-22_15h06.52.352,exp11,2020.2.6,Win32,60,IwAR3R5PMcyePkaTCmI2UcelYmKvlv8dysMTiNvE4jYs1WxaZh729grXaSXYk,,,,,,,,,,,
,,,,,,,,,,,,,,a,1,1.254,space,0.034,0,23,23,136,1,0_targ_4_dist_green/trial12.png,,,0,4,greenverival,a,98,20,F,2021-02-22_15h06.52.352,exp11,2020.2.6,Win32,60,IwAR3R5PMcyePkaTCmI2UcelYmKvlv8dysMTiNvE4jYs1WxaZh729grXaSXYk,,,,,,,,,,,
,,,,,,,,,,,,,,a,1,0.904,space,0,0,24,24,154,1,0_targ_10_dist_green/trial5.png,,,0,10,greenverival,a,98,20,F,2021-02-22_15h06.52.352,exp11,2020.2.6,Win32,60,IwAR3R5PMcyePkaTCmI2UcelYmKvlv8dysMTiNvE4jYs1WxaZh729grXaSXYk,,,,,,,,,,,
,,,,,,,,,,,,,,a,0,0.586,space,0.15,0,25,25,9,1,0_dist_green/trial10.png,,,1,0,greenverival,p,98,20,F,2021-02-22_15h06.52.352,exp11,2020.2.6,Win32,60,IwAR3R5PMcyePkaTCmI2UcelYmKvlv8dysMTiNvE4jYs1WxaZh729grXaSXYk,,,,,,,,,,,
,,,,,,,,,,,,,,p,1,0.883,space,0.019,0,26,26,33,1,3_dist_green/trial9.png,,,1,3,greenverival,p,98,20,F,2021-02-22_15h06.52.352,exp11,2020.2.6,Win32,60,IwAR3R5PMcyePkaTCmI2UcelYmKvlv8dysMTiNvE4jYs1WxaZh729grXaSXYk,,,,,,,,,,,
,,,,,,,,,,,,,,p,1,0.807,space,0.054,0,27,27,99,1,15_dist_green/trial25.png,,,1,15,greenverival,p,98,20,F,2021-02-22_15h06.52.352,exp11,2020.2.6,Win32,60,IwAR3R5PMcyePkaTCmI2UcelYmKvlv8dysMTiNvE4jYs1WxaZh729grXaSXYk,,,,,,,,,,,
,,,,,,,,,,,,,,p,1,0.774,space,0.068,0,28,28,98,1,15_dist_green/trial24.png,,,1,15,greenverival,p,98,20,F,2021-02-22_15h06.52.352,exp11,2020.2.6,Win32,60,IwAR3R5PMcyePkaTCmI2UcelYmKvlv8dysMTiNvE4jYs1WxaZh729grXaSXYk,,,,,,,,,,,
,,,,,,,,,,,,,,p,1,0.671,space,0.068,0,29,29,3,1,0_dist_green/trial4.png,,,1,0,greenverival,p,98,20,F,2021-02-22_15h06.52.352,exp11,2020.2.6,Win32,60,IwAR3R5PMcyePkaTCmI2UcelYmKvlv8dysMTiNvE4jYs1WxaZh729grXaSXYk,,,,,,,,,,,
,,,,,,,,,,,,,,a,1,0.688,space,1.015,0,30,30,113,1,0_targ_1_dist_green/trial14.png,,,0,1,greenverival,a,98,20,F,2021-02-22_15h06.52.352,exp11,2020.2.6,Win32,60,IwAR3R5PMcyePkaTCmI2UcelYmKvlv8dysMTiNvE4jYs1WxaZh729grXaSXYk,,,,,,,,,,,
,,,,,,,,,,,,,,a,0,0.536,space,0.072,0,31,31,35,1,3_dist_green/trial11.png,,,1,3,greenverival,p,98,20,F,2021-02-22_15h06.52.352,exp11,2020.2.6,Win32,60,IwAR3R5PMcyePkaTCmI2UcelYmKvlv8dysMTiNvE4jYs1WxaZh729grXaSXYk,,,,,,,,,,,
,,,,,,,,,,,,,,a,1,0.655,space,0.147,0,32,32,116,1,0_targ_1_dist_green/trial17.png,,,0,1,greenverival,a,98,20,F,2021-02-22_15h06.52.352,exp11,2020.2.6,Win32,60,IwAR3R5PMcyePkaTCmI2UcelYmKvlv8dysMTiNvE4jYs1WxaZh729grXaSXYk,,,,,,,,,,,
,,,,,,,,,,,,,,p,1,0.654,space,0.037,0,33,33,40,1,3_dist_green/trial16.png,,,1,3,greenverival,p,98,20,F,2021-02-22_15h06.52.352,exp11,2020.2.6,Win32,60,IwAR3R5PMcyePkaTCmI2UcelYmKvlv8dysMTiNvE4jYs1WxaZh729grXaSXYk,,,,,,,,,,,
,,,,,,,,,,,,,,p,1,0.604,space,0.05,0,34,34,92,1,15_dist_green/trial18.png,,,1,15,greenverival,p,98,20,F,2021-02-22_15h06.52.352,exp11,2020.2.6,Win32,60,IwAR3R5PMcyePkaTCmI2UcelYmKvlv8dysMTiNvE4jYs1WxaZh729grXaSXYk,,,,,,,,,,,
,,,,,,,,,,,,,,p,1,1.303,space,0.051,0,35,35,77,1,15_dist_green/trial3.png,,,1,15,greenverival,p,98,20,F,2021-02-22_15h06.52.352,exp11,2020.2.6,Win32,60,IwAR3R5PMcyePkaTCmI2UcelYmKvlv8dysMTiNvE4jYs1WxaZh729grXaSXYk,,,,,,,,,,,
,,,,,,,,,,,,,,p,1,0.555,space,0.05,0,36,36,8,1,0_dist_green/trial9.png,,,1,0,greenverival,p,98,20,F,2021-02-22_15h06.52.352,exp11,2020.2.6,Win32,60,IwAR3R5PMcyePkaTCmI2UcelYmKvlv8dysMTiNvE4jYs1WxaZh729grXaSXYk,,,,,,,,,,,
,,,,,,,,,,,,,,a,1,0.938,space,0.051,0,37,37,193,1,0_targ_16_dist_green/trial19.png,,,0,16,greenverival,a,98,20,F,2021-02-22_15h06.52.352,exp11,2020.2.6,Win32,60,IwAR3R5PMcyePkaTCmI2UcelYmKvlv8dysMTiNvE4jYs1WxaZh729grXaSXYk,,,,,,,,,,,
,,,,,,,,,,,,,,a,1,0.838,space,0.084,0,38,38,108,1,0_targ_1_dist_green/trial9.png,,,0,1,greenverival,a,98,20,F,2021-02-22_15h06.52.352,exp11,2020.2.6,Win32,60,IwAR3R5PMcyePkaTCmI2UcelYmKvlv8dysMTiNvE4jYs1WxaZh729grXaSXYk,,,,,,,,,,,
,,,,,,,,,,,,,,p,1,0.604,space,0.051,0,39,39,82,1,15_dist_green/trial8.png,,,1,15,greenverival,p,98,20,F,2021-02-22_15h06.52.352,exp11,2020.2.6,Win32,60,IwAR3R5PMcyePkaTCmI2UcelYmKvlv8dysMTiNvE4jYs1WxaZh729grXaSXYk,,,,,,,,,,,
,,,,,,,,,,,,,,p,1,0.61,space,0.053,0,40,40,41,1,3_dist_green/trial17.png,,,1,3,greenverival,p,98,20,F,2021-02-22_15h06.52.352,exp11,2020.2.6,Win32,60,IwAR3R5PMcyePkaTCmI2UcelYmKvlv8dysMTiNvE4jYs1WxaZh729grXaSXYk,,,,,,,,,,,
,,,,,,,,,,,,,,p,1,0.505,space,0.066,0,41,41,16,1,0_dist_green/trial17.png,,,1,0,greenverival,p,98,20,F,2021-02-22_15h06.52.352,exp11,2020.2.6,Win32,60,IwAR3R5PMcyePkaTCmI2UcelYmKvlv8dysMTiNvE4jYs1WxaZh729grXaSXYk,,,,,,,,,,,
,,,,,,,,,,,,,,p,1,0.538,space,0.052,0,42,42,44,1,3_dist_green/trial20.png,,,1,3,greenverival,p,98,20,F,2021-02-22_15h06.52.352,exp11,2020.2.6,Win32,60,IwAR3R5PMcyePkaTCmI2UcelYmKvlv8dysMTiNvE4jYs1WxaZh729grXaSXYk,,,,,,,,,,,
,,,,,,,,,,,,,,a,1,1.019,space,0.118,0,43,43,161,1,0_targ_10_dist_green/trial12.png,,,0,10,greenverival,a,98,20,F,2021-02-22_15h06.52.352,exp11,2020.2.6,Win32,60,IwAR3R5PMcyePkaTCmI2UcelYmKvlv8dysMTiNvE4jYs1WxaZh729grXaSXYk,,,,,,,,,,,
,,,,,,,,,,,,,,a,1,0.869,space,0.085,0,44,44,127,1,0_targ_4_dist_green/trial3.png,,,0,4,greenverival,a,98,20,F,2021-02-22_15h06.52.352,exp11,2020.2.6,Win32,60,IwAR3R5PMcyePkaTCmI2UcelYmKvlv8dysMTiNvE4jYs1WxaZh729grXaSXYk,,,,,,,,,,,
,,,,,,,,,,,,,,p,1,1.071,space,0.037,0,45,45,95,1,15_dist_green/trial21.png,,,1,15,greenverival,p,98,20,F,2021-02-22_15h06.52.352,exp11,2020.2.6,Win32,60,IwAR3R5PMcyePkaTCmI2UcelYmKvlv8dysMTiNvE4jYs1WxaZh729grXaSXYk,,,,,,,,,,,
,,,,,,,,,,,,,,a,1,0.871,space,0.033,0,46,46,176,1,0_targ_16_dist_green/trial2.png,,,0,16,greenverival,a,98,20,F,2021-02-22_15h06.52.352,exp11,2020.2.6,Win32,60,IwAR3R5PMcyePkaTCmI2UcelYmKvlv8dysMTiNvE4jYs1WxaZh729grXaSXYk,,,,,,,,,,,
,,,,,,,,,,,,,,p,1,0.765,space,0.05,0,47,47,18,1,0_dist_green/trial19.png,,,1,0,greenverival,p,98,20,F,2021-02-22_15h06.52.352,exp11,2020.2.6,Win32,60,IwAR3R5PMcyePkaTCmI2UcelYmKvlv8dysMTiNvE4jYs1WxaZh729grXaSXYk,,,,,,,,,,,
,,,,,,,,,,,,,,p,1,0.57,space,0.051,0,48,48,11,1,0_dist_green/trial12.png,,,1,0,greenverival,p,98,20,F,2021-02-22_15h06.52.352,exp11,2020.2.6,Win32,60,IwAR3R5PMcyePkaTCmI2UcelYmKvlv8dysMTiNvE4jYs1WxaZh729grXaSXYk,,,,,,,,,,,
,,,,,,,,,,,,,,p,1,0.523,space,0.052,0,49,49,1,1,0_dist_green/trial2.png,,,1,0,greenverival,p,98,20,F,2021-02-22_15h06.52.352,exp11,2020.2.6,Win32,60,IwAR3R5PMcyePkaTCmI2UcelYmKvlv8dysMTiNvE4jYs1WxaZh729grXaSXYk,,,,,,,,,,,
,,,,,,,,,,,,,,p,1,0.508,space,0.083,0,50,50,24,1,0_dist_green/trial25.png,,,1,0,greenverival,p,98,20,F,2021-02-22_15h06.52.352,exp11,2020.2.6,Win32,60,IwAR3R5PMcyePkaTCmI2UcelYmKvlv8dysMTiNvE4jYs1WxaZh729grXaSXYk,,,,,,,,,,,
,,,,,,,,,,,,,,a,1,1.02,space,0.022,0,51,51,170,1,0_targ_10_dist_green/trial21.png,,,0,10,greenverival,a,98,20,F,2021-02-22_15h06.52.352,exp11,2020.2.6,Win32,60,IwAR3R5PMcyePkaTCmI2UcelYmKvlv8dysMTiNvE4jYs1WxaZh729grXaSXYk,,,,,,,,,,,
,,,,,,,,,,,,,,a,1,0.67,space,0.034,0,52,52,165,1,0_targ_10_dist_green/trial16.png,,,0,10,greenverival,a,98,20,F,2021-02-22_15h06.52.352,exp11,2020.2.6,Win32,60,IwAR3R5PMcyePkaTCmI2UcelYmKvlv8dysMTiNvE4jYs1WxaZh729grXaSXYk,,,,,,,,,,,
,,,,,,,,,,,,,,p,1,0.703,space,0.068,0,53,53,89,1,15_dist_green/trial15.png,,,1,15,greenverival,p,98,20,F,2021-02-22_15h06.52.352,exp11,2020.2.6,Win32,60,IwAR3R5PMcyePkaTCmI2UcelYmKvlv8dysMTiNvE4jYs1WxaZh729grXaSXYk,,,,,,,,,,,
,,,,,,,,,,,,,,a,1,0.737,space,0.051,0,54,54,129,1,0_targ_4_dist_green/trial5.png,,,0,4,greenverival,a,98,20,F,2021-02-22_15h06.52.352,exp11,2020.2.6,Win32,60,IwAR3R5PMcyePkaTCmI2UcelYmKvlv8dysMTiNvE4jYs1WxaZh729grXaSXYk,,,,,,,,,,,
,,,,,,,,,,,,,,a,1,0.688,space,0.066,0,55,55,148,1,0_targ_4_dist_green/trial24.png,,,0,4,greenverival,a,98,20,F,2021-02-22_15h06.52.352,exp11,2020.2.6,Win32,60,IwAR3R5PMcyePkaTCmI2UcelYmKvlv8dysMTiNvE4jYs1WxaZh729grXaSXYk,,,,,,,,,,,
,,,,,,,,,,,,,,a,1,0.954,space,0.037,0,56,56,192,1,0_targ_16_dist_green/trial18.png,,,0,16,greenverival,a,98,20,F,2021-02-22_15h06.52.352,exp11,2020.2.6,Win32,60,IwAR3R5PMcyePkaTCmI2UcelYmKvlv8dysMTiNvE4jYs1WxaZh729grXaSXYk,,,,,,,,,,,
,,,,,,,,,,,,,,a,1,0.722,space,0.051,0,57,57,111,1,0_targ_1_dist_green/trial12.png,,,0,1,greenverival,a,98,20,F,2021-02-22_15h06.52.352,exp11,2020.2.6,Win32,60,IwAR3R5PMcyePkaTCmI2UcelYmKvlv8dysMTiNvE4jYs1WxaZh729grXaSXYk,,,,,,,,,,,
,,,,,,,,,,,,,,a,1,0.705,space,0.005,0,58,58,178,1,0_targ_16_dist_green/trial4.png,,,0,16,greenverival,a,98,20,F,2021-02-22_15h06.52.352,exp11,2020.2.6,Win32,60,IwAR3R5PMcyePkaTCmI2UcelYmKvlv8dysMTiNvE4jYs1WxaZh729grXaSXYk,,,,,,,,,,,
,,,,,,,,,,,,,,a,1,0.739,space,0.05,0,59,59,124,1,0_targ_1_dist_green/trial25.png,,,0,1,greenverival,a,98,20,F,2021-02-22_15h06.52.352,exp11,2020.2.6,Win32,60,IwAR3R5PMcyePkaTCmI2UcelYmKvlv8dysMTiNvE4jYs1WxaZh729grXaSXYk,,,,,,,,,,,
,,,,,,,,,,,,,,a,1,0.671,space,0.068,0,60,60,137,1,0_targ_4_dist_green/trial13.png,,,0,4,greenverival,a,98,20,F,2021-02-22_15h06.52.352,exp11,2020.2.6,Win32,60,IwAR3R5PMcyePkaTCmI2UcelYmKvlv8dysMTiNvE4jYs1WxaZh729grXaSXYk,,,,,,,,,,,
,,,,,,,,,,,,,,p,1,0.673,space,0.037,0,61,61,53,1,9_dist_green/trial4.png,,,1,9,greenverival,p,98,20,F,2021-02-22_15h06.52.352,exp11,2020.2.6,Win32,60,IwAR3R5PMcyePkaTCmI2UcelYmKvlv8dysMTiNvE4jYs1WxaZh729grXaSXYk,,,,,,,,,,,
,,,,,,,,,,,,,,a,1,0.77,space,0.083,0,62,62,169,1,0_targ_10_dist_green/trial20.png,,,0,10,greenverival,a,98,20,F,2021-02-22_15h06.52.352,exp11,2020.2.6,Win32,60,IwAR3R5PMcyePkaTCmI2UcelYmKvlv8dysMTiNvE4jYs1WxaZh729grXaSXYk,,,,,,,,,,,
,,,,,,,,,,,,,,a,1,0.804,space,0.05,0,63,63,177,1,0_targ_16_dist_green/trial3.png,,,0,16,greenverival,a,98,20,F,2021-02-22_15h06.52.352,exp11,2020.2.6,Win32,60,IwAR3R5PMcyePkaTCmI2UcelYmKvlv8dysMTiNvE4jYs1WxaZh729grXaSXYk,,,,,,,,,,,
,,,,,,,,,,,,,,a,1,0.739,space,0.106,0,64,64,104,1,0_targ_1_dist_green/trial5.png,,,0,1,greenverival,a,98,20,F,2021-02-22_15h06.52.352,exp11,2020.2.6,Win32,60,IwAR3R5PMcyePkaTCmI2UcelYmKvlv8dysMTiNvE4jYs1WxaZh729grXaSXYk,,,,,,,,,,,
,,,,,,,,,,,,,,p,1,0.655,space,0.034,0,65,65,14,1,0_dist_green/trial15.png,,,1,0,greenverival,p,98,20,F,2021-02-22_15h06.52.352,exp11,2020.2.6,Win32,60,IwAR3R5PMcyePkaTCmI2UcelYmKvlv8dysMTiNvE4jYs1WxaZh729grXaSXYk,,,,,,,,,,,
,,,,,,,,,,,,,,p,1,0.639,space,0.035,0,66,66,67,1,9_dist_green/trial18.png,,,1,9,greenverival,p,98,20,F,2021-02-22_15h06.52.352,exp11,2020.2.6,Win32,60,IwAR3R5PMcyePkaTCmI2UcelYmKvlv8dysMTiNvE4jYs1WxaZh729grXaSXYk,,,,,,,,,,,
,,,,,,,,,,,,,,p,1,0.554,space,0.084,0,67,67,96,1,15_dist_green/trial22.png,,,1,15,greenverival,p,98,20,F,2021-02-22_15h06.52.352,exp11,2020.2.6,Win32,60,IwAR3R5PMcyePkaTCmI2UcelYmKvlv8dysMTiNvE4jYs1WxaZh729grXaSXYk,,,,,,,,,,,
,,,,,,,,,,,,,,a,1,0.589,space,0.036,0,68,68,109,1,0_targ_1_dist_green/trial10.png,,,0,1,greenverival,a,98,20,F,2021-02-22_15h06.52.352,exp11,2020.2.6,Win32,60,IwAR3R5PMcyePkaTCmI2UcelYmKvlv8dysMTiNvE4jYs1WxaZh729grXaSXYk,,,,,,,,,,,
,,,,,,,,,,,,,,p,1,0.737,space,0.033,0,69,69,46,1,3_dist_green/trial22.png,,,1,3,greenverival,p,98,20,F,2021-02-22_15h06.52.352,exp11,2020.2.6,Win32,60,IwAR3R5PMcyePkaTCmI2UcelYmKvlv8dysMTiNvE4jYs1WxaZh729grXaSXYk,,,,,,,,,,,
,,,,,,,,,,,,,,p,1,0.687,space,0.017,0,70,70,69,1,9_dist_green/trial20.png,,,1,9,greenverival,p,98,20,F,2021-02-22_15h06.52.352,exp11,2020.2.6,Win32,60,IwAR3R5PMcyePkaTCmI2UcelYmKvlv8dysMTiNvE4jYs1WxaZh729grXaSXYk,,,,,,,,,,,
,,,,,,,,,,,,,,p,1,0.604,space,0.067,0,71,71,4,1,0_dist_green/trial5.png,,,1,0,greenverival,p,98,20,F,2021-02-22_15h06.52.352,exp11,2020.2.6,Win32,60,IwAR3R5PMcyePkaTCmI2UcelYmKvlv8dysMTiNvE4jYs1WxaZh729grXaSXYk,,,,,,,,,,,
,,,,,,,,,,,,,,a,1,0.674,space,0.053,0,72,72,131,1,0_targ_4_dist_green/trial7.png,,,0,4,greenverival,a,98,20,F,2021-02-22_15h06.52.352,exp11,2020.2.6,Win32,60,IwAR3R5PMcyePkaTCmI2UcelYmKvlv8dysMTiNvE4jYs1WxaZh729grXaSXYk,,,,,,,,,,,
,,,,,,,,,,,,,,a,1,0.752,space,0.052,0,73,73,190,1,0_targ_16_dist_green/trial16.png,,,0,16,greenverival,a,98,20,F,2021-02-22_15h06.52.352,exp11,2020.2.6,Win32,60,IwAR3R5PMcyePkaTCmI2UcelYmKvlv8dysMTiNvE4jYs1WxaZh729grXaSXYk,,,,,,,,,,,
,,,,,,,,,,,,,,p,1,0.788,space,0.033,0,74,74,5,1,0_dist_green/trial6.png,,,1,0,greenverival,p,98,20,F,2021-02-22_15h06.52.352,exp11,2020.2.6,Win32,60,IwAR3R5PMcyePkaTCmI2UcelYmKvlv8dysMTiNvE4jYs1WxaZh729grXaSXYk,,,,,,,,,,,
,,,,,,,,,,,,,,a,1,0.954,space,0.001,0,75,75,168,1,0_targ_10_dist_green/trial19.png,,,0,10,greenverival,a,98,20,F,2021-02-22_15h06.52.352,exp11,2020.2.6,Win32,60,IwAR3R5PMcyePkaTCmI2UcelYmKvlv8dysMTiNvE4jYs1WxaZh729grXaSXYk,,,,,,,,,,,
,,,,,,,,,,,,,,p,1,0.755,space,0.036,0,76,76,36,1,3_dist_green/trial12.png,,,1,3,greenverival,p,98,20,F,2021-02-22_15h06.52.352,exp11,2020.2.6,Win32,60,IwAR3R5PMcyePkaTCmI2UcelYmKvlv8dysMTiNvE4jYs1WxaZh729grXaSXYk,,,,,,,,,,,
,,,,,,,,,,,,,,a,1,0.771,space,0.087,0,77,77,112,1,0_targ_1_dist_green/trial13.png,,,0,1,greenverival,a,98,20,F,2021-02-22_15h06.52.352,exp11,2020.2.6,Win32,60,IwAR3R5PMcyePkaTCmI2UcelYmKvlv8dysMTiNvE4jYs1WxaZh729grXaSXYk,,,,,,,,,,,
,,,,,,,,,,,,,,p,0,0.589,space,0.169,0,78,78,100,1,0_targ_1_dist_green/trial1.png,,,0,1,greenverival,a,98,20,F,2021-02-22_15h06.52.352,exp11,2020.2.6,Win32,60,IwAR3R5PMcyePkaTCmI2UcelYmKvlv8dysMTiNvE4jYs1WxaZh729grXaSXYk,,,,,,,,,,,
,,,,,,,,,,,,,,a,1,0.847,space,0.896,0,79,79,126,1,0_targ_4_dist_green/trial2.png,,,0,4,greenverival,a,98,20,F,2021-02-22_15h06.52.352,exp11,2020.2.6,Win32,60,IwAR3R5PMcyePkaTCmI2UcelYmKvlv8dysMTiNvE4jYs1WxaZh729grXaSXYk,,,,,,,,,,,
,,,,,,,,,,,,,,a,1,0.673,space,0.066,0,80,80,141,1,0_targ_4_dist_green/trial17.png,,,0,4,greenverival,a,98,20,F,2021-02-22_15h06.52.352,exp11,2020.2.6,Win32,60,IwAR3R5PMcyePkaTCmI2UcelYmKvlv8dysMTiNvE4jYs1WxaZh729grXaSXYk,,,,,,,,,,,
,,,,,,,,,,,,,,p,1,0.775,space,0.051,0,81,81,74,1,9_dist_green/trial25.png,,,1,9,greenverival,p,98,20,F,2021-02-22_15h06.52.352,exp11,2020.2.6,Win32,60,IwAR3R5PMcyePkaTCmI2UcelYmKvlv8dysMTiNvE4jYs1WxaZh729grXaSXYk,,,,,,,,,,,
,,,,,,,,,,,,,,a,1,0.618,space,0.067,0,82,82,103,1,0_targ_1_dist_green/trial4.png,,,0,1,greenverival,a,98,20,F,2021-02-22_15h06.52.352,exp11,2020.2.6,Win32,60,IwAR3R5PMcyePkaTCmI2UcelYmKvlv8dysMTiNvE4jYs1WxaZh729grXaSXYk,,,,,,,,,,,
,,,,,,,,,,,,,,p,1,1.315,space,0.051,0,83,83,52,1,9_dist_green/trial3.png,,,1,9,greenverival,p,98,20,F,2021-02-22_15h06.52.352,exp11,2020.2.6,Win32,60,IwAR3R5PMcyePkaTCmI2UcelYmKvlv8dysMTiNvE4jYs1WxaZh729grXaSXYk,,,,,,,,,,,
,,,,,,,,,,,,,,p,1,0.604,space,0.084,0,84,84,57,1,9_dist_green/trial8.png,,,1,9,greenverival,p,98,20,F,2021-02-22_15h06.52.352,exp11,2020.2.6,Win32,60,IwAR3R5PMcyePkaTCmI2UcelYmKvlv8dysMTiNvE4jYs1WxaZh729grXaSXYk,,,,,,,,,,,
,,,,,,,,,,,,,,p,1,0.687,space,0.069,0,85,85,15,1,0_dist_green/trial16.png,,,1,0,greenverival,p,98,20,F,2021-02-22_15h06.52.352,exp11,2020.2.6,Win32,60,IwAR3R5PMcyePkaTCmI2UcelYmKvlv8dysMTiNvE4jYs1WxaZh729grXaSXYk,,,,,,,,,,,
,,,,,,,,,,,,,,a,1,0.722,space,0.033,0,86,86,105,1,0_targ_1_dist_green/trial6.png,,,0,1,greenverival,a,98,20,F,2021-02-22_15h06.52.352,exp11,2020.2.6,Win32,60,IwAR3R5PMcyePkaTCmI2UcelYmKvlv8dysMTiNvE4jYs1WxaZh729grXaSXYk,,,,,,,,,,,
,,,,,,,,,,,,,,a,1,0.923,space,0.051,0,87,87,188,1,0_targ_16_dist_green/trial14.png,,,0,16,greenverival,a,98,20,F,2021-02-22_15h06.52.352,exp11,2020.2.6,Win32,60,IwAR3R5PMcyePkaTCmI2UcelYmKvlv8dysMTiNvE4jYs1WxaZh729grXaSXYk,,,,,,,,,,,
,,,,,,,,,,,,,,p,1,0.838,space,0.051,0,88,88,31,1,3_dist_green/trial7.png,,,1,3,greenverival,p,98,20,F,2021-02-22_15h06.52.352,exp11,2020.2.6,Win32,60,IwAR3R5PMcyePkaTCmI2UcelYmKvlv8dysMTiNvE4jYs1WxaZh729grXaSXYk,,,,,,,,,,,
,,,,,,,,,,,,,,p,1,0.704,space,0.019,0,89,89,65,1,9_dist_green/trial16.png,,,1,9,greenverival,p,98,20,F,2021-02-22_15h06.52.352,exp11,2020.2.6,Win32,60,IwAR3R5PMcyePkaTCmI2UcelYmKvlv8dysMTiNvE4jYs1WxaZh729grXaSXYk,,,,,,,,,,,
,,,,,,,,,,,,,,a,1,0.787,space,0.057,0,90,90,155,1,0_targ_10_dist_green/trial6.png,,,0,10,greenverival,a,98,20,F,2021-02-22_15h06.52.352,exp11,2020.2.6,Win32,60,IwAR3R5PMcyePkaTCmI2UcelYmKvlv8dysMTiNvE4jYs1WxaZh729grXaSXYk,,,,,,,,,,,
,,,,,,,,,,,,,,a,1,0.739,space,0.068,0,91,91,118,1,0_targ_1_dist_green/trial19.png,,,0,1,greenverival,a,98,20,F,2021-02-22_15h06.52.352,exp11,2020.2.6,Win32,60,IwAR3R5PMcyePkaTCmI2UcelYmKvlv8dysMTiNvE4jYs1WxaZh729grXaSXYk,,,,,,,,,,,
,,,,,,,,,,,,,,p,1,0.672,space,0.068,0,92,92,28,1,3_dist_green/trial4.png,,,1,3,greenverival,p,98,20,F,2021-02-22_15h06.52.352,exp11,2020.2.6,Win32,60,IwAR3R5PMcyePkaTCmI2UcelYmKvlv8dysMTiNvE4jYs1WxaZh729grXaSXYk,,,,,,,,,,,
,,,,,,,,,,,,,,a,1,0.721,space,0.035,0,93,93,134,1,0_targ_4_dist_green/trial10.png,,,0,4,greenverival,a,98,20,F,2021-02-22_15h06.52.352,exp11,2020.2.6,Win32,60,IwAR3R5PMcyePkaTCmI2UcelYmKvlv8dysMTiNvE4jYs1WxaZh729grXaSXYk,,,,,,,,,,,
,,,,,,,,,,,,,,p,1,0.625,space,0.018,0,94,94,64,1,9_dist_green/trial15.png,,,1,9,greenverival,p,98,20,F,2021-02-22_15h06.52.352,exp11,2020.2.6,Win32,60,IwAR3R5PMcyePkaTCmI2UcelYmKvlv8dysMTiNvE4jYs1WxaZh729grXaSXYk,,,,,,,,,,,
,,,,,,,,,,,,,,p,1,0.888,space,0.034,0,95,95,56,1,9_dist_green/trial7.png,,,1,9,greenverival,p,98,20,F,2021-02-22_15h06.52.352,exp11,2020.2.6,Win32,60,IwAR3R5PMcyePkaTCmI2UcelYmKvlv8dysMTiNvE4jYs1WxaZh729grXaSXYk,,,,,,,,,,,
,,,,,,,,,,,,,,a,0,0.805,space,0.4,0,96,96,97,1,15_dist_green/trial23.png,,,1,15,greenverival,p,98,20,F,2021-02-22_15h06.52.352,exp11,2020.2.6,Win32,60,IwAR3R5PMcyePkaTCmI2UcelYmKvlv8dysMTiNvE4jYs1WxaZh729grXaSXYk,,,,,,,,,,,
,,,,,,,,,,,,,,a,1,0.833,space,0.001,0,97,97,153,1,0_targ_10_dist_green/trial4.png,,,0,10,greenverival,a,98,20,F,2021-02-22_15h06.52.352,exp11,2020.2.6,Win32,60,IwAR3R5PMcyePkaTCmI2UcelYmKvlv8dysMTiNvE4jYs1WxaZh729grXaSXYk,,,,,,,,,,,
,,,,,,,,,,,,,,a,1,0.804,space,0.051,0,98,98,171,1,0_targ_10_dist_green/trial22.png,,,0,10,greenverival,a,98,20,F,2021-02-22_15h06.52.352,exp11,2020.2.6,Win32,60,IwAR3R5PMcyePkaTCmI2UcelYmKvlv8dysMTiNvE4jYs1WxaZh729grXaSXYk,,,,,,,,,,,
,,,,,,,,,,,,,,p,1,0.902,space,0.052,0,99,99,54,1,9_dist_green/trial5.png,,,1,9,greenverival,p,98,20,F,2021-02-22_15h06.52.352,exp11,2020.2.6,Win32,60,IwAR3R5PMcyePkaTCmI2UcelYmKvlv8dysMTiNvE4jYs1WxaZh729grXaSXYk,,,,,,,,,,,
,,,,,,,,,,,,,,p,1,0.588,space,0.055,0,100,100,0,1,0_dist_green/trial1.png,,,1,0,greenverival,p,98,20,F,2021-02-22_15h06.52.352,exp11,2020.2.6,Win32,60,IwAR3R5PMcyePkaTCmI2UcelYmKvlv8dysMTiNvE4jYs1WxaZh729grXaSXYk,,,,,,,,,,,
,,,,,,,,,,,,,,a,1,1.004,space,0.051,0,101,101,158,1,0_targ_10_dist_green/trial9.png,,,0,10,greenverival,a,98,20,F,2021-02-22_15h06.52.352,exp11,2020.2.6,Win32,60,IwAR3R5PMcyePkaTCmI2UcelYmKvlv8dysMTiNvE4jYs1WxaZh729grXaSXYk,,,,,,,,,,,
,,,,,,,,,,,,,,a,1,0.874,space,0.033,0,102,102,179,1,0_targ_16_dist_green/trial5.png,,,0,16,greenverival,a,98,20,F,2021-02-22_15h06.52.352,exp11,2020.2.6,Win32,60,IwAR3R5PMcyePkaTCmI2UcelYmKvlv8dysMTiNvE4jYs1WxaZh729grXaSXYk,,,,,,,,,,,
,,,,,,,,,,,,,,a,1,0.736,space,0.082,0,103,103,119,1,0_targ_1_dist_green/trial20.png,,,0,1,greenverival,a,98,20,F,2021-02-22_15h06.52.352,exp11,2020.2.6,Win32,60,IwAR3R5PMcyePkaTCmI2UcelYmKvlv8dysMTiNvE4jYs1WxaZh729grXaSXYk,,,,,,,,,,,
,,,,,,,,,,,,,,a,1,0.572,space,0.071,0,104,104,138,1,0_targ_4_dist_green/trial14.png,,,0,4,greenverival,a,98,20,F,2021-02-22_15h06.52.352,exp11,2020.2.6,Win32,60,IwAR3R5PMcyePkaTCmI2UcelYmKvlv8dysMTiNvE4jYs1WxaZh729grXaSXYk,,,,,,,,,,,
,,,,,,,,,,,,,,a,1,0.736,space,0.1,0,105,105,151,1,0_targ_10_dist_green/trial2.png,,,0,10,greenverival,a,98,20,F,2021-02-22_15h06.52.352,exp11,2020.2.6,Win32,60,IwAR3R5PMcyePkaTCmI2UcelYmKvlv8dysMTiNvE4jYs1WxaZh729grXaSXYk,,,,,,,,,,,
,,,,,,,,,,,,,,p,1,0.651,space,0.05,0,106,106,37,1,3_dist_green/trial13.png,,,1,3,greenverival,p,98,20,F,2021-02-22_15h06.52.352,exp11,2020.2.6,Win32,60,IwAR3R5PMcyePkaTCmI2UcelYmKvlv8dysMTiNvE4jYs1WxaZh729grXaSXYk,,,,,,,,,,,
,,,,,,,,,,,,,,p,1,0.738,space,0.034,0,107,107,58,1,9_dist_green/trial9.png,,,1,9,greenverival,p,98,20,F,2021-02-22_15h06.52.352,exp11,2020.2.6,Win32,60,IwAR3R5PMcyePkaTCmI2UcelYmKvlv8dysMTiNvE4jYs1WxaZh729grXaSXYk,,,,,,,,,,,
,,,,,,,,,,,,,,a,1,0.689,space,0.072,0,108,108,140,1,0_targ_4_dist_green/trial6.png,,,0,4,greenverival,a,98,20,F,2021-02-22_15h06.52.352,exp11,2020.2.6,Win32,60,IwAR3R5PMcyePkaTCmI2UcelYmKvlv8dysMTiNvE4jYs1WxaZh729grXaSXYk,,,,,,,,,,,
,,,,,,,,,,,,,,p,1,0.639,space,0.022,0,109,109,43,1,3_dist_green/trial19.png,,,1,3,greenverival,p,98,20,F,2021-02-22_15h06.52.352,exp11,2020.2.6,Win32,60,IwAR3R5PMcyePkaTCmI2UcelYmKvlv8dysMTiNvE4jYs1WxaZh729grXaSXYk,,,,,,,,,,,
,,,,,,,,,,,,,,a,1,0.739,space,0.804,0,110,110,122,1,0_targ_1_dist_green/trial23.png,,,0,1,greenverival,a,98,20,F,2021-02-22_15h06.52.352,exp11,2020.2.6,Win32,60,IwAR3R5PMcyePkaTCmI2UcelYmKvlv8dysMTiNvE4jYs1WxaZh729grXaSXYk,,,,,,,,,,,
,,,,,,,,,,,,,,p,1,0.688,space,0.051,0,111,111,60,1,9_dist_green/trial11.png,,,1,9,greenverival,p,98,20,F,2021-02-22_15h06.52.352,exp11,2020.2.6,Win32,60,IwAR3R5PMcyePkaTCmI2UcelYmKvlv8dysMTiNvE4jYs1WxaZh729grXaSXYk,,,,,,,,,,,
,,,,,,,,,,,,,,p,1,1.17,space,0.049,0,112,112,78,1,15_dist_green/trial4.png,,,1,15,greenverival,p,98,20,F,2021-02-22_15h06.52.352,exp11,2020.2.6,Win32,60,IwAR3R5PMcyePkaTCmI2UcelYmKvlv8dysMTiNvE4jYs1WxaZh729grXaSXYk,,,,,,,,,,,
,,,,,,,,,,,,,,p,1,0.885,space,0.067,0,113,113,51,1,9_dist_green/trial2.png,,,1,9,greenverival,p,98,20,F,2021-02-22_15h06.52.352,exp11,2020.2.6,Win32,60,IwAR3R5PMcyePkaTCmI2UcelYmKvlv8dysMTiNvE4jYs1WxaZh729grXaSXYk,,,,,,,,,,,
,,,,,,,,,,,,,,p,1,0.588,space,0.051,0,114,114,83,1,15_dist_green/trial9.png,,,1,15,greenverival,p,98,20,F,2021-02-22_15h06.52.352,exp11,2020.2.6,Win32,60,IwAR3R5PMcyePkaTCmI2UcelYmKvlv8dysMTiNvE4jYs1WxaZh729grXaSXYk,,,,,,,,,,,
,,,,,,,,,,,,,,a,1,0.755,space,0.023,0,115,115,183,1,0_targ_16_dist_green/trial9.png,,,0,16,greenverival,a,98,20,F,2021-02-22_15h06.52.352,exp11,2020.2.6,Win32,60,IwAR3R5PMcyePkaTCmI2UcelYmKvlv8dysMTiNvE4jYs1WxaZh729grXaSXYk,,,,,,,,,,,
,,,,,,,,,,,,,,a,1,0.856,space,0.055,0,116,116,159,1,0_targ_10_dist_green/trial10.png,,,0,10,greenverival,a,98,20,F,2021-02-22_15h06.52.352,exp11,2020.2.6,Win32,60,IwAR3R5PMcyePkaTCmI2UcelYmKvlv8dysMTiNvE4jYs1WxaZh729grXaSXYk,,,,,,,,,,,
,,,,,,,,,,,,,,a,1,0.871,space,0.068,0,117,117,184,1,0_targ_16_dist_green/trial10.png,,,0,16,greenverival,a,98,20,F,2021-02-22_15h06.52.352,exp11,2020.2.6,Win32,60,IwAR3R5PMcyePkaTCmI2UcelYmKvlv8dysMTiNvE4jYs1WxaZh729grXaSXYk,,,,,,,,,,,
,,,,,,,,,,,,,,p,1,0.92,space,0.083,0,118,118,84,1,15_dist_green/trial10.png,,,1,15,greenverival,p,98,20,F,2021-02-22_15h06.52.352,exp11,2020.2.6,Win32,60,IwAR3R5PMcyePkaTCmI2UcelYmKvlv8dysMTiNvE4jYs1WxaZh729grXaSXYk,,,,,,,,,,,
,,,,,,,,,,,,,,p,1,0.805,space,0.071,0,119,119,72,1,9_dist_green/trial23.png,,,1,9,greenverival,p,98,20,F,2021-02-22_15h06.52.352,exp11,2020.2.6,Win32,60,IwAR3R5PMcyePkaTCmI2UcelYmKvlv8dysMTiNvE4jYs1WxaZh729grXaSXYk,,,,,,,,,,,
,,,,,,,,,,,,,,a,0,0.723,space,0.072,0,120,120,80,1,15_dist_green/trial6.png,,,1,15,greenverival,p,98,20,F,2021-02-22_15h06.52.352,exp11,2020.2.6,Win32,60,IwAR3R5PMcyePkaTCmI2UcelYmKvlv8dysMTiNvE4jYs1WxaZh729grXaSXYk,,,,,,,,,,,
,,,,,,,,,,,,,,a,1,0.905,space,0.115,0,121,121,194,1,0_targ_16_dist_green/trial20.png,,,0,16,greenverival,a,98,20,F,2021-02-22_15h06.52.352,exp11,2020.2.6,Win32,60,IwAR3R5PMcyePkaTCmI2UcelYmKvlv8dysMTiNvE4jYs1WxaZh729grXaSXYk,,,,,,,,,,,
,,,,,,,,,,,,,,a,1,0.704,space,0.051,0,122,122,143,1,0_targ_4_dist_green/trial19.png,,,0,4,greenverival,a,98,20,F,2021-02-22_15h06.52.352,exp11,2020.2.6,Win32,60,IwAR3R5PMcyePkaTCmI2UcelYmKvlv8dysMTiNvE4jYs1WxaZh729grXaSXYk,,,,,,,,,,,
,,,,,,,,,,,,,,a,1,0.638,space,0.033,0,123,123,107,1,0_targ_1_dist_green/trial8.png,,,0,1,greenverival,a,98,20,F,2021-02-22_15h06.52.352,exp11,2020.2.6,Win32,60,IwAR3R5PMcyePkaTCmI2UcelYmKvlv8dysMTiNvE4jYs1WxaZh729grXaSXYk,,,,,,,,,,,
,,,,,,,,,,,,,,p,1,0.656,space,0.033,0,124,124,61,1,9_dist_green/trial12.png,,,1,9,greenverival,p,98,20,F,2021-02-22_15h06.52.352,exp11,2020.2.6,Win32,60,IwAR3R5PMcyePkaTCmI2UcelYmKvlv8dysMTiNvE4jYs1WxaZh729grXaSXYk,,,,,,,,,,,
,,,,,,,,,,,,,,a,1,0.903,space,0.021,0,125,125,167,1,0_targ_10_dist_green/trial18.png,,,0,10,greenverival,a,98,20,F,2021-02-22_15h06.52.352,exp11,2020.2.6,Win32,60,IwAR3R5PMcyePkaTCmI2UcelYmKvlv8dysMTiNvE4jYs1WxaZh729grXaSXYk,,,,,,,,,,,
,,,,,,,,,,,,,,a,1,0.776,space,0.067,0,126,126,117,1,0_targ_1_dist_green/trial18.png,,,0,1,greenverival,a,98,20,F,2021-02-22_15h06.52.352,exp11,2020.2.6,Win32,60,IwAR3R5PMcyePkaTCmI2UcelYmKvlv8dysMTiNvE4jYs1WxaZh729grXaSXYk,,,,,,,,,,,
,,,,,,,,,,,,,,p,1,0.788,space,0.033,0,127,127,42,1,3_dist_green/trial18.png,,,1,3,greenverival,p,98,20,F,2021-02-22_15h06.52.352,exp11,2020.2.6,Win32,60,IwAR3R5PMcyePkaTCmI2UcelYmKvlv8dysMTiNvE4jYs1WxaZh729grXaSXYk,,,,,,,,,,,
,,,,,,,,,,,,,,p,1,0.821,space,0.034,0,128,128,79,1,15_dist_green/trial5.png,,,1,15,greenverival,p,98,20,F,2021-02-22_15h06.52.352,exp11,2020.2.6,Win32,60,IwAR3R5PMcyePkaTCmI2UcelYmKvlv8dysMTiNvE4jYs1WxaZh729grXaSXYk,,,,,,,,,,,
,,,,,,,,,,,,,,p,1,0.538,space,0.033,0,129,129,88,1,15_dist_green/trial14.png,,,1,15,greenverival,p,98,20,F,2021-02-22_15h06.52.352,exp11,2020.2.6,Win32,60,IwAR3R5PMcyePkaTCmI2UcelYmKvlv8dysMTiNvE4jYs1WxaZh729grXaSXYk,,,,,,,,,,,
,,,,,,,,,,,,,,p,1,0.621,space,0.034,0,130,130,71,1,9_dist_green/trial22.png,,,1,9,greenverival,p,98,20,F,2021-02-22_15h06.52.352,exp11,2020.2.6,Win32,60,IwAR3R5PMcyePkaTCmI2UcelYmKvlv8dysMTiNvE4jYs1WxaZh729grXaSXYk,,,,,,,,,,,
,,,,,,,,,,,,,,a,1,0.755,space,0.084,0,131,131,125,1,0_targ_4_dist_green/trial1.png,,,0,4,greenverival,a,98,20,F,2021-02-22_15h06.52.352,exp11,2020.2.6,Win32,60,IwAR3R5PMcyePkaTCmI2UcelYmKvlv8dysMTiNvE4jYs1WxaZh729grXaSXYk,,,,,,,,,,,
,,,,,,,,,,,,,,p,1,0.756,space,0.017,0,132,132,26,1,3_dist_green/trial2.png,,,1,3,greenverival,p,98,20,F,2021-02-22_15h06.52.352,exp11,2020.2.6,Win32,60,IwAR3R5PMcyePkaTCmI2UcelYmKvlv8dysMTiNvE4jYs1WxaZh729grXaSXYk,,,,,,,,,,,
,,,,,,,,,,,,,,a,1,0.689,space,0.066,0,133,133,152,1,0_targ_10_dist_green/trial3.png,,,0,10,greenverival,a,98,20,F,2021-02-22_15h06.52.352,exp11,2020.2.6,Win32,60,IwAR3R5PMcyePkaTCmI2UcelYmKvlv8dysMTiNvE4jYs1WxaZh729grXaSXYk,,,,,,,,,,,
,,,,,,,,,,,,,,a,1,0.854,space,0.034,0,134,134,185,1,0_targ_16_dist_green/trial11.png,,,0,16,greenverival,a,98,20,F,2021-02-22_15h06.52.352,exp11,2020.2.6,Win32,60,IwAR3R5PMcyePkaTCmI2UcelYmKvlv8dysMTiNvE4jYs1WxaZh729grXaSXYk,,,,,,,,,,,
,,,,,,,,,,,,,,p,1,0.837,space,0.017,0,135,135,7,1,0_dist_green/trial8.png,,,1,0,greenverival,p,98,20,F,2021-02-22_15h06.52.352,exp11,2020.2.6,Win32,60,IwAR3R5PMcyePkaTCmI2UcelYmKvlv8dysMTiNvE4jYs1WxaZh729grXaSXYk,,,,,,,,,,,
,,,,,,,,,,,,,,a,1,0.804,space,0.018,0,136,136,150,1,0_targ_10_dist_green/trial1.png,,,0,10,greenverival,a,98,20,F,2021-02-22_15h06.52.352,exp11,2020.2.6,Win32,60,IwAR3R5PMcyePkaTCmI2UcelYmKvlv8dysMTiNvE4jYs1WxaZh729grXaSXYk,,,,,,,,,,,
,,,,,,,,,,,,,,a,1,0.771,space,0.067,0,137,137,120,1,0_targ_1_dist_green/trial21.png,,,0,1,greenverival,a,98,20,F,2021-02-22_15h06.52.352,exp11,2020.2.6,Win32,60,IwAR3R5PMcyePkaTCmI2UcelYmKvlv8dysMTiNvE4jYs1WxaZh729grXaSXYk,,,,,,,,,,,
,,,,,,,,,,,,,,a,1,0.839,space,0.066,0,138,138,198,1,0_targ_16_dist_green/trial24.png,,,0,16,greenverival,a,98,20,F,2021-02-22_15h06.52.352,exp11,2020.2.6,Win32,60,IwAR3R5PMcyePkaTCmI2UcelYmKvlv8dysMTiNvE4jYs1WxaZh729grXaSXYk,,,,,,,,,,,
,,,,,,,,,,,,,,p,1,0.672,space,0.002,0,139,139,17,1,0_dist_green/trial18.png,,,1,0,greenverival,p,98,20,F,2021-02-22_15h06.52.352,exp11,2020.2.6,Win32,60,IwAR3R5PMcyePkaTCmI2UcelYmKvlv8dysMTiNvE4jYs1WxaZh729grXaSXYk,,,,,,,,,,,
,,,,,,,,,,,,,,p,1,0.59,space,0.037,0,140,140,47,1,3_dist_green/trial23.png,,,1,3,greenverival,p,98,20,F,2021-02-22_15h06.52.352,exp11,2020.2.6,Win32,60,IwAR3R5PMcyePkaTCmI2UcelYmKvlv8dysMTiNvE4jYs1WxaZh729grXaSXYk,,,,,,,,,,,
,,,,,,,,,,,,,,a,1,0.687,space,0.036,0,141,141,162,1,0_targ_10_dist_green/trial13.png,,,0,10,greenverival,a,98,20,F,2021-02-22_15h06.52.352,exp11,2020.2.6,Win32,60,IwAR3R5PMcyePkaTCmI2UcelYmKvlv8dysMTiNvE4jYs1WxaZh729grXaSXYk,,,,,,,,,,,
,,,,,,,,,,,,,,a,1,0.62,space,0.068,0,142,142,128,1,0_targ_4_dist_green/trial4.png,,,0,4,greenverival,a,98,20,F,2021-02-22_15h06.52.352,exp11,2020.2.6,Win32,60,IwAR3R5PMcyePkaTCmI2UcelYmKvlv8dysMTiNvE4jYs1WxaZh729grXaSXYk,,,,,,,,,,,
,,,,,,,,,,,,,,p,1,0.605,space,0.034,0,143,143,13,1,0_dist_green/trial14.png,,,1,0,greenverival,p,98,20,F,2021-02-22_15h06.52.352,exp11,2020.2.6,Win32,60,IwAR3R5PMcyePkaTCmI2UcelYmKvlv8dysMTiNvE4jYs1WxaZh729grXaSXYk,,,,,,,,,,,
,,,,,,,,,,,,,,p,1,0.638,space,0.05,0,144,144,70,1,9_dist_green/trial21.png,,,1,9,greenverival,p,98,20,F,2021-02-22_15h06.52.352,exp11,2020.2.6,Win32,60,IwAR3R5PMcyePkaTCmI2UcelYmKvlv8dysMTiNvE4jYs1WxaZh729grXaSXYk,,,,,,,,,,,
,,,,,,,,,,,,,,p,1,0.834,space,0.033,0,145,145,50,1,9_dist_green/trial1.png,,,1,9,greenverival,p,98,20,F,2021-02-22_15h06.52.352,exp11,2020.2.6,Win32,60,IwAR3R5PMcyePkaTCmI2UcelYmKvlv8dysMTiNvE4jYs1WxaZh729grXaSXYk,,,,,,,,,,,
,,,,,,,,,,,,,,p,1,0.711,space,0.051,0,146,146,93,1,15_dist_green/trial19.png,,,1,15,greenverival,p,98,20,F,2021-02-22_15h06.52.352,exp11,2020.2.6,Win32,60,IwAR3R5PMcyePkaTCmI2UcelYmKvlv8dysMTiNvE4jYs1WxaZh729grXaSXYk,,,,,,,,,,,
,,,,,,,,,,,,,,p,1,0.573,space,0.017,0,147,147,73,1,9_dist_green/trial24.png,,,1,9,greenverival,p,98,20,F,2021-02-22_15h06.52.352,exp11,2020.2.6,Win32,60,IwAR3R5PMcyePkaTCmI2UcelYmKvlv8dysMTiNvE4jYs1WxaZh729grXaSXYk,,,,,,,,,,,
,,,,,,,,,,,,,,p,1,0.516,space,0.055,0,148,148,59,1,9_dist_green/trial10.png,,,1,9,greenverival,p,98,20,F,2021-02-22_15h06.52.352,exp11,2020.2.6,Win32,60,IwAR3R5PMcyePkaTCmI2UcelYmKvlv8dysMTiNvE4jYs1WxaZh729grXaSXYk,,,,,,,,,,,
,,,,,,,,,,,,,,p,1,0.938,space,0.023,0,149,149,66,1,9_dist_green/trial17.png,,,1,9,greenverival,p,98,20,F,2021-02-22_15h06.52.352,exp11,2020.2.6,Win32,60,IwAR3R5PMcyePkaTCmI2UcelYmKvlv8dysMTiNvE4jYs1WxaZh729grXaSXYk,,,,,,,,,,,
,,,,,,,,,,,,,,p,1,0.606,space,0.054,0,150,150,49,1,3_dist_green/trial25.png,,,1,3,greenverival,p,98,20,F,2021-02-22_15h06.52.352,exp11,2020.2.6,Win32,60,IwAR3R5PMcyePkaTCmI2UcelYmKvlv8dysMTiNvE4jYs1WxaZh729grXaSXYk,,,,,,,,,,,
,,,,,,,,,,,,,,a,1,0.792,space,0.134,0,151,151,195,1,0_targ_16_dist_green/trial21.png,,,0,16,greenverival,a,98,20,F,2021-02-22_15h06.52.352,exp11,2020.2.6,Win32,60,IwAR3R5PMcyePkaTCmI2UcelYmKvlv8dysMTiNvE4jYs1WxaZh729grXaSXYk,,,,,,,,,,,
,,,,,,,,,,,,,,p,1,0.704,space,0,0,152,152,19,1,0_dist_green/trial20.png,,,1,0,greenverival,p,98,20,F,2021-02-22_15h06.52.352,exp11,2020.2.6,Win32,60,IwAR3R5PMcyePkaTCmI2UcelYmKvlv8dysMTiNvE4jYs1WxaZh729grXaSXYk,,,,,,,,,,,
,,,,,,,,,,,,,,p,1,0.603,space,0.033,0,153,153,94,1,15_dist_green/trial20.png,,,1,15,greenverival,p,98,20,F,2021-02-22_15h06.52.352,exp11,2020.2.6,Win32,60,IwAR3R5PMcyePkaTCmI2UcelYmKvlv8dysMTiNvE4jYs1WxaZh729grXaSXYk,,,,,,,,,,,
,,,,,,,,,,,,,,a,1,0.737,space,0.017,0,154,154,135,1,0_targ_4_dist_green/trial11.png,,,0,4,greenverival,a,98,20,F,2021-02-22_15h06.52.352,exp11,2020.2.6,Win32,60,IwAR3R5PMcyePkaTCmI2UcelYmKvlv8dysMTiNvE4jYs1WxaZh729grXaSXYk,,,,,,,,,,,
,,,,,,,,,,,,,,p,1,0.856,space,0.047,0,155,155,6,1,0_dist_green/trial7.png,,,1,0,greenverival,p,98,20,F,2021-02-22_15h06.52.352,exp11,2020.2.6,Win32,60,IwAR3R5PMcyePkaTCmI2UcelYmKvlv8dysMTiNvE4jYs1WxaZh729grXaSXYk,,,,,,,,,,,
,,,,,,,,,,,,,,a,1,1.403,space,0.7,0,156,156,186,1,0_targ_16_dist_green/trial12.png,,,0,16,greenverival,a,98,20,F,2021-02-22_15h06.52.352,exp11,2020.2.6,Win32,60,IwAR3R5PMcyePkaTCmI2UcelYmKvlv8dysMTiNvE4jYs1WxaZh729grXaSXYk,,,,,,,,,,,
,,,,,,,,,,,,,,a,1,0.772,space,0.087,0,157,157,166,1,0_targ_10_dist_green/trial17.png,,,0,10,greenverival,a,98,20,F,2021-02-22_15h06.52.352,exp11,2020.2.6,Win32,60,IwAR3R5PMcyePkaTCmI2UcelYmKvlv8dysMTiNvE4jYs1WxaZh729grXaSXYk,,,,,,,,,,,
,,,,,,,,,,,,,,p,1,0.636,space,0.084,0,158,158,91,1,15_dist_green/trial17.png,,,1,15,greenverival,p,98,20,F,2021-02-22_15h06.52.352,exp11,2020.2.6,Win32,60,IwAR3R5PMcyePkaTCmI2UcelYmKvlv8dysMTiNvE4jYs1WxaZh729grXaSXYk,,,,,,,,,,,
,,,,,,,,,,,,,,a,1,0.739,space,0.083,0,159,159,156,1,0_targ_10_dist_green/trial7.png,,,0,10,greenverival,a,98,20,F,2021-02-22_15h06.52.352,exp11,2020.2.6,Win32,60,IwAR3R5PMcyePkaTCmI2UcelYmKvlv8dysMTiNvE4jYs1WxaZh729grXaSXYk,,,,,,,,,,,
,,,,,,,,,,,,,,a,1,0.97,space,0.02,0,160,160,139,1,0_targ_4_dist_green/trial15.png,,,0,4,greenverival,a,98,20,F,2021-02-22_15h06.52.352,exp11,2020.2.6,Win32,60,IwAR3R5PMcyePkaTCmI2UcelYmKvlv8dysMTiNvE4jYs1WxaZh729grXaSXYk,,,,,,,,,,,
,,,,,,,,,,,,,,a,1,0.638,space,0.133,0,161,161,174,1,0_targ_10_dist_green/trial25.png,,,0,10,greenverival,a,98,20,F,2021-02-22_15h06.52.352,exp11,2020.2.6,Win32,60,IwAR3R5PMcyePkaTCmI2UcelYmKvlv8dysMTiNvE4jYs1WxaZh729grXaSXYk,,,,,,,,,,,
,,,,,,,,,,,,,,a,1,0.656,space,0.117,0,162,162,172,1,0_targ_10_dist_green/trial23.png,,,0,10,greenverival,a,98,20,F,2021-02-22_15h06.52.352,exp11,2020.2.6,Win32,60,IwAR3R5PMcyePkaTCmI2UcelYmKvlv8dysMTiNvE4jYs1WxaZh729grXaSXYk,,,,,,,,,,,
,,,,,,,,,,,,,,p,1,0.622,space,0.051,0,163,163,12,1,0_dist_green/trial13.png,,,1,0,greenverival,p,98,20,F,2021-02-22_15h06.52.352,exp11,2020.2.6,Win32,60,IwAR3R5PMcyePkaTCmI2UcelYmKvlv8dysMTiNvE4jYs1WxaZh729grXaSXYk,,,,,,,,,,,
,,,,,,,,,,,,,,a,1,0.787,space,0.066,0,164,164,197,1,0_targ_16_dist_green/trial23.png,,,0,16,greenverival,a,98,20,F,2021-02-22_15h06.52.352,exp11,2020.2.6,Win32,60,IwAR3R5PMcyePkaTCmI2UcelYmKvlv8dysMTiNvE4jYs1WxaZh729grXaSXYk,,,,,,,,,,,
,,,,,,,,,,,,,,p,1,0.792,space,0.084,0,165,165,87,1,15_dist_green/trial13.png,,,1,15,greenverival,p,98,20,F,2021-02-22_15h06.52.352,exp11,2020.2.6,Win32,60,IwAR3R5PMcyePkaTCmI2UcelYmKvlv8dysMTiNvE4jYs1WxaZh729grXaSXYk,,,,,,,,,,,
,,,,,,,,,,,,,,p,1,0.79,space,0.067,0,166,166,68,1,9_dist_green/trial19.png,,,1,9,greenverival,p,98,20,F,2021-02-22_15h06.52.352,exp11,2020.2.6,Win32,60,IwAR3R5PMcyePkaTCmI2UcelYmKvlv8dysMTiNvE4jYs1WxaZh729grXaSXYk,,,,,,,,,,,
,,,,,,,,,,,,,,a,1,0.754,space,0.101,0,167,167,114,1,0_targ_1_dist_green/trial15.png,,,0,1,greenverival,a,98,20,F,2021-02-22_15h06.52.352,exp11,2020.2.6,Win32,60,IwAR3R5PMcyePkaTCmI2UcelYmKvlv8dysMTiNvE4jYs1WxaZh729grXaSXYk,,,,,,,,,,,
,,,,,,,,,,,,,,p,1,0.653,space,0.067,0,168,168,20,1,0_dist_green/trial21.png,,,1,0,greenverival,p,98,20,F,2021-02-22_15h06.52.352,exp11,2020.2.6,Win32,60,IwAR3R5PMcyePkaTCmI2UcelYmKvlv8dysMTiNvE4jYs1WxaZh729grXaSXYk,,,,,,,,,,,
,,,,,,,,,,,,,,a,1,0.704,space,0.071,0,169,169,130,1,0_targ_4_dist_green/trial6.png,,,0,4,greenverival,a,98,20,F,2021-02-22_15h06.52.352,exp11,2020.2.6,Win32,60,IwAR3R5PMcyePkaTCmI2UcelYmKvlv8dysMTiNvE4jYs1WxaZh729grXaSXYk,,,,,,,,,,,
,,,,,,,,,,,,,,p,1,1.041,space,0.067,0,170,170,30,1,3_dist_green/trial6.png,,,1,3,greenverival,p,98,20,F,2021-02-22_15h06.52.352,exp11,2020.2.6,Win32,60,IwAR3R5PMcyePkaTCmI2UcelYmKvlv8dysMTiNvE4jYs1WxaZh729grXaSXYk,,,,,,,,,,,
,,,,,,,,,,,,,,a,1,0.822,space,0.066,0,171,171,149,1,0_targ_4_dist_green/trial25.png,,,0,4,greenverival,a,98,20,F,2021-02-22_15h06.52.352,exp11,2020.2.6,Win32,60,IwAR3R5PMcyePkaTCmI2UcelYmKvlv8dysMTiNvE4jYs1WxaZh729grXaSXYk,,,,,,,,,,,
,,,,,,,,,,,,,,a,1,1.32,space,0.066,0,172,172,191,1,0_targ_16_dist_green/trial17.png,,,0,16,greenverival,a,98,20,F,2021-02-22_15h06.52.352,exp11,2020.2.6,Win32,60,IwAR3R5PMcyePkaTCmI2UcelYmKvlv8dysMTiNvE4jYs1WxaZh729grXaSXYk,,,,,,,,,,,
,,,,,,,,,,,,,,a,1,0.553,space,0.067,0,173,173,173,1,0_targ_10_dist_green/trial24.png,,,0,10,greenverival,a,98,20,F,2021-02-22_15h06.52.352,exp11,2020.2.6,Win32,60,IwAR3R5PMcyePkaTCmI2UcelYmKvlv8dysMTiNvE4jYs1WxaZh729grXaSXYk,,,,,,,,,,,
,,,,,,,,,,,,,,a,1,0.708,space,0.084,0,174,174,121,1,0_targ_1_dist_green/trial22.png,,,0,1,greenverival,a,98,20,F,2021-02-22_15h06.52.352,exp11,2020.2.6,Win32,60,IwAR3R5PMcyePkaTCmI2UcelYmKvlv8dysMTiNvE4jYs1WxaZh729grXaSXYk,,,,,,,,,,,
,,,,,,,,,,,,,,p,1,0.873,space,0.084,0,175,175,76,1,15_dist_green/trial2.png,,,1,15,greenverival,p,98,20,F,2021-02-22_15h06.52.352,exp11,2020.2.6,Win32,60,IwAR3R5PMcyePkaTCmI2UcelYmKvlv8dysMTiNvE4jYs1WxaZh729grXaSXYk,,,,,,,,,,,
,,,,,,,,,,,,,,a,1,0.786,space,0.034,0,176,176,180,1,0_targ_16_dist_green/trial6.png,,,0,16,greenverival,a,98,20,F,2021-02-22_15h06.52.352,exp11,2020.2.6,Win32,60,IwAR3R5PMcyePkaTCmI2UcelYmKvlv8dysMTiNvE4jYs1WxaZh729grXaSXYk,,,,,,,,,,,
,,,,,,,,,,,,,,p,1,0.754,space,0.04,0,177,177,62,1,9_dist_green/trial13.png,,,1,9,greenverival,p,98,20,F,2021-02-22_15h06.52.352,exp11,2020.2.6,Win32,60,IwAR3R5PMcyePkaTCmI2UcelYmKvlv8dysMTiNvE4jYs1WxaZh729grXaSXYk,,,,,,,,,,,
,,,,,,,,,,,,,,a,1,0.771,space,0.051,0,178,178,164,1,0_targ_10_dist_green/trial15.png,,,0,10,greenverival,a,98,20,F,2021-02-22_15h06.52.352,exp11,2020.2.6,Win32,60,IwAR3R5PMcyePkaTCmI2UcelYmKvlv8dysMTiNvE4jYs1WxaZh729grXaSXYk,,,,,,,,,,,
,,,,,,,,,,,,,,a,1,0.636,space,0.068,0,179,179,133,1,0_targ_4_dist_green/trial9.png,,,0,4,greenverival,a,98,20,F,2021-02-22_15h06.52.352,exp11,2020.2.6,Win32,60,IwAR3R5PMcyePkaTCmI2UcelYmKvlv8dysMTiNvE4jYs1WxaZh729grXaSXYk,,,,,,,,,,,
,,,,,,,,,,,,,,p,1,0.654,space,0.037,0,180,180,21,1,0_dist_green/trial22.png,,,1,0,greenverival,p,98,20,F,2021-02-22_15h06.52.352,exp11,2020.2.6,Win32,60,IwAR3R5PMcyePkaTCmI2UcelYmKvlv8dysMTiNvE4jYs1WxaZh729grXaSXYk,,,,,,,,,,,
,,,,,,,,,,,,,,a,1,0.654,space,0.067,0,181,181,157,1,0_targ_10_dist_green/trial8.png,,,0,10,greenverival,a,98,20,F,2021-02-22_15h06.52.352,exp11,2020.2.6,Win32,60,IwAR3R5PMcyePkaTCmI2UcelYmKvlv8dysMTiNvE4jYs1WxaZh729grXaSXYk,,,,,,,,,,,
,,,,,,,,,,,,,,a,1,0.798,space,0.086,0,182,182,106,1,0_targ_1_dist_green/trial7.png,,,0,1,greenverival,a,98,20,F,2021-02-22_15h06.52.352,exp11,2020.2.6,Win32,60,IwAR3R5PMcyePkaTCmI2UcelYmKvlv8dysMTiNvE4jYs1WxaZh729grXaSXYk,,,,,,,,,,,
,,,,,,,,,,,,,,a,1,1.172,space,0.103,0,183,183,160,1,0_targ_10_dist_green/trial11.png,,,0,10,greenverival,a,98,20,F,2021-02-22_15h06.52.352,exp11,2020.2.6,Win32,60,IwAR3R5PMcyePkaTCmI2UcelYmKvlv8dysMTiNvE4jYs1WxaZh729grXaSXYk,,,,,,,,,,,
,,,,,,,,,,,,,,a,1,0.971,space,0.089,0,184,184,181,1,0_targ_16_dist_green/trial7.png,,,0,16,greenverival,a,98,20,F,2021-02-22_15h06.52.352,exp11,2020.2.6,Win32,60,IwAR3R5PMcyePkaTCmI2UcelYmKvlv8dysMTiNvE4jYs1WxaZh729grXaSXYk,,,,,,,,,,,
,,,,,,,,,,,,,,p,1,0.672,space,0.051,0,185,185,86,1,15_dist_green/trial12.png,,,1,15,greenverival,p,98,20,F,2021-02-22_15h06.52.352,exp11,2020.2.6,Win32,60,IwAR3R5PMcyePkaTCmI2UcelYmKvlv8dysMTiNvE4jYs1WxaZh729grXaSXYk,,,,,,,,,,,
,,,,,,,,,,,,,,p,1,0.522,space,0.051,0,186,186,63,1,9_dist_green/trial14.png,,,1,9,greenverival,p,98,20,F,2021-02-22_15h06.52.352,exp11,2020.2.6,Win32,60,IwAR3R5PMcyePkaTCmI2UcelYmKvlv8dysMTiNvE4jYs1WxaZh729grXaSXYk,,,,,,,,,,,
,,,,,,,,,,,,,,a,1,0.688,space,0.054,0,187,187,145,1,0_targ_4_dist_green/trial21.png,,,0,4,greenverival,a,98,20,F,2021-02-22_15h06.52.352,exp11,2020.2.6,Win32,60,IwAR3R5PMcyePkaTCmI2UcelYmKvlv8dysMTiNvE4jYs1WxaZh729grXaSXYk,,,,,,,,,,,
,,,,,,,,,,,,,,p,1,0.573,space,0.023,0,188,188,38,1,3_dist_green/trial14.png,,,1,3,greenverival,p,98,20,F,2021-02-22_15h06.52.352,exp11,2020.2.6,Win32,60,IwAR3R5PMcyePkaTCmI2UcelYmKvlv8dysMTiNvE4jYs1WxaZh729grXaSXYk,,,,,,,,,,,
,,,,,,,,,,,,,,p,1,0.671,space,0.05,0,189,189,90,1,15_dist_green/trial16.png,,,1,15,greenverival,p,98,20,F,2021-02-22_15h06.52.352,exp11,2020.2.6,Win32,60,IwAR3R5PMcyePkaTCmI2UcelYmKvlv8dysMTiNvE4jYs1WxaZh729grXaSXYk,,,,,,,,,,,
,,,,,,,,,,,,,,p,1,0.537,space,0.034,0,190,190,27,1,3_dist_green/trial3.png,,,1,3,greenverival,p,98,20,F,2021-02-22_15h06.52.352,exp11,2020.2.6,Win32,60,IwAR3R5PMcyePkaTCmI2UcelYmKvlv8dysMTiNvE4jYs1WxaZh729grXaSXYk,,,,,,,,,,,
,,,,,,,,,,,,,,a,1,0.754,space,0.033,0,191,191,163,1,0_targ_10_dist_green/trial14.png,,,0,10,greenverival,a,98,20,F,2021-02-22_15h06.52.352,exp11,2020.2.6,Win32,60,IwAR3R5PMcyePkaTCmI2UcelYmKvlv8dysMTiNvE4jYs1WxaZh729grXaSXYk,,,,,,,,,,,
,,,,,,,,,,,,,,a,0,0.704,space,0.333,0,192,192,55,1,9_dist_green/trial6.png,,,1,9,greenverival,p,98,20,F,2021-02-22_15h06.52.352,exp11,2020.2.6,Win32,60,IwAR3R5PMcyePkaTCmI2UcelYmKvlv8dysMTiNvE4jYs1WxaZh729grXaSXYk,,,,,,,,,,,
,,,,,,,,,,,,,,a,1,0.803,space,0.032,0,193,193,142,1,0_targ_4_dist_green/trial18.png,,,0,4,greenverival,a,98,20,F,2021-02-22_15h06.52.352,exp11,2020.2.6,Win32,60,IwAR3R5PMcyePkaTCmI2UcelYmKvlv8dysMTiNvE4jYs1WxaZh729grXaSXYk,,,,,,,,,,,
,,,,,,,,,,,,,,p,1,0.821,space,0.02,0,194,194,23,1,0_dist_green/trial24.png,,,1,0,greenverival,p,98,20,F,2021-02-22_15h06.52.352,exp11,2020.2.6,Win32,60,IwAR3R5PMcyePkaTCmI2UcelYmKvlv8dysMTiNvE4jYs1WxaZh729grXaSXYk,,,,,,,,,,,
,,,,,,,,,,,,,,a,1,0.805,space,0.072,0,195,195,144,1,0_targ_4_dist_green/trial20.png,,,0,4,greenverival,a,98,20,F,2021-02-22_15h06.52.352,exp11,2020.2.6,Win32,60,IwAR3R5PMcyePkaTCmI2UcelYmKvlv8dysMTiNvE4jYs1WxaZh729grXaSXYk,,,,,,,,,,,
,,,,,,,,,,,,,,a,1,1.038,space,0.036,0,196,196,199,1,0_targ_16_dist_green/trial25.png,,,0,16,greenverival,a,98,20,F,2021-02-22_15h06.52.352,exp11,2020.2.6,Win32,60,IwAR3R5PMcyePkaTCmI2UcelYmKvlv8dysMTiNvE4jYs1WxaZh729grXaSXYk,,,,,,,,,,,
,,,,,,,,,,,,,,p,1,0.656,space,0.033,0,197,197,32,1,3_dist_green/trial8.png,,,1,3,greenverival,p,98,20,F,2021-02-22_15h06.52.352,exp11,2020.2.6,Win32,60,IwAR3R5PMcyePkaTCmI2UcelYmKvlv8dysMTiNvE4jYs1WxaZh729grXaSXYk,,,,,,,,,,,
,,,,,,,,,,,,,,a,1,0.754,space,0.052,0,198,198,132,1,0_targ_4_dist_green/trial8.png,,,0,4,greenverival,a,98,20,F,2021-02-22_15h06.52.352,exp11,2020.2.6,Win32,60,IwAR3R5PMcyePkaTCmI2UcelYmKvlv8dysMTiNvE4jYs1WxaZh729grXaSXYk,,,,,,,,,,,
,,,,,,,,,,,,,,a,1,1.004,space,0.067,0,199,199,175,1,0_targ_16_dist_green/trial1.png,,,0,16,greenverival,a,98,20,F,2021-02-22_15h06.52.352,exp11,2020.2.6,Win32,60,IwAR3R5PMcyePkaTCmI2UcelYmKvlv8dysMTiNvE4jYs1WxaZh729grXaSXYk,,,,,,,,,,,
,,,,,,,,,,,,,,,,,,,,,,,,,,,,,,,98,20,F,2021-02-22_15h06.52.352,exp11,2020.2.6,Win32,60,IwAR3R5PMcyePkaTCmI2UcelYmKvlv8dysMTiNvE4jYs1WxaZh729grXaSXYk,0,0,0,0,1,conGreen.xlsx,green vertical,Look for green vertical bar (target) and indicate if it is present or absent in the array. If green vertical target is present press 'p' and if absent press 'a'. Press SPACE to start.,,,
,,,,,,,,,,space,1.541,space,2.123,a,1,0.742,space,0.018,0,0,0,140,1,0_targ_4_dist_red/trial6.png,,,0,4,redHorizontal,a,98,20,F,2021-02-22_15h06.52.352,exp11,2020.2.6,Win32,60,IwAR3R5PMcyePkaTCmI2UcelYmKvlv8dysMTiNvE4jYs1WxaZh729grXaSXYk,,,,,,,,,,,
,,,,,,,,,,,,,,a,1,0.623,space,0.054,0,1,1,134,1,0_targ_4_dist_red/trial10.png,,,0,4,redHorizontal,a,98,20,F,2021-02-22_15h06.52.352,exp11,2020.2.6,Win32,60,IwAR3R5PMcyePkaTCmI2UcelYmKvlv8dysMTiNvE4jYs1WxaZh729grXaSXYk,,,,,,,,,,,
,,,,,,,,,,,,,,p,1,0.656,space,0.703,0,2,2,96,1,15_dist_red/trial22.png,,,1,15,redHorizontal,p,98,20,F,2021-02-22_15h06.52.352,exp11,2020.2.6,Win32,60,IwAR3R5PMcyePkaTCmI2UcelYmKvlv8dysMTiNvE4jYs1WxaZh729grXaSXYk,,,,,,,,,,,
,,,,,,,,,,,,,,p,1,1.203,space,0.034,0,3,3,75,1,15_dist_red/trial1.png,,,1,15,redHorizontal,p,98,20,F,2021-02-22_15h06.52.352,exp11,2020.2.6,Win32,60,IwAR3R5PMcyePkaTCmI2UcelYmKvlv8dysMTiNvE4jYs1WxaZh729grXaSXYk,,,,,,,,,,,
,,,,,,,,,,,,,,p,1,0.521,space,0.051,0,4,4,6,1,0_dist_red/trial7.png,,,1,0,redHorizontal,p,98,20,F,2021-02-22_15h06.52.352,exp11,2020.2.6,Win32,60,IwAR3R5PMcyePkaTCmI2UcelYmKvlv8dysMTiNvE4jYs1WxaZh729grXaSXYk,,,,,,,,,,,
,,,,,,,,,,,,,,a,1,0.791,space,0.068,0,5,5,163,1,0_targ_10_dist_red/trial14.png,,,0,10,redHorizontal,a,98,20,F,2021-02-22_15h06.52.352,exp11,2020.2.6,Win32,60,IwAR3R5PMcyePkaTCmI2UcelYmKvlv8dysMTiNvE4jYs1WxaZh729grXaSXYk,,,,,,,,,,,
,,,,,,,,,,,,,,p,1,0.888,space,0.051,0,6,6,73,1,9_dist_red/trial24.png,,,1,9,redHorizontal,p,98,20,F,2021-02-22_15h06.52.352,exp11,2020.2.6,Win32,60,IwAR3R5PMcyePkaTCmI2UcelYmKvlv8dysMTiNvE4jYs1WxaZh729grXaSXYk,,,,,,,,,,,
,,,,,,,,,,,,,,a,1,0.871,space,0.067,0,7,7,193,1,0_targ_16_dist_red/trial19.png,,,0,16,redHorizontal,a,98,20,F,2021-02-22_15h06.52.352,exp11,2020.2.6,Win32,60,IwAR3R5PMcyePkaTCmI2UcelYmKvlv8dysMTiNvE4jYs1WxaZh729grXaSXYk,,,,,,,,,,,
,,,,,,,,,,,,,,a,1,0.704,space,0.035,0,8,8,196,1,0_targ_16_dist_red/trial22.png,,,0,16,redHorizontal,a,98,20,F,2021-02-22_15h06.52.352,exp11,2020.2.6,Win32,60,IwAR3R5PMcyePkaTCmI2UcelYmKvlv8dysMTiNvE4jYs1WxaZh729grXaSXYk,,,,,,,,,,,
,,,,,,,,,,,,,,a,1,0.621,space,0.054,0,9,9,164,1,0_targ_10_dist_red/trial15.png,,,0,10,redHorizontal,a,98,20,F,2021-02-22_15h06.52.352,exp11,2020.2.6,Win32,60,IwAR3R5PMcyePkaTCmI2UcelYmKvlv8dysMTiNvE4jYs1WxaZh729grXaSXYk,,,,,,,,,,,
,,,,,,,,,,,,,,a,0,1.088,space,0.233,0,10,10,80,1,15_dist_red/trial6.png,,,1,15,redHorizontal,p,98,20,F,2021-02-22_15h06.52.352,exp11,2020.2.6,Win32,60,IwAR3R5PMcyePkaTCmI2UcelYmKvlv8dysMTiNvE4jYs1WxaZh729grXaSXYk,,,,,,,,,,,
,,,,,,,,,,,,,,a,0,0.622,space,0.753,0,11,11,10,1,0_dist_red/trial11.png,,,1,0,redHorizontal,p,98,20,F,2021-02-22_15h06.52.352,exp11,2020.2.6,Win32,60,IwAR3R5PMcyePkaTCmI2UcelYmKvlv8dysMTiNvE4jYs1WxaZh729grXaSXYk,,,,,,,,,,,
,,,,,,,,,,,,,,a,1,1.199,space,0.085,0,12,12,189,1,0_targ_16_dist_red/trial15.png,,,0,16,redHorizontal,a,98,20,F,2021-02-22_15h06.52.352,exp11,2020.2.6,Win32,60,IwAR3R5PMcyePkaTCmI2UcelYmKvlv8dysMTiNvE4jYs1WxaZh729grXaSXYk,,,,,,,,,,,
,,,,,,,,,,,,,,a,1,0.871,space,0.732,0,13,13,175,1,0_targ_16_dist_red/trial1.png,,,0,16,redHorizontal,a,98,20,F,2021-02-22_15h06.52.352,exp11,2020.2.6,Win32,60,IwAR3R5PMcyePkaTCmI2UcelYmKvlv8dysMTiNvE4jYs1WxaZh729grXaSXYk,,,,,,,,,,,
,,,,,,,,,,,,,,p,1,0.987,space,0.05,0,14,14,97,1,15_dist_red/trial23.png,,,1,15,redHorizontal,p,98,20,F,2021-02-22_15h06.52.352,exp11,2020.2.6,Win32,60,IwAR3R5PMcyePkaTCmI2UcelYmKvlv8dysMTiNvE4jYs1WxaZh729grXaSXYk,,,,,,,,,,,
,,,,,,,,,,,,,,a,1,0.804,space,0.067,0,15,15,104,1,0_targ_1_dist_red/trial5.png,,,0,1,redHorizontal,a,98,20,F,2021-02-22_15h06.52.352,exp11,2020.2.6,Win32,60,IwAR3R5PMcyePkaTCmI2UcelYmKvlv8dysMTiNvE4jYs1WxaZh729grXaSXYk,,,,,,,,,,,
,,,,,,,,,,,,,,p,1,0.589,space,0.034,0,16,16,54,1,9_dist_red/trial5.png,,,1,9,redHorizontal,p,98,20,F,2021-02-22_15h06.52.352,exp11,2020.2.6,Win32,60,IwAR3R5PMcyePkaTCmI2UcelYmKvlv8dysMTiNvE4jYs1WxaZh729grXaSXYk,,,,,,,,,,,
,,,,,,,,,,,,,,p,0,0.854,space,0.151,0,17,17,116,1,0_targ_1_dist_red/trial17.png,,,0,1,redHorizontal,a,98,20,F,2021-02-22_15h06.52.352,exp11,2020.2.6,Win32,60,IwAR3R5PMcyePkaTCmI2UcelYmKvlv8dysMTiNvE4jYs1WxaZh729grXaSXYk,,,,,,,,,,,
,,,,,,,,,,,,,,a,1,1.771,space,0.002,0,18,18,125,1,0_targ_4_dist_red/trial1.png,,,0,4,redHorizontal,a,98,20,F,2021-02-22_15h06.52.352,exp11,2020.2.6,Win32,60,IwAR3R5PMcyePkaTCmI2UcelYmKvlv8dysMTiNvE4jYs1WxaZh729grXaSXYk,,,,,,,,,,,
,,,,,,,,,,,,,,p,1,0.771,space,0.017,0,19,19,62,1,9_dist_red/trial13.png,,,1,9,redHorizontal,p,98,20,F,2021-02-22_15h06.52.352,exp11,2020.2.6,Win32,60,IwAR3R5PMcyePkaTCmI2UcelYmKvlv8dysMTiNvE4jYs1WxaZh729grXaSXYk,,,,,,,,,,,
,,,,,,,,,,,,,,p,1,1.057,space,0.067,0,20,20,70,1,9_dist_red/trial21.png,,,1,9,redHorizontal,p,98,20,F,2021-02-22_15h06.52.352,exp11,2020.2.6,Win32,60,IwAR3R5PMcyePkaTCmI2UcelYmKvlv8dysMTiNvE4jYs1WxaZh729grXaSXYk,,,,,,,,,,,
,,,,,,,,,,,,,,a,1,0.738,space,0.067,0,21,21,102,1,0_targ_1_dist_red/trial3.png,,,0,1,redHorizontal,a,98,20,F,2021-02-22_15h06.52.352,exp11,2020.2.6,Win32,60,IwAR3R5PMcyePkaTCmI2UcelYmKvlv8dysMTiNvE4jYs1WxaZh729grXaSXYk,,,,,,,,,,,
,,,,,,,,,,,,,,p,1,0.741,space,0.067,0,22,22,43,1,3_dist_red/trial19.png,,,1,3,redHorizontal,p,98,20,F,2021-02-22_15h06.52.352,exp11,2020.2.6,Win32,60,IwAR3R5PMcyePkaTCmI2UcelYmKvlv8dysMTiNvE4jYs1WxaZh729grXaSXYk,,,,,,,,,,,
,,,,,,,,,,,,,,a,1,0.772,space,0.069,0,23,23,154,1,0_targ_10_dist_red/trial5.png,,,0,10,redHorizontal,a,98,20,F,2021-02-22_15h06.52.352,exp11,2020.2.6,Win32,60,IwAR3R5PMcyePkaTCmI2UcelYmKvlv8dysMTiNvE4jYs1WxaZh729grXaSXYk,,,,,,,,,,,
,,,,,,,,,,,,,,p,1,0.789,space,0.051,0,24,24,45,1,3_dist_red/trial21.png,,,1,3,redHorizontal,p,98,20,F,2021-02-22_15h06.52.352,exp11,2020.2.6,Win32,60,IwAR3R5PMcyePkaTCmI2UcelYmKvlv8dysMTiNvE4jYs1WxaZh729grXaSXYk,,,,,,,,,,,
,,,,,,,,,,,,,,p,1,0.587,space,0.083,0,25,25,24,1,0_dist_red/trial25.png,,,1,0,redHorizontal,p,98,20,F,2021-02-22_15h06.52.352,exp11,2020.2.6,Win32,60,IwAR3R5PMcyePkaTCmI2UcelYmKvlv8dysMTiNvE4jYs1WxaZh729grXaSXYk,,,,,,,,,,,
,,,,,,,,,,,,,,p,1,0.823,space,0.07,0,26,26,93,1,15_dist_red/trial19.png,,,1,15,redHorizontal,p,98,20,F,2021-02-22_15h06.52.352,exp11,2020.2.6,Win32,60,IwAR3R5PMcyePkaTCmI2UcelYmKvlv8dysMTiNvE4jYs1WxaZh729grXaSXYk,,,,,,,,,,,
,,,,,,,,,,,,,,a,1,0.705,space,0.133,0,27,27,101,1,0_targ_1_dist_red/trial2.png,,,0,1,redHorizontal,a,98,20,F,2021-02-22_15h06.52.352,exp11,2020.2.6,Win32,60,IwAR3R5PMcyePkaTCmI2UcelYmKvlv8dysMTiNvE4jYs1WxaZh729grXaSXYk,,,,,,,,,,,
,,,,,,,,,,,,,,p,1,0.609,space,0.039,0,28,28,18,1,0_dist_red/trial19.png,,,1,0,redHorizontal,p,98,20,F,2021-02-22_15h06.52.352,exp11,2020.2.6,Win32,60,IwAR3R5PMcyePkaTCmI2UcelYmKvlv8dysMTiNvE4jYs1WxaZh729grXaSXYk,,,,,,,,,,,
,,,,,,,,,,,,,,p,1,0.576,space,0.068,0,29,29,14,1,0_dist_red/trial15.png,,,1,0,redHorizontal,p,98,20,F,2021-02-22_15h06.52.352,exp11,2020.2.6,Win32,60,IwAR3R5PMcyePkaTCmI2UcelYmKvlv8dysMTiNvE4jYs1WxaZh729grXaSXYk,,,,,,,,,,,
,,,,,,,,,,,,,,a,1,0.871,space,0.051,0,30,30,117,1,0_targ_1_dist_red/trial18.png,,,0,1,redHorizontal,a,98,20,F,2021-02-22_15h06.52.352,exp11,2020.2.6,Win32,60,IwAR3R5PMcyePkaTCmI2UcelYmKvlv8dysMTiNvE4jYs1WxaZh729grXaSXYk,,,,,,,,,,,
,,,,,,,,,,,,,,a,1,1.204,space,0.033,0,31,31,197,1,0_targ_16_dist_red/trial23.png,,,0,16,redHorizontal,a,98,20,F,2021-02-22_15h06.52.352,exp11,2020.2.6,Win32,60,IwAR3R5PMcyePkaTCmI2UcelYmKvlv8dysMTiNvE4jYs1WxaZh729grXaSXYk,,,,,,,,,,,
,,,,,,,,,,,,,,a,1,0.641,space,0.084,0,32,32,194,1,0_targ_16_dist_red/trial20.png,,,0,16,redHorizontal,a,98,20,F,2021-02-22_15h06.52.352,exp11,2020.2.6,Win32,60,IwAR3R5PMcyePkaTCmI2UcelYmKvlv8dysMTiNvE4jYs1WxaZh729grXaSXYk,,,,,,,,,,,
,,,,,,,,,,,,,,p,1,0.76,space,0.054,0,33,33,52,1,9_dist_red/trial3.png,,,1,9,redHorizontal,p,98,20,F,2021-02-22_15h06.52.352,exp11,2020.2.6,Win32,60,IwAR3R5PMcyePkaTCmI2UcelYmKvlv8dysMTiNvE4jYs1WxaZh729grXaSXYk,,,,,,,,,,,
,,,,,,,,,,,,,,p,1,0.621,space,0.051,0,34,34,28,1,3_dist_red/trial4.png,,,1,3,redHorizontal,p,98,20,F,2021-02-22_15h06.52.352,exp11,2020.2.6,Win32,60,IwAR3R5PMcyePkaTCmI2UcelYmKvlv8dysMTiNvE4jYs1WxaZh729grXaSXYk,,,,,,,,,,,
,,,,,,,,,,,,,,a,1,0.588,space,0.035,0,35,35,128,1,0_targ_4_dist_red/trial4.png,,,0,4,redHorizontal,a,98,20,F,2021-02-22_15h06.52.352,exp11,2020.2.6,Win32,60,IwAR3R5PMcyePkaTCmI2UcelYmKvlv8dysMTiNvE4jYs1WxaZh729grXaSXYk,,,,,,,,,,,
,,,,,,,,,,,,,,p,1,0.641,space,0.056,0,36,36,3,1,0_dist_red/trial4.png,,,1,0,redHorizontal,p,98,20,F,2021-02-22_15h06.52.352,exp11,2020.2.6,Win32,60,IwAR3R5PMcyePkaTCmI2UcelYmKvlv8dysMTiNvE4jYs1WxaZh729grXaSXYk,,,,,,,,,,,
,,,,,,,,,,,,,,p,1,0.505,space,0.068,0,37,37,5,1,0_dist_red/trial6.png,,,1,0,redHorizontal,p,98,20,F,2021-02-22_15h06.52.352,exp11,2020.2.6,Win32,60,IwAR3R5PMcyePkaTCmI2UcelYmKvlv8dysMTiNvE4jYs1WxaZh729grXaSXYk,,,,,,,,,,,
,,,,,,,,,,,,,,p,1,0.621,space,0.068,0,38,38,38,1,3_dist_red/trial14.png,,,1,3,redHorizontal,p,98,20,F,2021-02-22_15h06.52.352,exp11,2020.2.6,Win32,60,IwAR3R5PMcyePkaTCmI2UcelYmKvlv8dysMTiNvE4jYs1WxaZh729grXaSXYk,,,,,,,,,,,
,,,,,,,,,,,,,,p,1,0.471,space,0.067,0,39,39,19,1,0_dist_red/trial20.png,,,1,0,redHorizontal,p,98,20,F,2021-02-22_15h06.52.352,exp11,2020.2.6,Win32,60,IwAR3R5PMcyePkaTCmI2UcelYmKvlv8dysMTiNvE4jYs1WxaZh729grXaSXYk,,,,,,,,,,,
,,,,,,,,,,,,,,a,1,0.936,space,0.117,0,40,40,177,1,0_targ_16_dist_red/trial3.png,,,0,16,redHorizontal,a,98,20,F,2021-02-22_15h06.52.352,exp11,2020.2.6,Win32,60,IwAR3R5PMcyePkaTCmI2UcelYmKvlv8dysMTiNvE4jYs1WxaZh729grXaSXYk,,,,,,,,,,,
,,,,,,,,,,,,,,a,1,0.723,space,0.052,0,41,41,157,1,0_targ_10_dist_red/trial8.png,,,0,10,redHorizontal,a,98,20,F,2021-02-22_15h06.52.352,exp11,2020.2.6,Win32,60,IwAR3R5PMcyePkaTCmI2UcelYmKvlv8dysMTiNvE4jYs1WxaZh729grXaSXYk,,,,,,,,,,,
,,,,,,,,,,,,,,p,1,0.788,space,0.022,0,42,42,25,1,3_dist_red/trial1.png,,,1,3,redHorizontal,p,98,20,F,2021-02-22_15h06.52.352,exp11,2020.2.6,Win32,60,IwAR3R5PMcyePkaTCmI2UcelYmKvlv8dysMTiNvE4jYs1WxaZh729grXaSXYk,,,,,,,,,,,
,,,,,,,,,,,,,,a,1,0.822,space,0.034,0,43,43,141,1,0_targ_4_dist_red/trial17.png,,,0,4,redHorizontal,a,98,20,F,2021-02-22_15h06.52.352,exp11,2020.2.6,Win32,60,IwAR3R5PMcyePkaTCmI2UcelYmKvlv8dysMTiNvE4jYs1WxaZh729grXaSXYk,,,,,,,,,,,
,,,,,,,,,,,,,,p,1,0.675,space,0.039,0,44,44,86,1,15_dist_red/trial12.png,,,1,15,redHorizontal,p,98,20,F,2021-02-22_15h06.52.352,exp11,2020.2.6,Win32,60,IwAR3R5PMcyePkaTCmI2UcelYmKvlv8dysMTiNvE4jYs1WxaZh729grXaSXYk,,,,,,,,,,,
,,,,,,,,,,,,,,p,1,0.604,space,0.051,0,45,45,23,1,0_dist_red/trial24.png,,,1,0,redHorizontal,p,98,20,F,2021-02-22_15h06.52.352,exp11,2020.2.6,Win32,60,IwAR3R5PMcyePkaTCmI2UcelYmKvlv8dysMTiNvE4jYs1WxaZh729grXaSXYk,,,,,,,,,,,
,,,,,,,,,,,,,,a,1,0.672,space,0.039,0,46,46,147,1,0_targ_4_dist_red/trial23.png,,,0,4,redHorizontal,a,98,20,F,2021-02-22_15h06.52.352,exp11,2020.2.6,Win32,60,IwAR3R5PMcyePkaTCmI2UcelYmKvlv8dysMTiNvE4jYs1WxaZh729grXaSXYk,,,,,,,,,,,
,,,,,,,,,,,,,,p,1,0.654,space,0.038,0,47,47,33,1,3_dist_red/trial9.png,,,1,3,redHorizontal,p,98,20,F,2021-02-22_15h06.52.352,exp11,2020.2.6,Win32,60,IwAR3R5PMcyePkaTCmI2UcelYmKvlv8dysMTiNvE4jYs1WxaZh729grXaSXYk,,,,,,,,,,,
,,,,,,,,,,,,,,p,1,0.672,space,0.051,0,48,48,27,1,3_dist_red/trial3.png,,,1,3,redHorizontal,p,98,20,F,2021-02-22_15h06.52.352,exp11,2020.2.6,Win32,60,IwAR3R5PMcyePkaTCmI2UcelYmKvlv8dysMTiNvE4jYs1WxaZh729grXaSXYk,,,,,,,,,,,
,,,,,,,,,,,,,,p,1,0.554,space,0.084,0,49,49,15,1,0_dist_red/trial16.png,,,1,0,redHorizontal,p,98,20,F,2021-02-22_15h06.52.352,exp11,2020.2.6,Win32,60,IwAR3R5PMcyePkaTCmI2UcelYmKvlv8dysMTiNvE4jYs1WxaZh729grXaSXYk,,,,,,,,,,,
,,,,,,,,,,,,,,p,1,1.005,space,0.04,0,50,50,95,1,15_dist_red/trial21.png,,,1,15,redHorizontal,p,98,20,F,2021-02-22_15h06.52.352,exp11,2020.2.6,Win32,60,IwAR3R5PMcyePkaTCmI2UcelYmKvlv8dysMTiNvE4jYs1WxaZh729grXaSXYk,,,,,,,,,,,
,,,,,,,,,,,,,,a,1,0.789,space,0.016,0,51,51,153,1,0_targ_10_dist_red/trial4.png,,,0,10,redHorizontal,a,98,20,F,2021-02-22_15h06.52.352,exp11,2020.2.6,Win32,60,IwAR3R5PMcyePkaTCmI2UcelYmKvlv8dysMTiNvE4jYs1WxaZh729grXaSXYk,,,,,,,,,,,
,,,,,,,,,,,,,,p,1,0.825,space,0.07,0,52,52,74,1,9_dist_red/trial25.png,,,1,9,redHorizontal,p,98,20,F,2021-02-22_15h06.52.352,exp11,2020.2.6,Win32,60,IwAR3R5PMcyePkaTCmI2UcelYmKvlv8dysMTiNvE4jYs1WxaZh729grXaSXYk,,,,,,,,,,,
,,,,,,,,,,,,,,p,1,0.704,space,0.067,0,53,53,46,1,3_dist_red/trial22.png,,,1,3,redHorizontal,p,98,20,F,2021-02-22_15h06.52.352,exp11,2020.2.6,Win32,60,IwAR3R5PMcyePkaTCmI2UcelYmKvlv8dysMTiNvE4jYs1WxaZh729grXaSXYk,,,,,,,,,,,
,,,,,,,,,,,,,,a,1,0.771,space,0.034,0,54,54,195,1,0_targ_16_dist_red/trial21.png,,,0,16,redHorizontal,a,98,20,F,2021-02-22_15h06.52.352,exp11,2020.2.6,Win32,60,IwAR3R5PMcyePkaTCmI2UcelYmKvlv8dysMTiNvE4jYs1WxaZh729grXaSXYk,,,,,,,,,,,
,,,,,,,,,,,,,,p,1,0.825,space,0.118,0,55,55,36,1,3_dist_red/trial12.png,,,1,3,redHorizontal,p,98,20,F,2021-02-22_15h06.52.352,exp11,2020.2.6,Win32,60,IwAR3R5PMcyePkaTCmI2UcelYmKvlv8dysMTiNvE4jYs1WxaZh729grXaSXYk,,,,,,,,,,,
,,,,,,,,,,,,,,p,1,0.836,space,0.067,0,56,56,94,1,15_dist_red/trial20.png,,,1,15,redHorizontal,p,98,20,F,2021-02-22_15h06.52.352,exp11,2020.2.6,Win32,60,IwAR3R5PMcyePkaTCmI2UcelYmKvlv8dysMTiNvE4jYs1WxaZh729grXaSXYk,,,,,,,,,,,
,,,,,,,,,,,,,,a,1,0.804,space,0.084,0,57,57,109,1,0_targ_1_dist_red/trial10.png,,,0,1,redHorizontal,a,98,20,F,2021-02-22_15h06.52.352,exp11,2020.2.6,Win32,60,IwAR3R5PMcyePkaTCmI2UcelYmKvlv8dysMTiNvE4jYs1WxaZh729grXaSXYk,,,,,,,,,,,
,,,,,,,,,,,,,,p,1,0.689,space,0.052,0,58,58,65,1,9_dist_red/trial16.png,,,1,9,redHorizontal,p,98,20,F,2021-02-22_15h06.52.352,exp11,2020.2.6,Win32,60,IwAR3R5PMcyePkaTCmI2UcelYmKvlv8dysMTiNvE4jYs1WxaZh729grXaSXYk,,,,,,,,,,,
,,,,,,,,,,,,,,p,1,0.954,space,0.085,0,59,59,34,1,3_dist_red/trial10.png,,,1,3,redHorizontal,p,98,20,F,2021-02-22_15h06.52.352,exp11,2020.2.6,Win32,60,IwAR3R5PMcyePkaTCmI2UcelYmKvlv8dysMTiNvE4jYs1WxaZh729grXaSXYk,,,,,,,,,,,
,,,,,,,,,,,,,,a,1,0.854,space,0.051,0,60,60,137,1,0_targ_4_dist_red/trial13.png,,,0,4,redHorizontal,a,98,20,F,2021-02-22_15h06.52.352,exp11,2020.2.6,Win32,60,IwAR3R5PMcyePkaTCmI2UcelYmKvlv8dysMTiNvE4jYs1WxaZh729grXaSXYk,,,,,,,,,,,
,,,,,,,,,,,,,,p,1,0.754,space,0.036,0,61,61,77,1,15_dist_red/trial3.png,,,1,15,redHorizontal,p,98,20,F,2021-02-22_15h06.52.352,exp11,2020.2.6,Win32,60,IwAR3R5PMcyePkaTCmI2UcelYmKvlv8dysMTiNvE4jYs1WxaZh729grXaSXYk,,,,,,,,,,,
,,,,,,,,,,,,,,a,1,0.987,space,0.068,0,62,62,119,1,0_targ_1_dist_red/trial20.png,,,0,1,redHorizontal,a,98,20,F,2021-02-22_15h06.52.352,exp11,2020.2.6,Win32,60,IwAR3R5PMcyePkaTCmI2UcelYmKvlv8dysMTiNvE4jYs1WxaZh729grXaSXYk,,,,,,,,,,,
,,,,,,,,,,,,,,p,1,0.709,space,0,0,63,63,58,1,9_dist_red/trial9.png,,,1,9,redHorizontal,p,98,20,F,2021-02-22_15h06.52.352,exp11,2020.2.6,Win32,60,IwAR3R5PMcyePkaTCmI2UcelYmKvlv8dysMTiNvE4jYs1WxaZh729grXaSXYk,,,,,,,,,,,
,,,,,,,,,,,,,,a,1,1.023,space,0.055,0,64,64,171,1,0_targ_10_dist_red/trial22.png,,,0,10,redHorizontal,a,98,20,F,2021-02-22_15h06.52.352,exp11,2020.2.6,Win32,60,IwAR3R5PMcyePkaTCmI2UcelYmKvlv8dysMTiNvE4jYs1WxaZh729grXaSXYk,,,,,,,,,,,
,,,,,,,,,,,,,,a,1,0.857,space,0.001,0,65,65,190,1,0_targ_16_dist_red/trial16.png,,,0,16,redHorizontal,a,98,20,F,2021-02-22_15h06.52.352,exp11,2020.2.6,Win32,60,IwAR3R5PMcyePkaTCmI2UcelYmKvlv8dysMTiNvE4jYs1WxaZh729grXaSXYk,,,,,,,,,,,
,,,,,,,,,,,,,,a,1,0.805,space,0.037,0,66,66,162,1,0_targ_10_dist_red/trial13.png,,,0,10,redHorizontal,a,98,20,F,2021-02-22_15h06.52.352,exp11,2020.2.6,Win32,60,IwAR3R5PMcyePkaTCmI2UcelYmKvlv8dysMTiNvE4jYs1WxaZh729grXaSXYk,,,,,,,,,,,
,,,,,,,,,,,,,,p,1,0.656,space,0.036,0,67,67,13,1,0_dist_red/trial14.png,,,1,0,redHorizontal,p,98,20,F,2021-02-22_15h06.52.352,exp11,2020.2.6,Win32,60,IwAR3R5PMcyePkaTCmI2UcelYmKvlv8dysMTiNvE4jYs1WxaZh729grXaSXYk,,,,,,,,,,,
,,,,,,,,,,,,,,a,1,0.639,space,0.053,0,68,68,148,1,0_targ_4_dist_red/trial24.png,,,0,4,redHorizontal,a,98,20,F,2021-02-22_15h06.52.352,exp11,2020.2.6,Win32,60,IwAR3R5PMcyePkaTCmI2UcelYmKvlv8dysMTiNvE4jYs1WxaZh729grXaSXYk,,,,,,,,,,,
,,,,,,,,,,,,,,p,1,0.639,space,0.018,0,69,69,20,1,0_dist_red/trial21.png,,,1,0,redHorizontal,p,98,20,F,2021-02-22_15h06.52.352,exp11,2020.2.6,Win32,60,IwAR3R5PMcyePkaTCmI2UcelYmKvlv8dysMTiNvE4jYs1WxaZh729grXaSXYk,,,,,,,,,,,
,,,,,,,,,,,,,,a,1,0.618,space,0.052,0,70,70,130,1,0_targ_4_dist_red/trial6.png,,,0,4,redHorizontal,a,98,20,F,2021-02-22_15h06.52.352,exp11,2020.2.6,Win32,60,IwAR3R5PMcyePkaTCmI2UcelYmKvlv8dysMTiNvE4jYs1WxaZh729grXaSXYk,,,,,,,,,,,
,,,,,,,,,,,,,,p,1,0.591,space,0.085,0,71,71,76,1,15_dist_red/trial2.png,,,1,15,redHorizontal,p,98,20,F,2021-02-22_15h06.52.352,exp11,2020.2.6,Win32,60,IwAR3R5PMcyePkaTCmI2UcelYmKvlv8dysMTiNvE4jYs1WxaZh729grXaSXYk,,,,,,,,,,,
,,,,,,,,,,,,,,a,1,0.739,space,0.071,0,72,72,120,1,0_targ_1_dist_red/trial21.png,,,0,1,redHorizontal,a,98,20,F,2021-02-22_15h06.52.352,exp11,2020.2.6,Win32,60,IwAR3R5PMcyePkaTCmI2UcelYmKvlv8dysMTiNvE4jYs1WxaZh729grXaSXYk,,,,,,,,,,,
,,,,,,,,,,,,,,a,1,1.186,space,0.036,0,73,73,192,1,0_targ_16_dist_red/trial18.png,,,0,16,redHorizontal,a,98,20,F,2021-02-22_15h06.52.352,exp11,2020.2.6,Win32,60,IwAR3R5PMcyePkaTCmI2UcelYmKvlv8dysMTiNvE4jYs1WxaZh729grXaSXYk,,,,,,,,,,,
,,,,,,,,,,,,,,a,1,0.738,space,0.066,0,74,74,173,1,0_targ_10_dist_red/trial24.png,,,0,10,redHorizontal,a,98,20,F,2021-02-22_15h06.52.352,exp11,2020.2.6,Win32,60,IwAR3R5PMcyePkaTCmI2UcelYmKvlv8dysMTiNvE4jYs1WxaZh729grXaSXYk,,,,,,,,,,,
,,,,,,,,,,,,,,a,1,0.67,space,0.101,0,75,75,188,1,0_targ_16_dist_red/trial14.png,,,0,16,redHorizontal,a,98,20,F,2021-02-22_15h06.52.352,exp11,2020.2.6,Win32,60,IwAR3R5PMcyePkaTCmI2UcelYmKvlv8dysMTiNvE4jYs1WxaZh729grXaSXYk,,,,,,,,,,,
,,,,,,,,,,,,,,a,1,0.721,space,0.101,0,76,76,110,1,0_targ_1_dist_red/trial11.png,,,0,1,redHorizontal,a,98,20,F,2021-02-22_15h06.52.352,exp11,2020.2.6,Win32,60,IwAR3R5PMcyePkaTCmI2UcelYmKvlv8dysMTiNvE4jYs1WxaZh729grXaSXYk,,,,,,,,,,,
,,,,,,,,,,,,,,a,0,0.572,space,0.936,0,77,77,90,1,15_dist_red/trial16.png,,,1,15,redHorizontal,p,98,20,F,2021-02-22_15h06.52.352,exp11,2020.2.6,Win32,60,IwAR3R5PMcyePkaTCmI2UcelYmKvlv8dysMTiNvE4jYs1WxaZh729grXaSXYk,,,,,,,,,,,
,,,,,,,,,,,,,,a,1,1.22,space,0.001,0,78,78,108,1,0_targ_1_dist_red/trial9.png,,,0,1,redHorizontal,a,98,20,F,2021-02-22_15h06.52.352,exp11,2020.2.6,Win32,60,IwAR3R5PMcyePkaTCmI2UcelYmKvlv8dysMTiNvE4jYs1WxaZh729grXaSXYk,,,,,,,,,,,
,,,,,,,,,,,,,,a,1,0.638,space,0.083,0,79,79,174,1,0_targ_10_dist_red/trial25.png,,,0,10,redHorizontal,a,98,20,F,2021-02-22_15h06.52.352,exp11,2020.2.6,Win32,60,IwAR3R5PMcyePkaTCmI2UcelYmKvlv8dysMTiNvE4jYs1WxaZh729grXaSXYk,,,,,,,,,,,
,,,,,,,,,,,,,,p,1,0.688,space,0.101,0,80,80,56,1,9_dist_red/trial7.png,,,1,9,redHorizontal,p,98,20,F,2021-02-22_15h06.52.352,exp11,2020.2.6,Win32,60,IwAR3R5PMcyePkaTCmI2UcelYmKvlv8dysMTiNvE4jYs1WxaZh729grXaSXYk,,,,,,,,,,,
,,,,,,,,,,,,,,p,1,0.606,space,0.034,0,81,81,98,1,15_dist_red/trial24.png,,,1,15,redHorizontal,p,98,20,F,2021-02-22_15h06.52.352,exp11,2020.2.6,Win32,60,IwAR3R5PMcyePkaTCmI2UcelYmKvlv8dysMTiNvE4jYs1WxaZh729grXaSXYk,,,,,,,,,,,
,,,,,,,,,,,,,,p,1,0.554,space,0.866,0,82,82,68,1,9_dist_red/trial19.png,,,1,9,redHorizontal,p,98,20,F,2021-02-22_15h06.52.352,exp11,2020.2.6,Win32,60,IwAR3R5PMcyePkaTCmI2UcelYmKvlv8dysMTiNvE4jYs1WxaZh729grXaSXYk,,,,,,,,,,,
,,,,,,,,,,,,,,a,1,0.788,space,0.037,0,83,83,146,1,0_targ_4_dist_red/trial22.png,,,0,4,redHorizontal,a,98,20,F,2021-02-22_15h06.52.352,exp11,2020.2.6,Win32,60,IwAR3R5PMcyePkaTCmI2UcelYmKvlv8dysMTiNvE4jYs1WxaZh729grXaSXYk,,,,,,,,,,,
,,,,,,,,,,,,,,p,1,0.538,space,0.054,0,84,84,12,1,0_dist_red/trial13.png,,,1,0,redHorizontal,p,98,20,F,2021-02-22_15h06.52.352,exp11,2020.2.6,Win32,60,IwAR3R5PMcyePkaTCmI2UcelYmKvlv8dysMTiNvE4jYs1WxaZh729grXaSXYk,,,,,,,,,,,
,,,,,,,,,,,,,,a,1,0.691,space,0.051,0,85,85,198,1,0_targ_16_dist_red/trial24.png,,,0,16,redHorizontal,a,98,20,F,2021-02-22_15h06.52.352,exp11,2020.2.6,Win32,60,IwAR3R5PMcyePkaTCmI2UcelYmKvlv8dysMTiNvE4jYs1WxaZh729grXaSXYk,,,,,,,,,,,
,,,,,,,,,,,,,,a,0,0.637,space,0.433,0,86,86,99,1,15_dist_red/trial25.png,,,1,15,redHorizontal,p,98,20,F,2021-02-22_15h06.52.352,exp11,2020.2.6,Win32,60,IwAR3R5PMcyePkaTCmI2UcelYmKvlv8dysMTiNvE4jYs1WxaZh729grXaSXYk,,,,,,,,,,,
,,,,,,,,,,,,,,a,1,0.759,space,0.033,0,87,87,100,1,0_targ_1_dist_red/trial1.png,,,0,1,redHorizontal,a,98,20,F,2021-02-22_15h06.52.352,exp11,2020.2.6,Win32,60,IwAR3R5PMcyePkaTCmI2UcelYmKvlv8dysMTiNvE4jYs1WxaZh729grXaSXYk,,,,,,,,,,,
,,,,,,,,,,,,,,p,1,0.654,space,0.034,0,88,88,39,1,3_dist_red/trial15.png,,,1,3,redHorizontal,p,98,20,F,2021-02-22_15h06.52.352,exp11,2020.2.6,Win32,60,IwAR3R5PMcyePkaTCmI2UcelYmKvlv8dysMTiNvE4jYs1WxaZh729grXaSXYk,,,,,,,,,,,
,,,,,,,,,,,,,,a,1,0.754,space,0.034,0,89,89,156,1,0_targ_10_dist_red/trial7.png,,,0,10,redHorizontal,a,98,20,F,2021-02-22_15h06.52.352,exp11,2020.2.6,Win32,60,IwAR3R5PMcyePkaTCmI2UcelYmKvlv8dysMTiNvE4jYs1WxaZh729grXaSXYk,,,,,,,,,,,
,,,,,,,,,,,,,,p,1,0.639,space,0.017,0,90,90,11,1,0_dist_red/trial12.png,,,1,0,redHorizontal,p,98,20,F,2021-02-22_15h06.52.352,exp11,2020.2.6,Win32,60,IwAR3R5PMcyePkaTCmI2UcelYmKvlv8dysMTiNvE4jYs1WxaZh729grXaSXYk,,,,,,,,,,,
,,,,,,,,,,,,,,p,1,0.575,space,0.037,0,91,91,92,1,15_dist_red/trial18.png,,,1,15,redHorizontal,p,98,20,F,2021-02-22_15h06.52.352,exp11,2020.2.6,Win32,60,IwAR3R5PMcyePkaTCmI2UcelYmKvlv8dysMTiNvE4jYs1WxaZh729grXaSXYk,,,,,,,,,,,
,,,,,,,,,,,,,,p,1,0.605,space,0.034,0,92,92,0,1,0_dist_red/trial1.png,,,1,0,redHorizontal,p,98,20,F,2021-02-22_15h06.52.352,exp11,2020.2.6,Win32,60,IwAR3R5PMcyePkaTCmI2UcelYmKvlv8dysMTiNvE4jYs1WxaZh729grXaSXYk,,,,,,,,,,,
,,,,,,,,,,,,,,p,1,0.556,space,0.035,0,93,93,44,1,3_dist_red/trial20.png,,,1,3,redHorizontal,p,98,20,F,2021-02-22_15h06.52.352,exp11,2020.2.6,Win32,60,IwAR3R5PMcyePkaTCmI2UcelYmKvlv8dysMTiNvE4jYs1WxaZh729grXaSXYk,,,,,,,,,,,
,,,,,,,,,,,,,,p,1,0.588,space,0.034,0,94,94,91,1,15_dist_red/trial17.png,,,1,15,redHorizontal,p,98,20,F,2021-02-22_15h06.52.352,exp11,2020.2.6,Win32,60,IwAR3R5PMcyePkaTCmI2UcelYmKvlv8dysMTiNvE4jYs1WxaZh729grXaSXYk,,,,,,,,,,,
,,,,,,,,,,,,,,p,1,0.621,space,0.034,0,95,95,55,1,9_dist_red/trial6.png,,,1,9,redHorizontal,p,98,20,F,2021-02-22_15h06.52.352,exp11,2020.2.6,Win32,60,IwAR3R5PMcyePkaTCmI2UcelYmKvlv8dysMTiNvE4jYs1WxaZh729grXaSXYk,,,,,,,,,,,
,,,,,,,,,,,,,,a,1,0.675,space,0.034,0,96,96,103,1,0_targ_1_dist_red/trial4.png,,,0,1,redHorizontal,a,98,20,F,2021-02-22_15h06.52.352,exp11,2020.2.6,Win32,60,IwAR3R5PMcyePkaTCmI2UcelYmKvlv8dysMTiNvE4jYs1WxaZh729grXaSXYk,,,,,,,,,,,
,,,,,,,,,,,,,,p,1,0.604,space,0.051,0,97,97,8,1,0_dist_red/trial9.png,,,1,0,redHorizontal,p,98,20,F,2021-02-22_15h06.52.352,exp11,2020.2.6,Win32,60,IwAR3R5PMcyePkaTCmI2UcelYmKvlv8dysMTiNvE4jYs1WxaZh729grXaSXYk,,,,,,,,,,,
,,,,,,,,,,,,,,p,1,0.57,space,0.053,0,98,98,63,1,9_dist_red/trial14.png,,,1,9,redHorizontal,p,98,20,F,2021-02-22_15h06.52.352,exp11,2020.2.6,Win32,60,IwAR3R5PMcyePkaTCmI2UcelYmKvlv8dysMTiNvE4jYs1WxaZh729grXaSXYk,,,,,,,,,,,
,,,,,,,,,,,,,,a,1,0.623,space,0.067,0,99,99,158,1,0_targ_10_dist_red/trial9.png,,,0,10,redHorizontal,a,98,20,F,2021-02-22_15h06.52.352,exp11,2020.2.6,Win32,60,IwAR3R5PMcyePkaTCmI2UcelYmKvlv8dysMTiNvE4jYs1WxaZh729grXaSXYk,,,,,,,,,,,
,,,,,,,,,,,,,,a,1,0.675,space,0.1,0,100,100,129,1,0_targ_4_dist_red/trial5.png,,,0,4,redHorizontal,a,98,20,F,2021-02-22_15h06.52.352,exp11,2020.2.6,Win32,60,IwAR3R5PMcyePkaTCmI2UcelYmKvlv8dysMTiNvE4jYs1WxaZh729grXaSXYk,,,,,,,,,,,
,,,,,,,,,,,,,,p,1,0.605,space,0.038,0,101,101,79,1,15_dist_red/trial5.png,,,1,15,redHorizontal,p,98,20,F,2021-02-22_15h06.52.352,exp11,2020.2.6,Win32,60,IwAR3R5PMcyePkaTCmI2UcelYmKvlv8dysMTiNvE4jYs1WxaZh729grXaSXYk,,,,,,,,,,,
,,,,,,,,,,,,,,a,1,0.839,space,0.067,0,102,102,191,1,0_targ_16_dist_red/trial17.png,,,0,16,redHorizontal,a,98,20,F,2021-02-22_15h06.52.352,exp11,2020.2.6,Win32,60,IwAR3R5PMcyePkaTCmI2UcelYmKvlv8dysMTiNvE4jYs1WxaZh729grXaSXYk,,,,,,,,,,,
,,,,,,,,,,,,,,a,1,0.588,space,0.05,0,103,103,179,1,0_targ_16_dist_red/trial5.png,,,0,16,redHorizontal,a,98,20,F,2021-02-22_15h06.52.352,exp11,2020.2.6,Win32,60,IwAR3R5PMcyePkaTCmI2UcelYmKvlv8dysMTiNvE4jYs1WxaZh729grXaSXYk,,,,,,,,,,,
,,,,,,,,,,,,,,a,1,0.622,space,0.101,0,104,104,172,1,0_targ_10_dist_red/trial23.png,,,0,10,redHorizontal,a,98,20,F,2021-02-22_15h06.52.352,exp11,2020.2.6,Win32,60,IwAR3R5PMcyePkaTCmI2UcelYmKvlv8dysMTiNvE4jYs1WxaZh729grXaSXYk,,,,,,,,,,,
,,,,,,,,,,,,,,p,1,0.771,space,0.049,0,105,105,69,1,9_dist_red/trial20.png,,,1,9,redHorizontal,p,98,20,F,2021-02-22_15h06.52.352,exp11,2020.2.6,Win32,60,IwAR3R5PMcyePkaTCmI2UcelYmKvlv8dysMTiNvE4jYs1WxaZh729grXaSXYk,,,,,,,,,,,
,,,,,,,,,,,,,,p,1,0.556,space,0.033,0,106,106,89,1,15_dist_red/trial15.png,,,1,15,redHorizontal,p,98,20,F,2021-02-22_15h06.52.352,exp11,2020.2.6,Win32,60,IwAR3R5PMcyePkaTCmI2UcelYmKvlv8dysMTiNvE4jYs1WxaZh729grXaSXYk,,,,,,,,,,,
,,,,,,,,,,,,,,a,1,0.743,space,0.12,0,107,107,105,1,0_targ_1_dist_red/trial6.png,,,0,1,redHorizontal,a,98,20,F,2021-02-22_15h06.52.352,exp11,2020.2.6,Win32,60,IwAR3R5PMcyePkaTCmI2UcelYmKvlv8dysMTiNvE4jYs1WxaZh729grXaSXYk,,,,,,,,,,,
,,,,,,,,,,,,,,p,1,0.656,space,0.036,0,108,108,22,1,0_dist_red/trial23.png,,,1,0,redHorizontal,p,98,20,F,2021-02-22_15h06.52.352,exp11,2020.2.6,Win32,60,IwAR3R5PMcyePkaTCmI2UcelYmKvlv8dysMTiNvE4jYs1WxaZh729grXaSXYk,,,,,,,,,,,
,,,,,,,,,,,,,,a,1,1.187,space,0.139,0,109,109,185,1,0_targ_16_dist_red/trial11.png,,,0,16,redHorizontal,a,98,20,F,2021-02-22_15h06.52.352,exp11,2020.2.6,Win32,60,IwAR3R5PMcyePkaTCmI2UcelYmKvlv8dysMTiNvE4jYs1WxaZh729grXaSXYk,,,,,,,,,,,
,,,,,,,,,,,,,,p,1,0.591,space,0.035,0,110,110,41,1,3_dist_red/trial17.png,,,1,3,redHorizontal,p,98,20,F,2021-02-22_15h06.52.352,exp11,2020.2.6,Win32,60,IwAR3R5PMcyePkaTCmI2UcelYmKvlv8dysMTiNvE4jYs1WxaZh729grXaSXYk,,,,,,,,,,,
,,,,,,,,,,,,,,a,1,0.67,space,0.037,0,111,111,181,1,0_targ_16_dist_red/trial7.png,,,0,16,redHorizontal,a,98,20,F,2021-02-22_15h06.52.352,exp11,2020.2.6,Win32,60,IwAR3R5PMcyePkaTCmI2UcelYmKvlv8dysMTiNvE4jYs1WxaZh729grXaSXYk,,,,,,,,,,,
,,,,,,,,,,,,,,a,1,0.674,space,0.084,0,112,112,107,1,0_targ_1_dist_red/trial8.png,,,0,1,redHorizontal,a,98,20,F,2021-02-22_15h06.52.352,exp11,2020.2.6,Win32,60,IwAR3R5PMcyePkaTCmI2UcelYmKvlv8dysMTiNvE4jYs1WxaZh729grXaSXYk,,,,,,,,,,,
,,,,,,,,,,,,,,p,1,0.539,space,0.036,0,113,113,87,1,15_dist_red/trial13.png,,,1,15,redHorizontal,p,98,20,F,2021-02-22_15h06.52.352,exp11,2020.2.6,Win32,60,IwAR3R5PMcyePkaTCmI2UcelYmKvlv8dysMTiNvE4jYs1WxaZh729grXaSXYk,,,,,,,,,,,
,,,,,,,,,,,,,,p,1,0.555,space,0.051,0,114,114,67,1,9_dist_red/trial18.png,,,1,9,redHorizontal,p,98,20,F,2021-02-22_15h06.52.352,exp11,2020.2.6,Win32,60,IwAR3R5PMcyePkaTCmI2UcelYmKvlv8dysMTiNvE4jYs1WxaZh729grXaSXYk,,,,,,,,,,,
,,,,,,,,,,,,,,p,1,0.605,space,0.037,0,115,115,26,1,3_dist_red/trial2.png,,,1,3,redHorizontal,p,98,20,F,2021-02-22_15h06.52.352,exp11,2020.2.6,Win32,60,IwAR3R5PMcyePkaTCmI2UcelYmKvlv8dysMTiNvE4jYs1WxaZh729grXaSXYk,,,,,,,,,,,
,,,,,,,,,,,,,,a,1,0.707,space,0.034,0,116,116,169,1,0_targ_10_dist_red/trial20.png,,,0,10,redHorizontal,a,98,20,F,2021-02-22_15h06.52.352,exp11,2020.2.6,Win32,60,IwAR3R5PMcyePkaTCmI2UcelYmKvlv8dysMTiNvE4jYs1WxaZh729grXaSXYk,,,,,,,,,,,
,,,,,,,,,,,,,,a,1,0.605,space,0.052,0,117,117,111,1,0_targ_1_dist_red/trial12.png,,,0,1,redHorizontal,a,98,20,F,2021-02-22_15h06.52.352,exp11,2020.2.6,Win32,60,IwAR3R5PMcyePkaTCmI2UcelYmKvlv8dysMTiNvE4jYs1WxaZh729grXaSXYk,,,,,,,,,,,
,,,,,,,,,,,,,,p,1,0.808,space,0.039,0,118,118,31,1,3_dist_red/trial7.png,,,1,3,redHorizontal,p,98,20,F,2021-02-22_15h06.52.352,exp11,2020.2.6,Win32,60,IwAR3R5PMcyePkaTCmI2UcelYmKvlv8dysMTiNvE4jYs1WxaZh729grXaSXYk,,,,,,,,,,,
,,,,,,,,,,,,,,p,1,0.539,space,0.05,0,119,119,9,1,0_dist_red/trial10.png,,,1,0,redHorizontal,p,98,20,F,2021-02-22_15h06.52.352,exp11,2020.2.6,Win32,60,IwAR3R5PMcyePkaTCmI2UcelYmKvlv8dysMTiNvE4jYs1WxaZh729grXaSXYk,,,,,,,,,,,
,,,,,,,,,,,,,,a,1,0.757,space,0.084,0,120,120,182,1,0_targ_16_dist_red/trial8.png,,,0,16,redHorizontal,a,98,20,F,2021-02-22_15h06.52.352,exp11,2020.2.6,Win32,60,IwAR3R5PMcyePkaTCmI2UcelYmKvlv8dysMTiNvE4jYs1WxaZh729grXaSXYk,,,,,,,,,,,
,,,,,,,,,,,,,,p,1,0.956,space,0.07,0,121,121,64,1,9_dist_red/trial15.png,,,1,9,redHorizontal,p,98,20,F,2021-02-22_15h06.52.352,exp11,2020.2.6,Win32,60,IwAR3R5PMcyePkaTCmI2UcelYmKvlv8dysMTiNvE4jYs1WxaZh729grXaSXYk,,,,,,,,,,,
,,,,,,,,,,,,,,a,1,0.684,space,0.051,0,122,122,139,1,0_targ_4_dist_red/trial15.png,,,0,4,redHorizontal,a,98,20,F,2021-02-22_15h06.52.352,exp11,2020.2.6,Win32,60,IwAR3R5PMcyePkaTCmI2UcelYmKvlv8dysMTiNvE4jYs1WxaZh729grXaSXYk,,,,,,,,,,,
,,,,,,,,,,,,,,a,1,0.687,space,0.056,0,123,123,168,1,0_targ_10_dist_red/trial19.png,,,0,10,redHorizontal,a,98,20,F,2021-02-22_15h06.52.352,exp11,2020.2.6,Win32,60,IwAR3R5PMcyePkaTCmI2UcelYmKvlv8dysMTiNvE4jYs1WxaZh729grXaSXYk,,,,,,,,,,,
,,,,,,,,,,,,,,a,1,0.704,space,0.105,0,124,124,123,1,0_targ_1_dist_red/trial24.png,,,0,1,redHorizontal,a,98,20,F,2021-02-22_15h06.52.352,exp11,2020.2.6,Win32,60,IwAR3R5PMcyePkaTCmI2UcelYmKvlv8dysMTiNvE4jYs1WxaZh729grXaSXYk,,,,,,,,,,,
,,,,,,,,,,,,,,p,1,0.684,space,0.037,0,125,125,2,1,0_dist_red/trial3.png,,,1,0,redHorizontal,p,98,20,F,2021-02-22_15h06.52.352,exp11,2020.2.6,Win32,60,IwAR3R5PMcyePkaTCmI2UcelYmKvlv8dysMTiNvE4jYs1WxaZh729grXaSXYk,,,,,,,,,,,
,,,,,,,,,,,,,,a,1,0.687,space,0.018,0,126,126,187,1,0_targ_16_dist_red/trial13.png,,,0,16,redHorizontal,a,98,20,F,2021-02-22_15h06.52.352,exp11,2020.2.6,Win32,60,IwAR3R5PMcyePkaTCmI2UcelYmKvlv8dysMTiNvE4jYs1WxaZh729grXaSXYk,,,,,,,,,,,
,,,,,,,,,,,,,,a,1,0.622,space,0.05,0,127,127,115,1,0_targ_1_dist_red/trial6.png,,,0,1,redHorizontal,a,98,20,F,2021-02-22_15h06.52.352,exp11,2020.2.6,Win32,60,IwAR3R5PMcyePkaTCmI2UcelYmKvlv8dysMTiNvE4jYs1WxaZh729grXaSXYk,,,,,,,,,,,
,,,,,,,,,,,,,,a,1,0.622,space,0.066,0,128,128,166,1,0_targ_10_dist_red/trial17.png,,,0,10,redHorizontal,a,98,20,F,2021-02-22_15h06.52.352,exp11,2020.2.6,Win32,60,IwAR3R5PMcyePkaTCmI2UcelYmKvlv8dysMTiNvE4jYs1WxaZh729grXaSXYk,,,,,,,,,,,
,,,,,,,,,,,,,,p,1,0.671,space,0.055,0,129,129,16,1,0_dist_red/trial17.png,,,1,0,redHorizontal,p,98,20,F,2021-02-22_15h06.52.352,exp11,2020.2.6,Win32,60,IwAR3R5PMcyePkaTCmI2UcelYmKvlv8dysMTiNvE4jYs1WxaZh729grXaSXYk,,,,,,,,,,,
,,,,,,,,,,,,,,a,1,0.854,space,0.004,0,130,130,121,1,0_targ_1_dist_red/trial22.png,,,0,1,redHorizontal,a,98,20,F,2021-02-22_15h06.52.352,exp11,2020.2.6,Win32,60,IwAR3R5PMcyePkaTCmI2UcelYmKvlv8dysMTiNvE4jYs1WxaZh729grXaSXYk,,,,,,,,,,,
,,,,,,,,,,,,,,p,1,0.709,space,0.034,0,131,131,85,1,15_dist_red/trial11.png,,,1,15,redHorizontal,p,98,20,F,2021-02-22_15h06.52.352,exp11,2020.2.6,Win32,60,IwAR3R5PMcyePkaTCmI2UcelYmKvlv8dysMTiNvE4jYs1WxaZh729grXaSXYk,,,,,,,,,,,
,,,,,,,,,,,,,,p,1,0.508,space,0.07,0,132,132,7,1,0_dist_red/trial8.png,,,1,0,redHorizontal,p,98,20,F,2021-02-22_15h06.52.352,exp11,2020.2.6,Win32,60,IwAR3R5PMcyePkaTCmI2UcelYmKvlv8dysMTiNvE4jYs1WxaZh729grXaSXYk,,,,,,,,,,,
,,,,,,,,,,,,,,a,1,0.674,space,0.035,0,133,133,112,1,0_targ_1_dist_red/trial13.png,,,0,1,redHorizontal,a,98,20,F,2021-02-22_15h06.52.352,exp11,2020.2.6,Win32,60,IwAR3R5PMcyePkaTCmI2UcelYmKvlv8dysMTiNvE4jYs1WxaZh729grXaSXYk,,,,,,,,,,,
,,,,,,,,,,,,,,a,1,0.69,space,0.038,0,134,134,142,1,0_targ_4_dist_red/trial18.png,,,0,4,redHorizontal,a,98,20,F,2021-02-22_15h06.52.352,exp11,2020.2.6,Win32,60,IwAR3R5PMcyePkaTCmI2UcelYmKvlv8dysMTiNvE4jYs1WxaZh729grXaSXYk,,,,,,,,,,,
,,,,,,,,,,,,,,a,1,0.556,space,0.051,0,135,135,144,1,0_targ_4_dist_red/trial20.png,,,0,4,redHorizontal,a,98,20,F,2021-02-22_15h06.52.352,exp11,2020.2.6,Win32,60,IwAR3R5PMcyePkaTCmI2UcelYmKvlv8dysMTiNvE4jYs1WxaZh729grXaSXYk,,,,,,,,,,,
,,,,,,,,,,,,,,a,1,0.738,space,0.089,0,136,136,151,1,0_targ_10_dist_red/trial2.png,,,0,10,redHorizontal,a,98,20,F,2021-02-22_15h06.52.352,exp11,2020.2.6,Win32,60,IwAR3R5PMcyePkaTCmI2UcelYmKvlv8dysMTiNvE4jYs1WxaZh729grXaSXYk,,,,,,,,,,,
,,,,,,,,,,,,,,p,1,0.82,space,0.067,0,137,137,51,1,9_dist_red/trial2.png,,,1,9,redHorizontal,p,98,20,F,2021-02-22_15h06.52.352,exp11,2020.2.6,Win32,60,IwAR3R5PMcyePkaTCmI2UcelYmKvlv8dysMTiNvE4jYs1WxaZh729grXaSXYk,,,,,,,,,,,
,,,,,,,,,,,,,,p,1,0.737,space,0.05,0,138,138,60,1,9_dist_red/trial11.png,,,1,9,redHorizontal,p,98,20,F,2021-02-22_15h06.52.352,exp11,2020.2.6,Win32,60,IwAR3R5PMcyePkaTCmI2UcelYmKvlv8dysMTiNvE4jYs1WxaZh729grXaSXYk,,,,,,,,,,,
,,,,,,,,,,,,,,a,1,0.634,space,0.033,0,139,139,143,1,0_targ_4_dist_red/trial19.png,,,0,4,redHorizontal,a,98,20,F,2021-02-22_15h06.52.352,exp11,2020.2.6,Win32,60,IwAR3R5PMcyePkaTCmI2UcelYmKvlv8dysMTiNvE4jYs1WxaZh729grXaSXYk,,,,,,,,,,,
,,,,,,,,,,,,,,a,1,0.621,space,0.084,0,140,140,132,1,0_targ_4_dist_red/trial8.png,,,0,4,redHorizontal,a,98,20,F,2021-02-22_15h06.52.352,exp11,2020.2.6,Win32,60,IwAR3R5PMcyePkaTCmI2UcelYmKvlv8dysMTiNvE4jYs1WxaZh729grXaSXYk,,,,,,,,,,,
,,,,,,,,,,,,,,p,1,0.637,space,0.051,0,141,141,40,1,3_dist_red/trial16.png,,,1,3,redHorizontal,p,98,20,F,2021-02-22_15h06.52.352,exp11,2020.2.6,Win32,60,IwAR3R5PMcyePkaTCmI2UcelYmKvlv8dysMTiNvE4jYs1WxaZh729grXaSXYk,,,,,,,,,,,
,,,,,,,,,,,,,,a,1,0.739,space,0.085,0,142,142,118,1,0_targ_1_dist_red/trial19.png,,,0,1,redHorizontal,a,98,20,F,2021-02-22_15h06.52.352,exp11,2020.2.6,Win32,60,IwAR3R5PMcyePkaTCmI2UcelYmKvlv8dysMTiNvE4jYs1WxaZh729grXaSXYk,,,,,,,,,,,
,,,,,,,,,,,,,,a,1,0.606,space,0.068,0,143,143,165,1,0_targ_10_dist_red/trial16.png,,,0,10,redHorizontal,a,98,20,F,2021-02-22_15h06.52.352,exp11,2020.2.6,Win32,60,IwAR3R5PMcyePkaTCmI2UcelYmKvlv8dysMTiNvE4jYs1WxaZh729grXaSXYk,,,,,,,,,,,
,,,,,,,,,,,,,,p,1,0.604,space,0.034,0,144,144,32,1,3_dist_red/trial8.png,,,1,3,redHorizontal,p,98,20,F,2021-02-22_15h06.52.352,exp11,2020.2.6,Win32,60,IwAR3R5PMcyePkaTCmI2UcelYmKvlv8dysMTiNvE4jYs1WxaZh729grXaSXYk,,,,,,,,,,,
,,,,,,,,,,,,,,a,1,0.721,space,0.055,0,145,145,155,1,0_targ_10_dist_red/trial6.png,,,0,10,redHorizontal,a,98,20,F,2021-02-22_15h06.52.352,exp11,2020.2.6,Win32,60,IwAR3R5PMcyePkaTCmI2UcelYmKvlv8dysMTiNvE4jYs1WxaZh729grXaSXYk,,,,,,,,,,,
,,,,,,,,,,,,,,p,1,0.637,space,0.02,0,146,146,17,1,0_dist_red/trial18.png,,,1,0,redHorizontal,p,98,20,F,2021-02-22_15h06.52.352,exp11,2020.2.6,Win32,60,IwAR3R5PMcyePkaTCmI2UcelYmKvlv8dysMTiNvE4jYs1WxaZh729grXaSXYk,,,,,,,,,,,
,,,,,,,,,,,,,,a,1,0.592,space,0.049,0,147,147,167,1,0_targ_10_dist_red/trial18.png,,,0,10,redHorizontal,a,98,20,F,2021-02-22_15h06.52.352,exp11,2020.2.6,Win32,60,IwAR3R5PMcyePkaTCmI2UcelYmKvlv8dysMTiNvE4jYs1WxaZh729grXaSXYk,,,,,,,,,,,
,,,,,,,,,,,,,,p,1,0.753,space,0.004,0,148,148,78,1,15_dist_red/trial4.png,,,1,15,redHorizontal,p,98,20,F,2021-02-22_15h06.52.352,exp11,2020.2.6,Win32,60,IwAR3R5PMcyePkaTCmI2UcelYmKvlv8dysMTiNvE4jYs1WxaZh729grXaSXYk,,,,,,,,,,,
,,,,,,,,,,,,,,p,1,0.539,space,0.051,0,149,149,53,1,9_dist_red/trial4.png,,,1,9,redHorizontal,p,98,20,F,2021-02-22_15h06.52.352,exp11,2020.2.6,Win32,60,IwAR3R5PMcyePkaTCmI2UcelYmKvlv8dysMTiNvE4jYs1WxaZh729grXaSXYk,,,,,,,,,,,
,,,,,,,,,,,,,,a,1,0.691,space,0.085,0,150,150,160,1,0_targ_10_dist_red/trial11.png,,,0,10,redHorizontal,a,98,20,F,2021-02-22_15h06.52.352,exp11,2020.2.6,Win32,60,IwAR3R5PMcyePkaTCmI2UcelYmKvlv8dysMTiNvE4jYs1WxaZh729grXaSXYk,,,,,,,,,,,
,,,,,,,,,,,,,,p,1,0.641,space,0.068,0,151,151,30,1,3_dist_red/trial6.png,,,1,3,redHorizontal,p,98,20,F,2021-02-22_15h06.52.352,exp11,2020.2.6,Win32,60,IwAR3R5PMcyePkaTCmI2UcelYmKvlv8dysMTiNvE4jYs1WxaZh729grXaSXYk,,,,,,,,,,,
,,,,,,,,,,,,,,a,1,0.588,space,0.051,0,152,152,152,1,0_targ_10_dist_red/trial3.png,,,0,10,redHorizontal,a,98,20,F,2021-02-22_15h06.52.352,exp11,2020.2.6,Win32,60,IwAR3R5PMcyePkaTCmI2UcelYmKvlv8dysMTiNvE4jYs1WxaZh729grXaSXYk,,,,,,,,,,,
,,,,,,,,,,,,,,a,1,0.892,space,0.084,0,153,153,159,1,0_targ_10_dist_red/trial10.png,,,0,10,redHorizontal,a,98,20,F,2021-02-22_15h06.52.352,exp11,2020.2.6,Win32,60,IwAR3R5PMcyePkaTCmI2UcelYmKvlv8dysMTiNvE4jYs1WxaZh729grXaSXYk,,,,,,,,,,,
,,,,,,,,,,,,,,a,1,0.671,space,0.072,0,154,154,176,1,0_targ_16_dist_red/trial2.png,,,0,16,redHorizontal,a,98,20,F,2021-02-22_15h06.52.352,exp11,2020.2.6,Win32,60,IwAR3R5PMcyePkaTCmI2UcelYmKvlv8dysMTiNvE4jYs1WxaZh729grXaSXYk,,,,,,,,,,,
,,,,,,,,,,,,,,a,1,0.639,space,0.056,0,155,155,131,1,0_targ_4_dist_red/trial7.png,,,0,4,redHorizontal,a,98,20,F,2021-02-22_15h06.52.352,exp11,2020.2.6,Win32,60,IwAR3R5PMcyePkaTCmI2UcelYmKvlv8dysMTiNvE4jYs1WxaZh729grXaSXYk,,,,,,,,,,,
,,,,,,,,,,,,,,p,1,0.689,space,0.05,0,156,156,66,1,9_dist_red/trial17.png,,,1,9,redHorizontal,p,98,20,F,2021-02-22_15h06.52.352,exp11,2020.2.6,Win32,60,IwAR3R5PMcyePkaTCmI2UcelYmKvlv8dysMTiNvE4jYs1WxaZh729grXaSXYk,,,,,,,,,,,
,,,,,,,,,,,,,,p,1,0.887,space,0.073,0,157,157,49,1,3_dist_red/trial25.png,,,1,3,redHorizontal,p,98,20,F,2021-02-22_15h06.52.352,exp11,2020.2.6,Win32,60,IwAR3R5PMcyePkaTCmI2UcelYmKvlv8dysMTiNvE4jYs1WxaZh729grXaSXYk,,,,,,,,,,,
,,,,,,,,,,,,,,p,1,0.488,space,0.05,0,158,158,4,1,0_dist_red/trial5.png,,,1,0,redHorizontal,p,98,20,F,2021-02-22_15h06.52.352,exp11,2020.2.6,Win32,60,IwAR3R5PMcyePkaTCmI2UcelYmKvlv8dysMTiNvE4jYs1WxaZh729grXaSXYk,,,,,,,,,,,
,,,,,,,,,,,,,,p,1,0.871,space,0.056,0,159,159,81,1,15_dist_red/trial7.png,,,1,15,redHorizontal,p,98,20,F,2021-02-22_15h06.52.352,exp11,2020.2.6,Win32,60,IwAR3R5PMcyePkaTCmI2UcelYmKvlv8dysMTiNvE4jYs1WxaZh729grXaSXYk,,,,,,,,,,,
,,,,,,,,,,,,,,p,1,0.505,space,0.071,0,160,160,61,1,9_dist_red/trial12.png,,,1,9,redHorizontal,p,98,20,F,2021-02-22_15h06.52.352,exp11,2020.2.6,Win32,60,IwAR3R5PMcyePkaTCmI2UcelYmKvlv8dysMTiNvE4jYs1WxaZh729grXaSXYk,,,,,,,,,,,
,,,,,,,,,,,,,,p,1,0.49,space,0.068,0,161,161,42,1,3_dist_red/trial18.png,,,1,3,redHorizontal,p,98,20,F,2021-02-22_15h06.52.352,exp11,2020.2.6,Win32,60,IwAR3R5PMcyePkaTCmI2UcelYmKvlv8dysMTiNvE4jYs1WxaZh729grXaSXYk,,,,,,,,,,,
,,,,,,,,,,,,,,a,1,0.62,space,0.038,0,162,162,145,1,0_targ_4_dist_red/trial21.png,,,0,4,redHorizontal,a,98,20,F,2021-02-22_15h06.52.352,exp11,2020.2.6,Win32,60,IwAR3R5PMcyePkaTCmI2UcelYmKvlv8dysMTiNvE4jYs1WxaZh729grXaSXYk,,,,,,,,,,,
,,,,,,,,,,,,,,a,1,0.773,space,0.034,0,163,163,161,1,0_targ_10_dist_red/trial12.png,,,0,10,redHorizontal,a,98,20,F,2021-02-22_15h06.52.352,exp11,2020.2.6,Win32,60,IwAR3R5PMcyePkaTCmI2UcelYmKvlv8dysMTiNvE4jYs1WxaZh729grXaSXYk,,,,,,,,,,,
,,,,,,,,,,,,,,a,1,0.621,space,0.101,0,164,164,149,1,0_targ_4_dist_red/trial25.png,,,0,4,redHorizontal,a,98,20,F,2021-02-22_15h06.52.352,exp11,2020.2.6,Win32,60,IwAR3R5PMcyePkaTCmI2UcelYmKvlv8dysMTiNvE4jYs1WxaZh729grXaSXYk,,,,,,,,,,,
,,,,,,,,,,,,,,a,1,0.622,space,0.102,0,165,165,183,1,0_targ_16_dist_red/trial9.png,,,0,16,redHorizontal,a,98,20,F,2021-02-22_15h06.52.352,exp11,2020.2.6,Win32,60,IwAR3R5PMcyePkaTCmI2UcelYmKvlv8dysMTiNvE4jYs1WxaZh729grXaSXYk,,,,,,,,,,,
,,,,,,,,,,,,,,p,1,0.788,space,0.021,0,166,166,71,1,9_dist_red/trial22.png,,,1,9,redHorizontal,p,98,20,F,2021-02-22_15h06.52.352,exp11,2020.2.6,Win32,60,IwAR3R5PMcyePkaTCmI2UcelYmKvlv8dysMTiNvE4jYs1WxaZh729grXaSXYk,,,,,,,,,,,
,,,,,,,,,,,,,,a,1,0.755,space,0.066,0,167,167,127,1,0_targ_4_dist_red/trial3.png,,,0,4,redHorizontal,a,98,20,F,2021-02-22_15h06.52.352,exp11,2020.2.6,Win32,60,IwAR3R5PMcyePkaTCmI2UcelYmKvlv8dysMTiNvE4jYs1WxaZh729grXaSXYk,,,,,,,,,,,
,,,,,,,,,,,,,,a,1,0.687,space,0.123,0,168,168,113,1,0_targ_1_dist_red/trial14.png,,,0,1,redHorizontal,a,98,20,F,2021-02-22_15h06.52.352,exp11,2020.2.6,Win32,60,IwAR3R5PMcyePkaTCmI2UcelYmKvlv8dysMTiNvE4jYs1WxaZh729grXaSXYk,,,,,,,,,,,
,,,,,,,,,,,,,,a,1,0.706,space,0.086,0,169,169,180,1,0_targ_16_dist_red/trial6.png,,,0,16,redHorizontal,a,98,20,F,2021-02-22_15h06.52.352,exp11,2020.2.6,Win32,60,IwAR3R5PMcyePkaTCmI2UcelYmKvlv8dysMTiNvE4jYs1WxaZh729grXaSXYk,,,,,,,,,,,
,,,,,,,,,,,,,,p,1,0.809,space,0.051,0,170,170,50,1,9_dist_red/trial1.png,,,1,9,redHorizontal,p,98,20,F,2021-02-22_15h06.52.352,exp11,2020.2.6,Win32,60,IwAR3R5PMcyePkaTCmI2UcelYmKvlv8dysMTiNvE4jYs1WxaZh729grXaSXYk,,,,,,,,,,,
,,,,,,,,,,,,,,a,1,0.68,space,0.034,0,171,171,178,1,0_targ_16_dist_red/trial4.png,,,0,16,redHorizontal,a,98,20,F,2021-02-22_15h06.52.352,exp11,2020.2.6,Win32,60,IwAR3R5PMcyePkaTCmI2UcelYmKvlv8dysMTiNvE4jYs1WxaZh729grXaSXYk,,,,,,,,,,,
,,,,,,,,,,,,,,p,1,0.7,space,0.019,0,172,172,57,1,9_dist_red/trial8.png,,,1,9,redHorizontal,p,98,20,F,2021-02-22_15h06.52.352,exp11,2020.2.6,Win32,60,IwAR3R5PMcyePkaTCmI2UcelYmKvlv8dysMTiNvE4jYs1WxaZh729grXaSXYk,,,,,,,,,,,
,,,,,,,,,,,,,,p,0,0.624,space,0.051,0,173,173,133,1,0_targ_4_dist_red/trial9.png,,,0,4,redHorizontal,a,98,20,F,2021-02-22_15h06.52.352,exp11,2020.2.6,Win32,60,IwAR3R5PMcyePkaTCmI2UcelYmKvlv8dysMTiNvE4jYs1WxaZh729grXaSXYk,,,,,,,,,,,
,,,,,,,,,,,,,,a,1,0.892,space,0.031,0,174,174,136,1,0_targ_4_dist_red/trial12.png,,,0,4,redHorizontal,a,98,20,F,2021-02-22_15h06.52.352,exp11,2020.2.6,Win32,60,IwAR3R5PMcyePkaTCmI2UcelYmKvlv8dysMTiNvE4jYs1WxaZh729grXaSXYk,,,,,,,,,,,
,,,,,,,,,,,,,,p,1,0.769,space,0.022,0,175,175,82,1,15_dist_red/trial8.png,,,1,15,redHorizontal,p,98,20,F,2021-02-22_15h06.52.352,exp11,2020.2.6,Win32,60,IwAR3R5PMcyePkaTCmI2UcelYmKvlv8dysMTiNvE4jYs1WxaZh729grXaSXYk,,,,,,,,,,,
,,,,,,,,,,,,,,p,1,0.673,space,0.051,0,176,176,47,1,3_dist_red/trial23.png,,,1,3,redHorizontal,p,98,20,F,2021-02-22_15h06.52.352,exp11,2020.2.6,Win32,60,IwAR3R5PMcyePkaTCmI2UcelYmKvlv8dysMTiNvE4jYs1WxaZh729grXaSXYk,,,,,,,,,,,
,,,,,,,,,,,,,,a,1,0.622,space,0.038,0,177,177,135,1,0_targ_4_dist_red/trial11.png,,,0,4,redHorizontal,a,98,20,F,2021-02-22_15h06.52.352,exp11,2020.2.6,Win32,60,IwAR3R5PMcyePkaTCmI2UcelYmKvlv8dysMTiNvE4jYs1WxaZh729grXaSXYk,,,,,,,,,,,
,,,,,,,,,,,,,,p,1,0.822,space,0.003,0,178,178,88,1,15_dist_red/trial14.png,,,1,15,redHorizontal,p,98,20,F,2021-02-22_15h06.52.352,exp11,2020.2.6,Win32,60,IwAR3R5PMcyePkaTCmI2UcelYmKvlv8dysMTiNvE4jYs1WxaZh729grXaSXYk,,,,,,,,,,,
,,,,,,,,,,,,,,p,1,0.573,space,0.051,0,179,179,35,1,3_dist_red/trial11.png,,,1,3,redHorizontal,p,98,20,F,2021-02-22_15h06.52.352,exp11,2020.2.6,Win32,60,IwAR3R5PMcyePkaTCmI2UcelYmKvlv8dysMTiNvE4jYs1WxaZh729grXaSXYk,,,,,,,,,,,
,,,,,,,,,,,,,,p,1,0.522,space,0.034,0,180,180,48,1,3_dist_red/trial24.png,,,1,3,redHorizontal,p,98,20,F,2021-02-22_15h06.52.352,exp11,2020.2.6,Win32,60,IwAR3R5PMcyePkaTCmI2UcelYmKvlv8dysMTiNvE4jYs1WxaZh729grXaSXYk,,,,,,,,,,,
,,,,,,,,,,,,,,a,1,0.622,space,0.016,0,181,181,138,1,0_targ_4_dist_red/trial14.png,,,0,4,redHorizontal,a,98,20,F,2021-02-22_15h06.52.352,exp11,2020.2.6,Win32,60,IwAR3R5PMcyePkaTCmI2UcelYmKvlv8dysMTiNvE4jYs1WxaZh729grXaSXYk,,,,,,,,,,,
,,,,,,,,,,,,,,a,1,0.722,space,0.052,0,182,182,150,1,0_targ_10_dist_red/trial1.png,,,0,10,redHorizontal,a,98,20,F,2021-02-22_15h06.52.352,exp11,2020.2.6,Win32,60,IwAR3R5PMcyePkaTCmI2UcelYmKvlv8dysMTiNvE4jYs1WxaZh729grXaSXYk,,,,,,,,,,,
,,,,,,,,,,,,,,a,1,0.67,space,0.05,0,183,183,124,1,0_targ_1_dist_red/trial25.png,,,0,1,redHorizontal,a,98,20,F,2021-02-22_15h06.52.352,exp11,2020.2.6,Win32,60,IwAR3R5PMcyePkaTCmI2UcelYmKvlv8dysMTiNvE4jYs1WxaZh729grXaSXYk,,,,,,,,,,,
,,,,,,,,,,,,,,a,1,1.137,space,0.034,0,184,184,186,1,0_targ_16_dist_red/trial12.png,,,0,16,redHorizontal,a,98,20,F,2021-02-22_15h06.52.352,exp11,2020.2.6,Win32,60,IwAR3R5PMcyePkaTCmI2UcelYmKvlv8dysMTiNvE4jYs1WxaZh729grXaSXYk,,,,,,,,,,,
,,,,,,,,,,,,,,a,1,0.475,space,0.066,0,185,185,106,1,0_targ_1_dist_red/trial7.png,,,0,1,redHorizontal,a,98,20,F,2021-02-22_15h06.52.352,exp11,2020.2.6,Win32,60,IwAR3R5PMcyePkaTCmI2UcelYmKvlv8dysMTiNvE4jYs1WxaZh729grXaSXYk,,,,,,,,,,,
,,,,,,,,,,,,,,a,1,0.606,space,0.084,0,186,186,122,1,0_targ_1_dist_red/trial23.png,,,0,1,redHorizontal,a,98,20,F,2021-02-22_15h06.52.352,exp11,2020.2.6,Win32,60,IwAR3R5PMcyePkaTCmI2UcelYmKvlv8dysMTiNvE4jYs1WxaZh729grXaSXYk,,,,,,,,,,,
,,,,,,,,,,,,,,p,1,0.743,space,0.055,0,187,187,72,1,9_dist_red/trial23.png,,,1,9,redHorizontal,p,98,20,F,2021-02-22_15h06.52.352,exp11,2020.2.6,Win32,60,IwAR3R5PMcyePkaTCmI2UcelYmKvlv8dysMTiNvE4jYs1WxaZh729grXaSXYk,,,,,,,,,,,
,,,,,,,,,,,,,,a,1,0.656,space,0.033,0,188,188,126,1,0_targ_4_dist_red/trial2.png,,,0,4,redHorizontal,a,98,20,F,2021-02-22_15h06.52.352,exp11,2020.2.6,Win32,60,IwAR3R5PMcyePkaTCmI2UcelYmKvlv8dysMTiNvE4jYs1WxaZh729grXaSXYk,,,,,,,,,,,
,,,,,,,,,,,,,,p,1,0.591,space,0.034,0,189,189,21,1,0_dist_red/trial22.png,,,1,0,redHorizontal,p,98,20,F,2021-02-22_15h06.52.352,exp11,2020.2.6,Win32,60,IwAR3R5PMcyePkaTCmI2UcelYmKvlv8dysMTiNvE4jYs1WxaZh729grXaSXYk,,,,,,,,,,,
,,,,,,,,,,,,,,a,1,0.673,space,0.566,0,190,190,184,1,0_targ_16_dist_red/trial10.png,,,0,16,redHorizontal,a,98,20,F,2021-02-22_15h06.52.352,exp11,2020.2.6,Win32,60,IwAR3R5PMcyePkaTCmI2UcelYmKvlv8dysMTiNvE4jYs1WxaZh729grXaSXYk,,,,,,,,,,,
,,,,,,,,,,,,,,a,0,0.654,space,0.071,0,191,191,29,1,3_dist_red/trial5.png,,,1,3,redHorizontal,p,98,20,F,2021-02-22_15h06.52.352,exp11,2020.2.6,Win32,60,IwAR3R5PMcyePkaTCmI2UcelYmKvlv8dysMTiNvE4jYs1WxaZh729grXaSXYk,,,,,,,,,,,
,,,,,,,,,,,,,,p,1,0.888,space,0.051,0,192,192,59,1,9_dist_red/trial10.png,,,1,9,redHorizontal,p,98,20,F,2021-02-22_15h06.52.352,exp11,2020.2.6,Win32,60,IwAR3R5PMcyePkaTCmI2UcelYmKvlv8dysMTiNvE4jYs1WxaZh729grXaSXYk,,,,,,,,,,,
,,,,,,,,,,,,,,p,1,0.658,space,0.018,0,193,193,83,1,15_dist_red/trial9.png,,,1,15,redHorizontal,p,98,20,F,2021-02-22_15h06.52.352,exp11,2020.2.6,Win32,60,IwAR3R5PMcyePkaTCmI2UcelYmKvlv8dysMTiNvE4jYs1WxaZh729grXaSXYk,,,,,,,,,,,
,,,,,,,,,,,,,,p,1,0.458,space,0.035,0,194,194,37,1,3_dist_red/trial13.png,,,1,3,redHorizontal,p,98,20,F,2021-02-22_15h06.52.352,exp11,2020.2.6,Win32,60,IwAR3R5PMcyePkaTCmI2UcelYmKvlv8dysMTiNvE4jYs1WxaZh729grXaSXYk,,,,,,,,,,,
,,,,,,,,,,,,,,p,1,0.706,space,0.034,0,195,195,84,1,15_dist_red/trial10.png,,,1,15,redHorizontal,p,98,20,F,2021-02-22_15h06.52.352,exp11,2020.2.6,Win32,60,IwAR3R5PMcyePkaTCmI2UcelYmKvlv8dysMTiNvE4jYs1WxaZh729grXaSXYk,,,,,,,,,,,
,,,,,,,,,,,,,,a,1,0.62,space,0.034,0,196,196,114,1,0_targ_1_dist_red/trial15.png,,,0,1,redHorizontal,a,98,20,F,2021-02-22_15h06.52.352,exp11,2020.2.6,Win32,60,IwAR3R5PMcyePkaTCmI2UcelYmKvlv8dysMTiNvE4jYs1WxaZh729grXaSXYk,,,,,,,,,,,
,,,,,,,,,,,,,,a,1,0.772,space,0.018,0,197,197,170,1,0_targ_10_dist_red/trial21.png,,,0,10,redHorizontal,a,98,20,F,2021-02-22_15h06.52.352,exp11,2020.2.6,Win32,60,IwAR3R5PMcyePkaTCmI2UcelYmKvlv8dysMTiNvE4jYs1WxaZh729grXaSXYk,,,,,,,,,,,
,,,,,,,,,,,,,,p,1,0.621,space,0.035,0,198,198,1,1,0_dist_red/trial2.png,,,1,0,redHorizontal,p,98,20,F,2021-02-22_15h06.52.352,exp11,2020.2.6,Win32,60,IwAR3R5PMcyePkaTCmI2UcelYmKvlv8dysMTiNvE4jYs1WxaZh729grXaSXYk,,,,,,,,,,,
,,,,,,,,,,,,,,a,1,0.753,space,0.034,0,199,199,199,1,0_targ_16_dist_red/trial25.png,,,0,16,redHorizontal,a,98,20,F,2021-02-22_15h06.52.352,exp11,2020.2.6,Win32,60,IwAR3R5PMcyePkaTCmI2UcelYmKvlv8dysMTiNvE4jYs1WxaZh729grXaSXYk,,,,,,,,,,,
,,,,,,,,,,,,,,,,,,,,,,,,,,,,,,,98,20,F,2021-02-22_15h06.52.352,exp11,2020.2.6,Win32,60,IwAR3R5PMcyePkaTCmI2UcelYmKvlv8dysMTiNvE4jYs1WxaZh729grXaSXYk,0,1,1,1,1,conRed.xlsx,red horizontal,Look for red horizontal bar (target) and indicate if it is present or absent in the array. If red horizontal target is present press 'p' and if absent press 'a'. Press SPACE to start.,,,
