key_resp_6.keys,key_resp_6.rt,key_resp_7.keys,key_resp_7.rt,key_resp_8.keys,key_resp_8.rt,key_resp_10.keys,key_resp_10.rt,key_resp_9.keys,key_resp_9.rt,key_resp_3.keys,key_resp_3.rt,key_resp_5.keys,key_resp_5.rt,key_resp.keys,key_resp.corr,key_resp.rt,key_resp_4.keys,key_resp_4.rt,trials.thisRepN,trials.thisTrialN,trials.thisN,trials.thisIndex,trials.ran,ImageFile,tarPos,tarSize,targPres,numDist,targetName,correctAns,participant,age,sex,date,expName,psychopyVersion,OS,frameRate,fbclid,trials_2.thisRepN,trials_2.thisTrialN,trials_2.thisN,trials_2.thisIndex,trials_2.ran,condsFile,targName,instructionText,colTarget,sizeTarg,posit
space,4.70124,space,113.21564,space,1.98464,space,1.406695,space,1.971115,space,13.362275,space,15.55047,p,1,0.937455,space,3.916115,0,0,0,91,1,15_dist_green/trial17.png,,,1,15,greenverival,p,Nathan Crush,20,male,2021-02-21_19h45.37.744,exp11,2020.2.6,Win32,60,IwAR2ROE_9iU5tOZlHgHT14sQTTjUFnzTcwF_sE5tC8QPUC4F-ZeIiKyrh7Uw,,,,,,,,,,,
,,,,,,,,,,,,,,p,1,0.755515,space,0.75125,0,1,1,11,1,0_dist_green/trial12.png,,,1,0,greenverival,p,Nathan Crush,20,male,2021-02-21_19h45.37.744,exp11,2020.2.6,Win32,60,IwAR2ROE_9iU5tOZlHgHT14sQTTjUFnzTcwF_sE5tC8QPUC4F-ZeIiKyrh7Uw,,,,,,,,,,,
,,,,,,,,,,,,,,p,0,0.524195,space,2.0202,0,2,2,146,1,0_targ_4_dist_green/trial22.png,,,0,4,greenverival,a,Nathan Crush,20,male,2021-02-21_19h45.37.744,exp11,2020.2.6,Win32,60,IwAR2ROE_9iU5tOZlHgHT14sQTTjUFnzTcwF_sE5tC8QPUC4F-ZeIiKyrh7Uw,,,,,,,,,,,
,,,,,,,,,,,,,,p,0,1.367585,space,2.527555,0,3,3,148,1,0_targ_4_dist_green/trial24.png,,,0,4,greenverival,a,Nathan Crush,20,male,2021-02-21_19h45.37.744,exp11,2020.2.6,Win32,60,IwAR2ROE_9iU5tOZlHgHT14sQTTjUFnzTcwF_sE5tC8QPUC4F-ZeIiKyrh7Uw,,,,,,,,,,,
,,,,,,,,,,,,,,a,0,1.57841,space,0.26941,0,4,4,71,1,9_dist_green/trial22.png,,,1,9,greenverival,p,Nathan Crush,20,male,2021-02-21_19h45.37.744,exp11,2020.2.6,Win32,60,IwAR2ROE_9iU5tOZlHgHT14sQTTjUFnzTcwF_sE5tC8QPUC4F-ZeIiKyrh7Uw,,,,,,,,,,,
,,,,,,,,,,,,,,p,1,1.634175,space,1.645425,0,5,5,33,1,3_dist_green/trial9.png,,,1,3,greenverival,p,Nathan Crush,20,male,2021-02-21_19h45.37.744,exp11,2020.2.6,Win32,60,IwAR2ROE_9iU5tOZlHgHT14sQTTjUFnzTcwF_sE5tC8QPUC4F-ZeIiKyrh7Uw,,,,,,,,,,,
,,,,,,,,,,,,,,p,1,0.671675,space,3.720885,0,6,6,83,1,15_dist_green/trial9.png,,,1,15,greenverival,p,Nathan Crush,20,male,2021-02-21_19h45.37.744,exp11,2020.2.6,Win32,60,IwAR2ROE_9iU5tOZlHgHT14sQTTjUFnzTcwF_sE5tC8QPUC4F-ZeIiKyrh7Uw,,,,,,,,,,,
,,,,,,,,,,,,,,a,1,0.7688,space,3.13635,0,7,7,143,1,0_targ_4_dist_green/trial19.png,,,0,4,greenverival,a,Nathan Crush,20,male,2021-02-21_19h45.37.744,exp11,2020.2.6,Win32,60,IwAR2ROE_9iU5tOZlHgHT14sQTTjUFnzTcwF_sE5tC8QPUC4F-ZeIiKyrh7Uw,,,,,,,,,,,
,,,,,,,,,,,,,,p,1,0.858105,space,0.90371,0,8,8,75,1,15_dist_green/trial1.png,,,1,15,greenverival,p,Nathan Crush,20,male,2021-02-21_19h45.37.744,exp11,2020.2.6,Win32,60,IwAR2ROE_9iU5tOZlHgHT14sQTTjUFnzTcwF_sE5tC8QPUC4F-ZeIiKyrh7Uw,,,,,,,,,,,
,,,,,,,,,,,,,,p,1,0.56312,space,0.6883,0,9,9,20,1,0_dist_green/trial21.png,,,1,0,greenverival,p,Nathan Crush,20,male,2021-02-21_19h45.37.744,exp11,2020.2.6,Win32,60,IwAR2ROE_9iU5tOZlHgHT14sQTTjUFnzTcwF_sE5tC8QPUC4F-ZeIiKyrh7Uw,,,,,,,,,,,
,,,,,,,,,,,,,,p,1,0.50838,space,0.635995,0,10,10,32,1,3_dist_green/trial8.png,,,1,3,greenverival,p,Nathan Crush,20,male,2021-02-21_19h45.37.744,exp11,2020.2.6,Win32,60,IwAR2ROE_9iU5tOZlHgHT14sQTTjUFnzTcwF_sE5tC8QPUC4F-ZeIiKyrh7Uw,,,,,,,,,,,
,,,,,,,,,,,,,,a,1,0.662795,space,0.472635,0,11,11,165,1,0_targ_10_dist_green/trial16.png,,,0,10,greenverival,a,Nathan Crush,20,male,2021-02-21_19h45.37.744,exp11,2020.2.6,Win32,60,IwAR2ROE_9iU5tOZlHgHT14sQTTjUFnzTcwF_sE5tC8QPUC4F-ZeIiKyrh7Uw,,,,,,,,,,,
,,,,,,,,,,,,,,a,1,0.720685,space,0.417295,0,12,12,107,1,0_targ_1_dist_green/trial8.png,,,0,1,greenverival,a,Nathan Crush,20,male,2021-02-21_19h45.37.744,exp11,2020.2.6,Win32,60,IwAR2ROE_9iU5tOZlHgHT14sQTTjUFnzTcwF_sE5tC8QPUC4F-ZeIiKyrh7Uw,,,,,,,,,,,
,,,,,,,,,,,,,,a,1,0.41537,space,0.43906,0,13,13,101,1,0_targ_1_dist_green/trial2.png,,,0,1,greenverival,a,Nathan Crush,20,male,2021-02-21_19h45.37.744,exp11,2020.2.6,Win32,60,IwAR2ROE_9iU5tOZlHgHT14sQTTjUFnzTcwF_sE5tC8QPUC4F-ZeIiKyrh7Uw,,,,,,,,,,,
,,,,,,,,,,,,,,p,1,0.772345,space,0.52267,0,14,14,84,1,15_dist_green/trial10.png,,,1,15,greenverival,p,Nathan Crush,20,male,2021-02-21_19h45.37.744,exp11,2020.2.6,Win32,60,IwAR2ROE_9iU5tOZlHgHT14sQTTjUFnzTcwF_sE5tC8QPUC4F-ZeIiKyrh7Uw,,,,,,,,,,,
,,,,,,,,,,,,,,p,1,0.60855,space,0.584585,0,15,15,56,1,9_dist_green/trial7.png,,,1,9,greenverival,p,Nathan Crush,20,male,2021-02-21_19h45.37.744,exp11,2020.2.6,Win32,60,IwAR2ROE_9iU5tOZlHgHT14sQTTjUFnzTcwF_sE5tC8QPUC4F-ZeIiKyrh7Uw,,,,,,,,,,,
,,,,,,,,,,,,,,a,1,0.79778,space,0.505745,0,16,16,159,1,0_targ_10_dist_green/trial10.png,,,0,10,greenverival,a,Nathan Crush,20,male,2021-02-21_19h45.37.744,exp11,2020.2.6,Win32,60,IwAR2ROE_9iU5tOZlHgHT14sQTTjUFnzTcwF_sE5tC8QPUC4F-ZeIiKyrh7Uw,,,,,,,,,,,
,,,,,,,,,,,,,,a,1,0.61939,space,0.393305,0,17,17,118,1,0_targ_1_dist_green/trial19.png,,,0,1,greenverival,a,Nathan Crush,20,male,2021-02-21_19h45.37.744,exp11,2020.2.6,Win32,60,IwAR2ROE_9iU5tOZlHgHT14sQTTjUFnzTcwF_sE5tC8QPUC4F-ZeIiKyrh7Uw,,,,,,,,,,,
,,,,,,,,,,,,,,p,1,0.597825,space,0.70106,0,18,18,93,1,15_dist_green/trial19.png,,,1,15,greenverival,p,Nathan Crush,20,male,2021-02-21_19h45.37.744,exp11,2020.2.6,Win32,60,IwAR2ROE_9iU5tOZlHgHT14sQTTjUFnzTcwF_sE5tC8QPUC4F-ZeIiKyrh7Uw,,,,,,,,,,,
,,,,,,,,,,,,,,p,1,0.522955,space,0.45451,0,19,19,1,1,0_dist_green/trial2.png,,,1,0,greenverival,p,Nathan Crush,20,male,2021-02-21_19h45.37.744,exp11,2020.2.6,Win32,60,IwAR2ROE_9iU5tOZlHgHT14sQTTjUFnzTcwF_sE5tC8QPUC4F-ZeIiKyrh7Uw,,,,,,,,,,,
,,,,,,,,,,,,,,p,1,0.51386,space,0.43599,0,20,20,87,1,15_dist_green/trial13.png,,,1,15,greenverival,p,Nathan Crush,20,male,2021-02-21_19h45.37.744,exp11,2020.2.6,Win32,60,IwAR2ROE_9iU5tOZlHgHT14sQTTjUFnzTcwF_sE5tC8QPUC4F-ZeIiKyrh7Uw,,,,,,,,,,,
,,,,,,,,,,,,,,a,1,0.875055,space,0.500995,0,21,21,189,1,0_targ_16_dist_green/trial15.png,,,0,16,greenverival,a,Nathan Crush,20,male,2021-02-21_19h45.37.744,exp11,2020.2.6,Win32,60,IwAR2ROE_9iU5tOZlHgHT14sQTTjUFnzTcwF_sE5tC8QPUC4F-ZeIiKyrh7Uw,,,,,,,,,,,
,,,,,,,,,,,,,,a,1,0.74007,space,0.39912,0,22,22,178,1,0_targ_16_dist_green/trial4.png,,,0,16,greenverival,a,Nathan Crush,20,male,2021-02-21_19h45.37.744,exp11,2020.2.6,Win32,60,IwAR2ROE_9iU5tOZlHgHT14sQTTjUFnzTcwF_sE5tC8QPUC4F-ZeIiKyrh7Uw,,,,,,,,,,,
,,,,,,,,,,,,,,p,1,0.487255,space,0.42837,0,23,23,9,1,0_dist_green/trial10.png,,,1,0,greenverival,p,Nathan Crush,20,male,2021-02-21_19h45.37.744,exp11,2020.2.6,Win32,60,IwAR2ROE_9iU5tOZlHgHT14sQTTjUFnzTcwF_sE5tC8QPUC4F-ZeIiKyrh7Uw,,,,,,,,,,,
,,,,,,,,,,,,,,a,1,0.600545,space,0.46642,0,24,24,184,1,0_targ_16_dist_green/trial10.png,,,0,16,greenverival,a,Nathan Crush,20,male,2021-02-21_19h45.37.744,exp11,2020.2.6,Win32,60,IwAR2ROE_9iU5tOZlHgHT14sQTTjUFnzTcwF_sE5tC8QPUC4F-ZeIiKyrh7Uw,,,,,,,,,,,
,,,,,,,,,,,,,,p,1,0.542115,space,0.37844,0,25,25,15,1,0_dist_green/trial16.png,,,1,0,greenverival,p,Nathan Crush,20,male,2021-02-21_19h45.37.744,exp11,2020.2.6,Win32,60,IwAR2ROE_9iU5tOZlHgHT14sQTTjUFnzTcwF_sE5tC8QPUC4F-ZeIiKyrh7Uw,,,,,,,,,,,
,,,,,,,,,,,,,,a,1,0.551205,space,0.448895,0,26,26,155,1,0_targ_10_dist_green/trial6.png,,,0,10,greenverival,a,Nathan Crush,20,male,2021-02-21_19h45.37.744,exp11,2020.2.6,Win32,60,IwAR2ROE_9iU5tOZlHgHT14sQTTjUFnzTcwF_sE5tC8QPUC4F-ZeIiKyrh7Uw,,,,,,,,,,,
,,,,,,,,,,,,,,a,1,0.66746,space,0.286505,0,27,27,164,1,0_targ_10_dist_green/trial15.png,,,0,10,greenverival,a,Nathan Crush,20,male,2021-02-21_19h45.37.744,exp11,2020.2.6,Win32,60,IwAR2ROE_9iU5tOZlHgHT14sQTTjUFnzTcwF_sE5tC8QPUC4F-ZeIiKyrh7Uw,,,,,,,,,,,
,,,,,,,,,,,,,,p,1,0.532915,space,0.29443,0,28,28,3,1,0_dist_green/trial4.png,,,1,0,greenverival,p,Nathan Crush,20,male,2021-02-21_19h45.37.744,exp11,2020.2.6,Win32,60,IwAR2ROE_9iU5tOZlHgHT14sQTTjUFnzTcwF_sE5tC8QPUC4F-ZeIiKyrh7Uw,,,,,,,,,,,
,,,,,,,,,,,,,,p,0,0.623465,space,0.32882,0,29,29,142,1,0_targ_4_dist_green/trial18.png,,,0,4,greenverival,a,Nathan Crush,20,male,2021-02-21_19h45.37.744,exp11,2020.2.6,Win32,60,IwAR2ROE_9iU5tOZlHgHT14sQTTjUFnzTcwF_sE5tC8QPUC4F-ZeIiKyrh7Uw,,,,,,,,,,,
,,,,,,,,,,,,,,a,1,0.58558,space,0.480165,0,30,30,126,1,0_targ_4_dist_green/trial2.png,,,0,4,greenverival,a,Nathan Crush,20,male,2021-02-21_19h45.37.744,exp11,2020.2.6,Win32,60,IwAR2ROE_9iU5tOZlHgHT14sQTTjUFnzTcwF_sE5tC8QPUC4F-ZeIiKyrh7Uw,,,,,,,,,,,
,,,,,,,,,,,,,,p,1,0.78272,space,0.502345,0,31,31,95,1,15_dist_green/trial21.png,,,1,15,greenverival,p,Nathan Crush,20,male,2021-02-21_19h45.37.744,exp11,2020.2.6,Win32,60,IwAR2ROE_9iU5tOZlHgHT14sQTTjUFnzTcwF_sE5tC8QPUC4F-ZeIiKyrh7Uw,,,,,,,,,,,
,,,,,,,,,,,,,,a,1,0.614835,space,0.45045,0,32,32,109,1,0_targ_1_dist_green/trial10.png,,,0,1,greenverival,a,Nathan Crush,20,male,2021-02-21_19h45.37.744,exp11,2020.2.6,Win32,60,IwAR2ROE_9iU5tOZlHgHT14sQTTjUFnzTcwF_sE5tC8QPUC4F-ZeIiKyrh7Uw,,,,,,,,,,,
,,,,,,,,,,,,,,a,0,0.82988,space,1.085265,0,33,33,99,1,15_dist_green/trial25.png,,,1,15,greenverival,p,Nathan Crush,20,male,2021-02-21_19h45.37.744,exp11,2020.2.6,Win32,60,IwAR2ROE_9iU5tOZlHgHT14sQTTjUFnzTcwF_sE5tC8QPUC4F-ZeIiKyrh7Uw,,,,,,,,,,,
,,,,,,,,,,,,,,a,1,0.78781,space,0.700935,0,34,34,182,1,0_targ_16_dist_green/trial8.png,,,0,16,greenverival,a,Nathan Crush,20,male,2021-02-21_19h45.37.744,exp11,2020.2.6,Win32,60,IwAR2ROE_9iU5tOZlHgHT14sQTTjUFnzTcwF_sE5tC8QPUC4F-ZeIiKyrh7Uw,,,,,,,,,,,
,,,,,,,,,,,,,,p,1,0.51308,space,0.60247,0,35,35,82,1,15_dist_green/trial8.png,,,1,15,greenverival,p,Nathan Crush,20,male,2021-02-21_19h45.37.744,exp11,2020.2.6,Win32,60,IwAR2ROE_9iU5tOZlHgHT14sQTTjUFnzTcwF_sE5tC8QPUC4F-ZeIiKyrh7Uw,,,,,,,,,,,
,,,,,,,,,,,,,,a,1,0.56275,space,0.57537,0,36,36,115,1,0_targ_1_dist_green/trial6.png,,,0,1,greenverival,a,Nathan Crush,20,male,2021-02-21_19h45.37.744,exp11,2020.2.6,Win32,60,IwAR2ROE_9iU5tOZlHgHT14sQTTjUFnzTcwF_sE5tC8QPUC4F-ZeIiKyrh7Uw,,,,,,,,,,,
,,,,,,,,,,,,,,p,1,0.63003,space,0.500405,0,37,37,27,1,3_dist_green/trial3.png,,,1,3,greenverival,p,Nathan Crush,20,male,2021-02-21_19h45.37.744,exp11,2020.2.6,Win32,60,IwAR2ROE_9iU5tOZlHgHT14sQTTjUFnzTcwF_sE5tC8QPUC4F-ZeIiKyrh7Uw,,,,,,,,,,,
,,,,,,,,,,,,,,a,1,0.661125,space,0.48959,0,38,38,187,1,0_targ_16_dist_green/trial13.png,,,0,16,greenverival,a,Nathan Crush,20,male,2021-02-21_19h45.37.744,exp11,2020.2.6,Win32,60,IwAR2ROE_9iU5tOZlHgHT14sQTTjUFnzTcwF_sE5tC8QPUC4F-ZeIiKyrh7Uw,,,,,,,,,,,
,,,,,,,,,,,,,,p,1,0.76787,space,0.439975,0,39,39,77,1,15_dist_green/trial3.png,,,1,15,greenverival,p,Nathan Crush,20,male,2021-02-21_19h45.37.744,exp11,2020.2.6,Win32,60,IwAR2ROE_9iU5tOZlHgHT14sQTTjUFnzTcwF_sE5tC8QPUC4F-ZeIiKyrh7Uw,,,,,,,,,,,
,,,,,,,,,,,,,,a,1,0.58098,space,0.402955,0,40,40,139,1,0_targ_4_dist_green/trial15.png,,,0,4,greenverival,a,Nathan Crush,20,male,2021-02-21_19h45.37.744,exp11,2020.2.6,Win32,60,IwAR2ROE_9iU5tOZlHgHT14sQTTjUFnzTcwF_sE5tC8QPUC4F-ZeIiKyrh7Uw,,,,,,,,,,,
,,,,,,,,,,,,,,p,1,0.52525,space,0.38567,0,41,41,6,1,0_dist_green/trial7.png,,,1,0,greenverival,p,Nathan Crush,20,male,2021-02-21_19h45.37.744,exp11,2020.2.6,Win32,60,IwAR2ROE_9iU5tOZlHgHT14sQTTjUFnzTcwF_sE5tC8QPUC4F-ZeIiKyrh7Uw,,,,,,,,,,,
,,,,,,,,,,,,,,p,1,0.73346,space,0.45192,0,42,42,90,1,15_dist_green/trial16.png,,,1,15,greenverival,p,Nathan Crush,20,male,2021-02-21_19h45.37.744,exp11,2020.2.6,Win32,60,IwAR2ROE_9iU5tOZlHgHT14sQTTjUFnzTcwF_sE5tC8QPUC4F-ZeIiKyrh7Uw,,,,,,,,,,,
,,,,,,,,,,,,,,p,1,0.936775,space,0.35518,0,43,43,94,1,15_dist_green/trial20.png,,,1,15,greenverival,p,Nathan Crush,20,male,2021-02-21_19h45.37.744,exp11,2020.2.6,Win32,60,IwAR2ROE_9iU5tOZlHgHT14sQTTjUFnzTcwF_sE5tC8QPUC4F-ZeIiKyrh7Uw,,,,,,,,,,,
,,,,,,,,,,,,,,a,1,0.57426,space,0.38317,0,44,44,156,1,0_targ_10_dist_green/trial7.png,,,0,10,greenverival,a,Nathan Crush,20,male,2021-02-21_19h45.37.744,exp11,2020.2.6,Win32,60,IwAR2ROE_9iU5tOZlHgHT14sQTTjUFnzTcwF_sE5tC8QPUC4F-ZeIiKyrh7Uw,,,,,,,,,,,
,,,,,,,,,,,,,,p,1,0.61195,space,0.367635,0,45,45,79,1,15_dist_green/trial5.png,,,1,15,greenverival,p,Nathan Crush,20,male,2021-02-21_19h45.37.744,exp11,2020.2.6,Win32,60,IwAR2ROE_9iU5tOZlHgHT14sQTTjUFnzTcwF_sE5tC8QPUC4F-ZeIiKyrh7Uw,,,,,,,,,,,
,,,,,,,,,,,,,,a,1,0.700425,space,0.353725,0,46,46,177,1,0_targ_16_dist_green/trial3.png,,,0,16,greenverival,a,Nathan Crush,20,male,2021-02-21_19h45.37.744,exp11,2020.2.6,Win32,60,IwAR2ROE_9iU5tOZlHgHT14sQTTjUFnzTcwF_sE5tC8QPUC4F-ZeIiKyrh7Uw,,,,,,,,,,,
,,,,,,,,,,,,,,p,1,0.75947,space,0.41687,0,47,47,64,1,9_dist_green/trial15.png,,,1,9,greenverival,p,Nathan Crush,20,male,2021-02-21_19h45.37.744,exp11,2020.2.6,Win32,60,IwAR2ROE_9iU5tOZlHgHT14sQTTjUFnzTcwF_sE5tC8QPUC4F-ZeIiKyrh7Uw,,,,,,,,,,,
,,,,,,,,,,,,,,a,1,0.749035,space,0.522315,0,48,48,186,1,0_targ_16_dist_green/trial12.png,,,0,16,greenverival,a,Nathan Crush,20,male,2021-02-21_19h45.37.744,exp11,2020.2.6,Win32,60,IwAR2ROE_9iU5tOZlHgHT14sQTTjUFnzTcwF_sE5tC8QPUC4F-ZeIiKyrh7Uw,,,,,,,,,,,
,,,,,,,,,,,,,,p,1,0.71382,space,0.43645,0,49,49,47,1,3_dist_green/trial23.png,,,1,3,greenverival,p,Nathan Crush,20,male,2021-02-21_19h45.37.744,exp11,2020.2.6,Win32,60,IwAR2ROE_9iU5tOZlHgHT14sQTTjUFnzTcwF_sE5tC8QPUC4F-ZeIiKyrh7Uw,,,,,,,,,,,
,,,,,,,,,,,,,,p,1,0.89632,space,0.33807,0,50,50,36,1,3_dist_green/trial12.png,,,1,3,greenverival,p,Nathan Crush,20,male,2021-02-21_19h45.37.744,exp11,2020.2.6,Win32,60,IwAR2ROE_9iU5tOZlHgHT14sQTTjUFnzTcwF_sE5tC8QPUC4F-ZeIiKyrh7Uw,,,,,,,,,,,
,,,,,,,,,,,,,,a,1,0.729935,space,0.30737,0,51,51,194,1,0_targ_16_dist_green/trial20.png,,,0,16,greenverival,a,Nathan Crush,20,male,2021-02-21_19h45.37.744,exp11,2020.2.6,Win32,60,IwAR2ROE_9iU5tOZlHgHT14sQTTjUFnzTcwF_sE5tC8QPUC4F-ZeIiKyrh7Uw,,,,,,,,,,,
,,,,,,,,,,,,,,a,1,0.842225,space,0.354745,0,52,52,171,1,0_targ_10_dist_green/trial22.png,,,0,10,greenverival,a,Nathan Crush,20,male,2021-02-21_19h45.37.744,exp11,2020.2.6,Win32,60,IwAR2ROE_9iU5tOZlHgHT14sQTTjUFnzTcwF_sE5tC8QPUC4F-ZeIiKyrh7Uw,,,,,,,,,,,
,,,,,,,,,,,,,,a,1,0.756875,space,0.36028,0,53,53,132,1,0_targ_4_dist_green/trial8.png,,,0,4,greenverival,a,Nathan Crush,20,male,2021-02-21_19h45.37.744,exp11,2020.2.6,Win32,60,IwAR2ROE_9iU5tOZlHgHT14sQTTjUFnzTcwF_sE5tC8QPUC4F-ZeIiKyrh7Uw,,,,,,,,,,,
,,,,,,,,,,,,,,p,1,0.560825,space,0.29088,0,54,54,44,1,3_dist_green/trial20.png,,,1,3,greenverival,p,Nathan Crush,20,male,2021-02-21_19h45.37.744,exp11,2020.2.6,Win32,60,IwAR2ROE_9iU5tOZlHgHT14sQTTjUFnzTcwF_sE5tC8QPUC4F-ZeIiKyrh7Uw,,,,,,,,,,,
,,,,,,,,,,,,,,a,1,0.750475,space,0.400005,0,55,55,117,1,0_targ_1_dist_green/trial18.png,,,0,1,greenverival,a,Nathan Crush,20,male,2021-02-21_19h45.37.744,exp11,2020.2.6,Win32,60,IwAR2ROE_9iU5tOZlHgHT14sQTTjUFnzTcwF_sE5tC8QPUC4F-ZeIiKyrh7Uw,,,,,,,,,,,
,,,,,,,,,,,,,,a,1,0.51585,space,0.293275,0,56,56,108,1,0_targ_1_dist_green/trial9.png,,,0,1,greenverival,a,Nathan Crush,20,male,2021-02-21_19h45.37.744,exp11,2020.2.6,Win32,60,IwAR2ROE_9iU5tOZlHgHT14sQTTjUFnzTcwF_sE5tC8QPUC4F-ZeIiKyrh7Uw,,,,,,,,,,,
,,,,,,,,,,,,,,a,1,0.755185,space,0.270455,0,57,57,193,1,0_targ_16_dist_green/trial19.png,,,0,16,greenverival,a,Nathan Crush,20,male,2021-02-21_19h45.37.744,exp11,2020.2.6,Win32,60,IwAR2ROE_9iU5tOZlHgHT14sQTTjUFnzTcwF_sE5tC8QPUC4F-ZeIiKyrh7Uw,,,,,,,,,,,
,,,,,,,,,,,,,,a,1,0.71869,space,0.258635,0,58,58,161,1,0_targ_10_dist_green/trial12.png,,,0,10,greenverival,a,Nathan Crush,20,male,2021-02-21_19h45.37.744,exp11,2020.2.6,Win32,60,IwAR2ROE_9iU5tOZlHgHT14sQTTjUFnzTcwF_sE5tC8QPUC4F-ZeIiKyrh7Uw,,,,,,,,,,,
,,,,,,,,,,,,,,p,0,0.927515,space,0.41916,0,59,59,180,1,0_targ_16_dist_green/trial6.png,,,0,16,greenverival,a,Nathan Crush,20,male,2021-02-21_19h45.37.744,exp11,2020.2.6,Win32,60,IwAR2ROE_9iU5tOZlHgHT14sQTTjUFnzTcwF_sE5tC8QPUC4F-ZeIiKyrh7Uw,,,,,,,,,,,
,,,,,,,,,,,,,,a,1,0.630885,space,0.285785,0,60,60,102,1,0_targ_1_dist_green/trial3.png,,,0,1,greenverival,a,Nathan Crush,20,male,2021-02-21_19h45.37.744,exp11,2020.2.6,Win32,60,IwAR2ROE_9iU5tOZlHgHT14sQTTjUFnzTcwF_sE5tC8QPUC4F-ZeIiKyrh7Uw,,,,,,,,,,,
,,,,,,,,,,,,,,p,1,0.88696,space,0.80107,0,61,61,72,1,9_dist_green/trial23.png,,,1,9,greenverival,p,Nathan Crush,20,male,2021-02-21_19h45.37.744,exp11,2020.2.6,Win32,60,IwAR2ROE_9iU5tOZlHgHT14sQTTjUFnzTcwF_sE5tC8QPUC4F-ZeIiKyrh7Uw,,,,,,,,,,,
,,,,,,,,,,,,,,a,1,0.575245,space,0.366615,0,62,62,137,1,0_targ_4_dist_green/trial13.png,,,0,4,greenverival,a,Nathan Crush,20,male,2021-02-21_19h45.37.744,exp11,2020.2.6,Win32,60,IwAR2ROE_9iU5tOZlHgHT14sQTTjUFnzTcwF_sE5tC8QPUC4F-ZeIiKyrh7Uw,,,,,,,,,,,
,,,,,,,,,,,,,,a,1,0.817625,space,0.34148,0,63,63,197,1,0_targ_16_dist_green/trial23.png,,,0,16,greenverival,a,Nathan Crush,20,male,2021-02-21_19h45.37.744,exp11,2020.2.6,Win32,60,IwAR2ROE_9iU5tOZlHgHT14sQTTjUFnzTcwF_sE5tC8QPUC4F-ZeIiKyrh7Uw,,,,,,,,,,,
,,,,,,,,,,,,,,a,1,0.680265,space,0.24115,0,64,64,188,1,0_targ_16_dist_green/trial14.png,,,0,16,greenverival,a,Nathan Crush,20,male,2021-02-21_19h45.37.744,exp11,2020.2.6,Win32,60,IwAR2ROE_9iU5tOZlHgHT14sQTTjUFnzTcwF_sE5tC8QPUC4F-ZeIiKyrh7Uw,,,,,,,,,,,
,,,,,,,,,,,,,,a,1,0.60387,space,0.184855,0,65,65,124,1,0_targ_1_dist_green/trial25.png,,,0,1,greenverival,a,Nathan Crush,20,male,2021-02-21_19h45.37.744,exp11,2020.2.6,Win32,60,IwAR2ROE_9iU5tOZlHgHT14sQTTjUFnzTcwF_sE5tC8QPUC4F-ZeIiKyrh7Uw,,,,,,,,,,,
,,,,,,,,,,,,,,p,1,0.8168,space,0.384565,0,66,66,50,1,9_dist_green/trial1.png,,,1,9,greenverival,p,Nathan Crush,20,male,2021-02-21_19h45.37.744,exp11,2020.2.6,Win32,60,IwAR2ROE_9iU5tOZlHgHT14sQTTjUFnzTcwF_sE5tC8QPUC4F-ZeIiKyrh7Uw,,,,,,,,,,,
,,,,,,,,,,,,,,p,1,0.732175,space,0.318955,0,67,67,92,1,15_dist_green/trial18.png,,,1,15,greenverival,p,Nathan Crush,20,male,2021-02-21_19h45.37.744,exp11,2020.2.6,Win32,60,IwAR2ROE_9iU5tOZlHgHT14sQTTjUFnzTcwF_sE5tC8QPUC4F-ZeIiKyrh7Uw,,,,,,,,,,,
,,,,,,,,,,,,,,p,1,0.86723,space,0.29079,0,68,68,85,1,15_dist_green/trial11.png,,,1,15,greenverival,p,Nathan Crush,20,male,2021-02-21_19h45.37.744,exp11,2020.2.6,Win32,60,IwAR2ROE_9iU5tOZlHgHT14sQTTjUFnzTcwF_sE5tC8QPUC4F-ZeIiKyrh7Uw,,,,,,,,,,,
,,,,,,,,,,,,,,p,1,0.76862,space,0.279035,0,69,69,26,1,3_dist_green/trial2.png,,,1,3,greenverival,p,Nathan Crush,20,male,2021-02-21_19h45.37.744,exp11,2020.2.6,Win32,60,IwAR2ROE_9iU5tOZlHgHT14sQTTjUFnzTcwF_sE5tC8QPUC4F-ZeIiKyrh7Uw,,,,,,,,,,,
,,,,,,,,,,,,,,a,1,0.65607,space,0.323905,0,70,70,166,1,0_targ_10_dist_green/trial17.png,,,0,10,greenverival,a,Nathan Crush,20,male,2021-02-21_19h45.37.744,exp11,2020.2.6,Win32,60,IwAR2ROE_9iU5tOZlHgHT14sQTTjUFnzTcwF_sE5tC8QPUC4F-ZeIiKyrh7Uw,,,,,,,,,,,
,,,,,,,,,,,,,,a,1,0.741045,space,0.24789,0,71,71,168,1,0_targ_10_dist_green/trial19.png,,,0,10,greenverival,a,Nathan Crush,20,male,2021-02-21_19h45.37.744,exp11,2020.2.6,Win32,60,IwAR2ROE_9iU5tOZlHgHT14sQTTjUFnzTcwF_sE5tC8QPUC4F-ZeIiKyrh7Uw,,,,,,,,,,,
,,,,,,,,,,,,,,a,1,0.564905,space,0.15313,0,72,72,136,1,0_targ_4_dist_green/trial12.png,,,0,4,greenverival,a,Nathan Crush,20,male,2021-02-21_19h45.37.744,exp11,2020.2.6,Win32,60,IwAR2ROE_9iU5tOZlHgHT14sQTTjUFnzTcwF_sE5tC8QPUC4F-ZeIiKyrh7Uw,,,,,,,,,,,
,,,,,,,,,,,,,,p,1,0.548745,space,0.319915,0,73,73,2,1,0_dist_green/trial3.png,,,1,0,greenverival,p,Nathan Crush,20,male,2021-02-21_19h45.37.744,exp11,2020.2.6,Win32,60,IwAR2ROE_9iU5tOZlHgHT14sQTTjUFnzTcwF_sE5tC8QPUC4F-ZeIiKyrh7Uw,,,,,,,,,,,
,,,,,,,,,,,,,,a,1,0.632545,space,0.73487,0,74,74,120,1,0_targ_1_dist_green/trial21.png,,,0,1,greenverival,a,Nathan Crush,20,male,2021-02-21_19h45.37.744,exp11,2020.2.6,Win32,60,IwAR2ROE_9iU5tOZlHgHT14sQTTjUFnzTcwF_sE5tC8QPUC4F-ZeIiKyrh7Uw,,,,,,,,,,,
,,,,,,,,,,,,,,p,1,0.98888,space,0.352145,0,75,75,52,1,9_dist_green/trial3.png,,,1,9,greenverival,p,Nathan Crush,20,male,2021-02-21_19h45.37.744,exp11,2020.2.6,Win32,60,IwAR2ROE_9iU5tOZlHgHT14sQTTjUFnzTcwF_sE5tC8QPUC4F-ZeIiKyrh7Uw,,,,,,,,,,,
,,,,,,,,,,,,,,a,1,0.759505,space,0.584985,0,76,76,181,1,0_targ_16_dist_green/trial7.png,,,0,16,greenverival,a,Nathan Crush,20,male,2021-02-21_19h45.37.744,exp11,2020.2.6,Win32,60,IwAR2ROE_9iU5tOZlHgHT14sQTTjUFnzTcwF_sE5tC8QPUC4F-ZeIiKyrh7Uw,,,,,,,,,,,
,,,,,,,,,,,,,,p,1,0.515835,space,0.400235,0,77,77,30,1,3_dist_green/trial6.png,,,1,3,greenverival,p,Nathan Crush,20,male,2021-02-21_19h45.37.744,exp11,2020.2.6,Win32,60,IwAR2ROE_9iU5tOZlHgHT14sQTTjUFnzTcwF_sE5tC8QPUC4F-ZeIiKyrh7Uw,,,,,,,,,,,
,,,,,,,,,,,,,,a,1,0.68277,space,0.27275,0,78,78,135,1,0_targ_4_dist_green/trial11.png,,,0,4,greenverival,a,Nathan Crush,20,male,2021-02-21_19h45.37.744,exp11,2020.2.6,Win32,60,IwAR2ROE_9iU5tOZlHgHT14sQTTjUFnzTcwF_sE5tC8QPUC4F-ZeIiKyrh7Uw,,,,,,,,,,,
,,,,,,,,,,,,,,a,1,0.544895,space,0.275875,0,79,79,144,1,0_targ_4_dist_green/trial20.png,,,0,4,greenverival,a,Nathan Crush,20,male,2021-02-21_19h45.37.744,exp11,2020.2.6,Win32,60,IwAR2ROE_9iU5tOZlHgHT14sQTTjUFnzTcwF_sE5tC8QPUC4F-ZeIiKyrh7Uw,,,,,,,,,,,
,,,,,,,,,,,,,,p,1,0.516575,space,0.359535,0,80,80,16,1,0_dist_green/trial17.png,,,1,0,greenverival,p,Nathan Crush,20,male,2021-02-21_19h45.37.744,exp11,2020.2.6,Win32,60,IwAR2ROE_9iU5tOZlHgHT14sQTTjUFnzTcwF_sE5tC8QPUC4F-ZeIiKyrh7Uw,,,,,,,,,,,
,,,,,,,,,,,,,,p,1,0.69438,space,0.28428,0,81,81,45,1,3_dist_green/trial21.png,,,1,3,greenverival,p,Nathan Crush,20,male,2021-02-21_19h45.37.744,exp11,2020.2.6,Win32,60,IwAR2ROE_9iU5tOZlHgHT14sQTTjUFnzTcwF_sE5tC8QPUC4F-ZeIiKyrh7Uw,,,,,,,,,,,
,,,,,,,,,,,,,,a,1,0.525185,space,0.202235,0,82,82,151,1,0_targ_10_dist_green/trial2.png,,,0,10,greenverival,a,Nathan Crush,20,male,2021-02-21_19h45.37.744,exp11,2020.2.6,Win32,60,IwAR2ROE_9iU5tOZlHgHT14sQTTjUFnzTcwF_sE5tC8QPUC4F-ZeIiKyrh7Uw,,,,,,,,,,,
,,,,,,,,,,,,,,p,1,0.647005,space,0.34852,0,83,83,57,1,9_dist_green/trial8.png,,,1,9,greenverival,p,Nathan Crush,20,male,2021-02-21_19h45.37.744,exp11,2020.2.6,Win32,60,IwAR2ROE_9iU5tOZlHgHT14sQTTjUFnzTcwF_sE5tC8QPUC4F-ZeIiKyrh7Uw,,,,,,,,,,,
,,,,,,,,,,,,,,a,1,0.537535,space,0.18648,0,84,84,131,1,0_targ_4_dist_green/trial7.png,,,0,4,greenverival,a,Nathan Crush,20,male,2021-02-21_19h45.37.744,exp11,2020.2.6,Win32,60,IwAR2ROE_9iU5tOZlHgHT14sQTTjUFnzTcwF_sE5tC8QPUC4F-ZeIiKyrh7Uw,,,,,,,,,,,
,,,,,,,,,,,,,,p,1,0.572345,space,0.30996,0,85,85,21,1,0_dist_green/trial22.png,,,1,0,greenverival,p,Nathan Crush,20,male,2021-02-21_19h45.37.744,exp11,2020.2.6,Win32,60,IwAR2ROE_9iU5tOZlHgHT14sQTTjUFnzTcwF_sE5tC8QPUC4F-ZeIiKyrh7Uw,,,,,,,,,,,
,,,,,,,,,,,,,,p,1,0.58536,space,0.286645,0,86,86,65,1,9_dist_green/trial16.png,,,1,9,greenverival,p,Nathan Crush,20,male,2021-02-21_19h45.37.744,exp11,2020.2.6,Win32,60,IwAR2ROE_9iU5tOZlHgHT14sQTTjUFnzTcwF_sE5tC8QPUC4F-ZeIiKyrh7Uw,,,,,,,,,,,
,,,,,,,,,,,,,,a,1,0.554895,space,0.27375,0,87,87,152,1,0_targ_10_dist_green/trial3.png,,,0,10,greenverival,a,Nathan Crush,20,male,2021-02-21_19h45.37.744,exp11,2020.2.6,Win32,60,IwAR2ROE_9iU5tOZlHgHT14sQTTjUFnzTcwF_sE5tC8QPUC4F-ZeIiKyrh7Uw,,,,,,,,,,,
,,,,,,,,,,,,,,a,1,0.60813,space,0.267695,0,88,88,153,1,0_targ_10_dist_green/trial4.png,,,0,10,greenverival,a,Nathan Crush,20,male,2021-02-21_19h45.37.744,exp11,2020.2.6,Win32,60,IwAR2ROE_9iU5tOZlHgHT14sQTTjUFnzTcwF_sE5tC8QPUC4F-ZeIiKyrh7Uw,,,,,,,,,,,
,,,,,,,,,,,,,,p,1,0.546325,space,0.29633,0,89,89,66,1,9_dist_green/trial17.png,,,1,9,greenverival,p,Nathan Crush,20,male,2021-02-21_19h45.37.744,exp11,2020.2.6,Win32,60,IwAR2ROE_9iU5tOZlHgHT14sQTTjUFnzTcwF_sE5tC8QPUC4F-ZeIiKyrh7Uw,,,,,,,,,,,
,,,,,,,,,,,,,,a,1,0.51541,space,0.33734,0,90,90,113,1,0_targ_1_dist_green/trial14.png,,,0,1,greenverival,a,Nathan Crush,20,male,2021-02-21_19h45.37.744,exp11,2020.2.6,Win32,60,IwAR2ROE_9iU5tOZlHgHT14sQTTjUFnzTcwF_sE5tC8QPUC4F-ZeIiKyrh7Uw,,,,,,,,,,,
,,,,,,,,,,,,,,a,1,0.5632,space,0.21938,0,91,91,198,1,0_targ_16_dist_green/trial24.png,,,0,16,greenverival,a,Nathan Crush,20,male,2021-02-21_19h45.37.744,exp11,2020.2.6,Win32,60,IwAR2ROE_9iU5tOZlHgHT14sQTTjUFnzTcwF_sE5tC8QPUC4F-ZeIiKyrh7Uw,,,,,,,,,,,
,,,,,,,,,,,,,,p,1,0.49141,space,0.221535,0,92,92,5,1,0_dist_green/trial6.png,,,1,0,greenverival,p,Nathan Crush,20,male,2021-02-21_19h45.37.744,exp11,2020.2.6,Win32,60,IwAR2ROE_9iU5tOZlHgHT14sQTTjUFnzTcwF_sE5tC8QPUC4F-ZeIiKyrh7Uw,,,,,,,,,,,
,,,,,,,,,,,,,,a,1,0.546915,space,0.155395,0,93,93,176,1,0_targ_16_dist_green/trial2.png,,,0,16,greenverival,a,Nathan Crush,20,male,2021-02-21_19h45.37.744,exp11,2020.2.6,Win32,60,IwAR2ROE_9iU5tOZlHgHT14sQTTjUFnzTcwF_sE5tC8QPUC4F-ZeIiKyrh7Uw,,,,,,,,,,,
,,,,,,,,,,,,,,p,1,0.530435,space,0.2182,0,94,94,68,1,9_dist_green/trial19.png,,,1,9,greenverival,p,Nathan Crush,20,male,2021-02-21_19h45.37.744,exp11,2020.2.6,Win32,60,IwAR2ROE_9iU5tOZlHgHT14sQTTjUFnzTcwF_sE5tC8QPUC4F-ZeIiKyrh7Uw,,,,,,,,,,,
,,,,,,,,,,,,,,p,1,0.742895,space,0.188455,0,95,95,60,1,9_dist_green/trial11.png,,,1,9,greenverival,p,Nathan Crush,20,male,2021-02-21_19h45.37.744,exp11,2020.2.6,Win32,60,IwAR2ROE_9iU5tOZlHgHT14sQTTjUFnzTcwF_sE5tC8QPUC4F-ZeIiKyrh7Uw,,,,,,,,,,,
,,,,,,,,,,,,,,p,1,0.55606,space,0.18479,0,96,96,43,1,3_dist_green/trial19.png,,,1,3,greenverival,p,Nathan Crush,20,male,2021-02-21_19h45.37.744,exp11,2020.2.6,Win32,60,IwAR2ROE_9iU5tOZlHgHT14sQTTjUFnzTcwF_sE5tC8QPUC4F-ZeIiKyrh7Uw,,,,,,,,,,,
,,,,,,,,,,,,,,p,1,0.47931,space,0.23713,0,97,97,35,1,3_dist_green/trial11.png,,,1,3,greenverival,p,Nathan Crush,20,male,2021-02-21_19h45.37.744,exp11,2020.2.6,Win32,60,IwAR2ROE_9iU5tOZlHgHT14sQTTjUFnzTcwF_sE5tC8QPUC4F-ZeIiKyrh7Uw,,,,,,,,,,,
,,,,,,,,,,,,,,p,1,0.67761,space,0.26147,0,98,98,80,1,15_dist_green/trial6.png,,,1,15,greenverival,p,Nathan Crush,20,male,2021-02-21_19h45.37.744,exp11,2020.2.6,Win32,60,IwAR2ROE_9iU5tOZlHgHT14sQTTjUFnzTcwF_sE5tC8QPUC4F-ZeIiKyrh7Uw,,,,,,,,,,,
,,,,,,,,,,,,,,p,1,0.692805,space,0.245665,0,99,99,59,1,9_dist_green/trial10.png,,,1,9,greenverival,p,Nathan Crush,20,male,2021-02-21_19h45.37.744,exp11,2020.2.6,Win32,60,IwAR2ROE_9iU5tOZlHgHT14sQTTjUFnzTcwF_sE5tC8QPUC4F-ZeIiKyrh7Uw,,,,,,,,,,,
,,,,,,,,,,,,,,p,1,0.47513,space,0.25036,0,100,100,4,1,0_dist_green/trial5.png,,,1,0,greenverival,p,Nathan Crush,20,male,2021-02-21_19h45.37.744,exp11,2020.2.6,Win32,60,IwAR2ROE_9iU5tOZlHgHT14sQTTjUFnzTcwF_sE5tC8QPUC4F-ZeIiKyrh7Uw,,,,,,,,,,,
,,,,,,,,,,,,,,a,1,0.556905,space,0.16828,0,101,101,116,1,0_targ_1_dist_green/trial17.png,,,0,1,greenverival,a,Nathan Crush,20,male,2021-02-21_19h45.37.744,exp11,2020.2.6,Win32,60,IwAR2ROE_9iU5tOZlHgHT14sQTTjUFnzTcwF_sE5tC8QPUC4F-ZeIiKyrh7Uw,,,,,,,,,,,
,,,,,,,,,,,,,,a,1,0.660885,space,0.117635,0,102,102,125,1,0_targ_4_dist_green/trial1.png,,,0,4,greenverival,a,Nathan Crush,20,male,2021-02-21_19h45.37.744,exp11,2020.2.6,Win32,60,IwAR2ROE_9iU5tOZlHgHT14sQTTjUFnzTcwF_sE5tC8QPUC4F-ZeIiKyrh7Uw,,,,,,,,,,,
,,,,,,,,,,,,,,a,1,0.64705,space,0.134575,0,103,103,138,1,0_targ_4_dist_green/trial14.png,,,0,4,greenverival,a,Nathan Crush,20,male,2021-02-21_19h45.37.744,exp11,2020.2.6,Win32,60,IwAR2ROE_9iU5tOZlHgHT14sQTTjUFnzTcwF_sE5tC8QPUC4F-ZeIiKyrh7Uw,,,,,,,,,,,
,,,,,,,,,,,,,,a,1,0.581555,space,0.10382,0,104,104,174,1,0_targ_10_dist_green/trial25.png,,,0,10,greenverival,a,Nathan Crush,20,male,2021-02-21_19h45.37.744,exp11,2020.2.6,Win32,60,IwAR2ROE_9iU5tOZlHgHT14sQTTjUFnzTcwF_sE5tC8QPUC4F-ZeIiKyrh7Uw,,,,,,,,,,,
,,,,,,,,,,,,,,a,1,0.627855,space,0.073925,0,105,105,114,1,0_targ_1_dist_green/trial15.png,,,0,1,greenverival,a,Nathan Crush,20,male,2021-02-21_19h45.37.744,exp11,2020.2.6,Win32,60,IwAR2ROE_9iU5tOZlHgHT14sQTTjUFnzTcwF_sE5tC8QPUC4F-ZeIiKyrh7Uw,,,,,,,,,,,
,,,,,,,,,,,,,,a,1,0.669855,space,0.05913,0,106,106,190,1,0_targ_16_dist_green/trial16.png,,,0,16,greenverival,a,Nathan Crush,20,male,2021-02-21_19h45.37.744,exp11,2020.2.6,Win32,60,IwAR2ROE_9iU5tOZlHgHT14sQTTjUFnzTcwF_sE5tC8QPUC4F-ZeIiKyrh7Uw,,,,,,,,,,,
,,,,,,,,,,,,,,a,1,1.03817,space,0.122395,0,107,107,154,1,0_targ_10_dist_green/trial5.png,,,0,10,greenverival,a,Nathan Crush,20,male,2021-02-21_19h45.37.744,exp11,2020.2.6,Win32,60,IwAR2ROE_9iU5tOZlHgHT14sQTTjUFnzTcwF_sE5tC8QPUC4F-ZeIiKyrh7Uw,,,,,,,,,,,
,,,,,,,,,,,,,,p,1,0.736385,space,0.25107,0,108,108,13,1,0_dist_green/trial14.png,,,1,0,greenverival,p,Nathan Crush,20,male,2021-02-21_19h45.37.744,exp11,2020.2.6,Win32,60,IwAR2ROE_9iU5tOZlHgHT14sQTTjUFnzTcwF_sE5tC8QPUC4F-ZeIiKyrh7Uw,,,,,,,,,,,
,,,,,,,,,,,,,,p,1,0.47141,space,0.252335,0,109,109,17,1,0_dist_green/trial18.png,,,1,0,greenverival,p,Nathan Crush,20,male,2021-02-21_19h45.37.744,exp11,2020.2.6,Win32,60,IwAR2ROE_9iU5tOZlHgHT14sQTTjUFnzTcwF_sE5tC8QPUC4F-ZeIiKyrh7Uw,,,,,,,,,,,
,,,,,,,,,,,,,,p,1,0.51496,space,0.241565,0,110,110,24,1,0_dist_green/trial25.png,,,1,0,greenverival,p,Nathan Crush,20,male,2021-02-21_19h45.37.744,exp11,2020.2.6,Win32,60,IwAR2ROE_9iU5tOZlHgHT14sQTTjUFnzTcwF_sE5tC8QPUC4F-ZeIiKyrh7Uw,,,,,,,,,,,
,,,,,,,,,,,,,,p,1,0.52894,space,0.273705,0,111,111,10,1,0_dist_green/trial11.png,,,1,0,greenverival,p,Nathan Crush,20,male,2021-02-21_19h45.37.744,exp11,2020.2.6,Win32,60,IwAR2ROE_9iU5tOZlHgHT14sQTTjUFnzTcwF_sE5tC8QPUC4F-ZeIiKyrh7Uw,,,,,,,,,,,
,,,,,,,,,,,,,,a,1,0.64497,space,0.21669,0,112,112,191,1,0_targ_16_dist_green/trial17.png,,,0,16,greenverival,a,Nathan Crush,20,male,2021-02-21_19h45.37.744,exp11,2020.2.6,Win32,60,IwAR2ROE_9iU5tOZlHgHT14sQTTjUFnzTcwF_sE5tC8QPUC4F-ZeIiKyrh7Uw,,,,,,,,,,,
,,,,,,,,,,,,,,p,1,0.719865,space,0.218905,0,113,113,70,1,9_dist_green/trial21.png,,,1,9,greenverival,p,Nathan Crush,20,male,2021-02-21_19h45.37.744,exp11,2020.2.6,Win32,60,IwAR2ROE_9iU5tOZlHgHT14sQTTjUFnzTcwF_sE5tC8QPUC4F-ZeIiKyrh7Uw,,,,,,,,,,,
,,,,,,,,,,,,,,a,1,0.56571,space,0.17426,0,114,114,140,1,0_targ_4_dist_green/trial6.png,,,0,4,greenverival,a,Nathan Crush,20,male,2021-02-21_19h45.37.744,exp11,2020.2.6,Win32,60,IwAR2ROE_9iU5tOZlHgHT14sQTTjUFnzTcwF_sE5tC8QPUC4F-ZeIiKyrh7Uw,,,,,,,,,,,
,,,,,,,,,,,,,,a,1,0.660035,space,0.21903,0,115,115,172,1,0_targ_10_dist_green/trial23.png,,,0,10,greenverival,a,Nathan Crush,20,male,2021-02-21_19h45.37.744,exp11,2020.2.6,Win32,60,IwAR2ROE_9iU5tOZlHgHT14sQTTjUFnzTcwF_sE5tC8QPUC4F-ZeIiKyrh7Uw,,,,,,,,,,,
,,,,,,,,,,,,,,p,1,0.559135,space,0.29627,0,116,116,62,1,9_dist_green/trial13.png,,,1,9,greenverival,p,Nathan Crush,20,male,2021-02-21_19h45.37.744,exp11,2020.2.6,Win32,60,IwAR2ROE_9iU5tOZlHgHT14sQTTjUFnzTcwF_sE5tC8QPUC4F-ZeIiKyrh7Uw,,,,,,,,,,,
,,,,,,,,,,,,,,p,1,0.66685,space,0.27816,0,117,117,42,1,3_dist_green/trial18.png,,,1,3,greenverival,p,Nathan Crush,20,male,2021-02-21_19h45.37.744,exp11,2020.2.6,Win32,60,IwAR2ROE_9iU5tOZlHgHT14sQTTjUFnzTcwF_sE5tC8QPUC4F-ZeIiKyrh7Uw,,,,,,,,,,,
,,,,,,,,,,,,,,a,1,0.549895,space,0.208885,0,118,118,129,1,0_targ_4_dist_green/trial5.png,,,0,4,greenverival,a,Nathan Crush,20,male,2021-02-21_19h45.37.744,exp11,2020.2.6,Win32,60,IwAR2ROE_9iU5tOZlHgHT14sQTTjUFnzTcwF_sE5tC8QPUC4F-ZeIiKyrh7Uw,,,,,,,,,,,
,,,,,,,,,,,,,,a,1,0.577035,space,0.229405,0,119,119,121,1,0_targ_1_dist_green/trial22.png,,,0,1,greenverival,a,Nathan Crush,20,male,2021-02-21_19h45.37.744,exp11,2020.2.6,Win32,60,IwAR2ROE_9iU5tOZlHgHT14sQTTjUFnzTcwF_sE5tC8QPUC4F-ZeIiKyrh7Uw,,,,,,,,,,,
,,,,,,,,,,,,,,a,1,0.67287,space,0.200065,0,120,120,133,1,0_targ_4_dist_green/trial9.png,,,0,4,greenverival,a,Nathan Crush,20,male,2021-02-21_19h45.37.744,exp11,2020.2.6,Win32,60,IwAR2ROE_9iU5tOZlHgHT14sQTTjUFnzTcwF_sE5tC8QPUC4F-ZeIiKyrh7Uw,,,,,,,,,,,
,,,,,,,,,,,,,,p,1,0.636755,space,0.284435,0,121,121,28,1,3_dist_green/trial4.png,,,1,3,greenverival,p,Nathan Crush,20,male,2021-02-21_19h45.37.744,exp11,2020.2.6,Win32,60,IwAR2ROE_9iU5tOZlHgHT14sQTTjUFnzTcwF_sE5tC8QPUC4F-ZeIiKyrh7Uw,,,,,,,,,,,
,,,,,,,,,,,,,,a,1,0.587585,space,0.21025,0,122,122,173,1,0_targ_10_dist_green/trial24.png,,,0,10,greenverival,a,Nathan Crush,20,male,2021-02-21_19h45.37.744,exp11,2020.2.6,Win32,60,IwAR2ROE_9iU5tOZlHgHT14sQTTjUFnzTcwF_sE5tC8QPUC4F-ZeIiKyrh7Uw,,,,,,,,,,,
,,,,,,,,,,,,,,a,1,0.59654,space,0.19242,0,123,123,170,1,0_targ_10_dist_green/trial21.png,,,0,10,greenverival,a,Nathan Crush,20,male,2021-02-21_19h45.37.744,exp11,2020.2.6,Win32,60,IwAR2ROE_9iU5tOZlHgHT14sQTTjUFnzTcwF_sE5tC8QPUC4F-ZeIiKyrh7Uw,,,,,,,,,,,
,,,,,,,,,,,,,,p,1,0.6532,space,0.25114,0,124,124,31,1,3_dist_green/trial7.png,,,1,3,greenverival,p,Nathan Crush,20,male,2021-02-21_19h45.37.744,exp11,2020.2.6,Win32,60,IwAR2ROE_9iU5tOZlHgHT14sQTTjUFnzTcwF_sE5tC8QPUC4F-ZeIiKyrh7Uw,,,,,,,,,,,
,,,,,,,,,,,,,,p,1,0.529385,space,0.27116,0,125,125,81,1,15_dist_green/trial7.png,,,1,15,greenverival,p,Nathan Crush,20,male,2021-02-21_19h45.37.744,exp11,2020.2.6,Win32,60,IwAR2ROE_9iU5tOZlHgHT14sQTTjUFnzTcwF_sE5tC8QPUC4F-ZeIiKyrh7Uw,,,,,,,,,,,
,,,,,,,,,,,,,,p,1,0.456045,space,0.28819,0,126,126,38,1,3_dist_green/trial14.png,,,1,3,greenverival,p,Nathan Crush,20,male,2021-02-21_19h45.37.744,exp11,2020.2.6,Win32,60,IwAR2ROE_9iU5tOZlHgHT14sQTTjUFnzTcwF_sE5tC8QPUC4F-ZeIiKyrh7Uw,,,,,,,,,,,
,,,,,,,,,,,,,,a,0,0.61705,space,0.468575,0,127,127,53,1,9_dist_green/trial4.png,,,1,9,greenverival,p,Nathan Crush,20,male,2021-02-21_19h45.37.744,exp11,2020.2.6,Win32,60,IwAR2ROE_9iU5tOZlHgHT14sQTTjUFnzTcwF_sE5tC8QPUC4F-ZeIiKyrh7Uw,,,,,,,,,,,
,,,,,,,,,,,,,,p,1,0.58097,space,0.254125,0,128,128,49,1,3_dist_green/trial25.png,,,1,3,greenverival,p,Nathan Crush,20,male,2021-02-21_19h45.37.744,exp11,2020.2.6,Win32,60,IwAR2ROE_9iU5tOZlHgHT14sQTTjUFnzTcwF_sE5tC8QPUC4F-ZeIiKyrh7Uw,,,,,,,,,,,
,,,,,,,,,,,,,,a,1,0.586875,space,0.11877,0,129,129,141,1,0_targ_4_dist_green/trial17.png,,,0,4,greenverival,a,Nathan Crush,20,male,2021-02-21_19h45.37.744,exp11,2020.2.6,Win32,60,IwAR2ROE_9iU5tOZlHgHT14sQTTjUFnzTcwF_sE5tC8QPUC4F-ZeIiKyrh7Uw,,,,,,,,,,,
,,,,,,,,,,,,,,a,1,0.604065,space,0.144725,0,130,130,104,1,0_targ_1_dist_green/trial5.png,,,0,1,greenverival,a,Nathan Crush,20,male,2021-02-21_19h45.37.744,exp11,2020.2.6,Win32,60,IwAR2ROE_9iU5tOZlHgHT14sQTTjUFnzTcwF_sE5tC8QPUC4F-ZeIiKyrh7Uw,,,,,,,,,,,
,,,,,,,,,,,,,,p,1,0.50758,space,0.227975,0,131,131,23,1,0_dist_green/trial24.png,,,1,0,greenverival,p,Nathan Crush,20,male,2021-02-21_19h45.37.744,exp11,2020.2.6,Win32,60,IwAR2ROE_9iU5tOZlHgHT14sQTTjUFnzTcwF_sE5tC8QPUC4F-ZeIiKyrh7Uw,,,,,,,,,,,
,,,,,,,,,,,,,,p,1,0.43646,space,0.28968,0,132,132,19,1,0_dist_green/trial20.png,,,1,0,greenverival,p,Nathan Crush,20,male,2021-02-21_19h45.37.744,exp11,2020.2.6,Win32,60,IwAR2ROE_9iU5tOZlHgHT14sQTTjUFnzTcwF_sE5tC8QPUC4F-ZeIiKyrh7Uw,,,,,,,,,,,
,,,,,,,,,,,,,,a,1,0.71112,space,0.284335,0,133,133,162,1,0_targ_10_dist_green/trial13.png,,,0,10,greenverival,a,Nathan Crush,20,male,2021-02-21_19h45.37.744,exp11,2020.2.6,Win32,60,IwAR2ROE_9iU5tOZlHgHT14sQTTjUFnzTcwF_sE5tC8QPUC4F-ZeIiKyrh7Uw,,,,,,,,,,,
,,,,,,,,,,,,,,p,1,0.706545,space,0.225475,0,134,134,89,1,15_dist_green/trial15.png,,,1,15,greenverival,p,Nathan Crush,20,male,2021-02-21_19h45.37.744,exp11,2020.2.6,Win32,60,IwAR2ROE_9iU5tOZlHgHT14sQTTjUFnzTcwF_sE5tC8QPUC4F-ZeIiKyrh7Uw,,,,,,,,,,,
,,,,,,,,,,,,,,a,1,0.62389,space,0.152155,0,135,135,110,1,0_targ_1_dist_green/trial11.png,,,0,1,greenverival,a,Nathan Crush,20,male,2021-02-21_19h45.37.744,exp11,2020.2.6,Win32,60,IwAR2ROE_9iU5tOZlHgHT14sQTTjUFnzTcwF_sE5tC8QPUC4F-ZeIiKyrh7Uw,,,,,,,,,,,
,,,,,,,,,,,,,,p,1,0.594565,space,0.184045,0,136,136,97,1,15_dist_green/trial23.png,,,1,15,greenverival,p,Nathan Crush,20,male,2021-02-21_19h45.37.744,exp11,2020.2.6,Win32,60,IwAR2ROE_9iU5tOZlHgHT14sQTTjUFnzTcwF_sE5tC8QPUC4F-ZeIiKyrh7Uw,,,,,,,,,,,
,,,,,,,,,,,,,,a,1,0.576765,space,0.12254,0,137,137,119,1,0_targ_1_dist_green/trial20.png,,,0,1,greenverival,a,Nathan Crush,20,male,2021-02-21_19h45.37.744,exp11,2020.2.6,Win32,60,IwAR2ROE_9iU5tOZlHgHT14sQTTjUFnzTcwF_sE5tC8QPUC4F-ZeIiKyrh7Uw,,,,,,,,,,,
,,,,,,,,,,,,,,a,1,0.57367,space,0.11791,0,138,138,123,1,0_targ_1_dist_green/trial24.png,,,0,1,greenverival,a,Nathan Crush,20,male,2021-02-21_19h45.37.744,exp11,2020.2.6,Win32,60,IwAR2ROE_9iU5tOZlHgHT14sQTTjUFnzTcwF_sE5tC8QPUC4F-ZeIiKyrh7Uw,,,,,,,,,,,
,,,,,,,,,,,,,,a,1,0.74738,space,0.084755,0,139,139,199,1,0_targ_16_dist_green/trial25.png,,,0,16,greenverival,a,Nathan Crush,20,male,2021-02-21_19h45.37.744,exp11,2020.2.6,Win32,60,IwAR2ROE_9iU5tOZlHgHT14sQTTjUFnzTcwF_sE5tC8QPUC4F-ZeIiKyrh7Uw,,,,,,,,,,,
,,,,,,,,,,,,,,a,1,0.765695,space,0.04195,0,140,140,145,1,0_targ_4_dist_green/trial21.png,,,0,4,greenverival,a,Nathan Crush,20,male,2021-02-21_19h45.37.744,exp11,2020.2.6,Win32,60,IwAR2ROE_9iU5tOZlHgHT14sQTTjUFnzTcwF_sE5tC8QPUC4F-ZeIiKyrh7Uw,,,,,,,,,,,
,,,,,,,,,,,,,,p,1,0.91316,space,0.174445,0,141,141,55,1,9_dist_green/trial6.png,,,1,9,greenverival,p,Nathan Crush,20,male,2021-02-21_19h45.37.744,exp11,2020.2.6,Win32,60,IwAR2ROE_9iU5tOZlHgHT14sQTTjUFnzTcwF_sE5tC8QPUC4F-ZeIiKyrh7Uw,,,,,,,,,,,
,,,,,,,,,,,,,,a,1,0.65175,space,0.134105,0,142,142,160,1,0_targ_10_dist_green/trial11.png,,,0,10,greenverival,a,Nathan Crush,20,male,2021-02-21_19h45.37.744,exp11,2020.2.6,Win32,60,IwAR2ROE_9iU5tOZlHgHT14sQTTjUFnzTcwF_sE5tC8QPUC4F-ZeIiKyrh7Uw,,,,,,,,,,,
,,,,,,,,,,,,,,p,1,0.6758,space,0.145685,0,143,143,40,1,3_dist_green/trial16.png,,,1,3,greenverival,p,Nathan Crush,20,male,2021-02-21_19h45.37.744,exp11,2020.2.6,Win32,60,IwAR2ROE_9iU5tOZlHgHT14sQTTjUFnzTcwF_sE5tC8QPUC4F-ZeIiKyrh7Uw,,,,,,,,,,,
,,,,,,,,,,,,,,p,1,0.54136,space,0.23418,0,144,144,8,1,0_dist_green/trial9.png,,,1,0,greenverival,p,Nathan Crush,20,male,2021-02-21_19h45.37.744,exp11,2020.2.6,Win32,60,IwAR2ROE_9iU5tOZlHgHT14sQTTjUFnzTcwF_sE5tC8QPUC4F-ZeIiKyrh7Uw,,,,,,,,,,,
,,,,,,,,,,,,,,p,1,0.758885,space,0.206045,0,145,145,67,1,9_dist_green/trial18.png,,,1,9,greenverival,p,Nathan Crush,20,male,2021-02-21_19h45.37.744,exp11,2020.2.6,Win32,60,IwAR2ROE_9iU5tOZlHgHT14sQTTjUFnzTcwF_sE5tC8QPUC4F-ZeIiKyrh7Uw,,,,,,,,,,,
,,,,,,,,,,,,,,a,1,0.660235,space,0.06759,0,146,146,179,1,0_targ_16_dist_green/trial5.png,,,0,16,greenverival,a,Nathan Crush,20,male,2021-02-21_19h45.37.744,exp11,2020.2.6,Win32,60,IwAR2ROE_9iU5tOZlHgHT14sQTTjUFnzTcwF_sE5tC8QPUC4F-ZeIiKyrh7Uw,,,,,,,,,,,
,,,,,,,,,,,,,,p,1,0.67979,space,0.18797,0,147,147,7,1,0_dist_green/trial8.png,,,1,0,greenverival,p,Nathan Crush,20,male,2021-02-21_19h45.37.744,exp11,2020.2.6,Win32,60,IwAR2ROE_9iU5tOZlHgHT14sQTTjUFnzTcwF_sE5tC8QPUC4F-ZeIiKyrh7Uw,,,,,,,,,,,
,,,,,,,,,,,,,,p,1,0.493885,space,0.251965,0,148,148,0,1,0_dist_green/trial1.png,,,1,0,greenverival,p,Nathan Crush,20,male,2021-02-21_19h45.37.744,exp11,2020.2.6,Win32,60,IwAR2ROE_9iU5tOZlHgHT14sQTTjUFnzTcwF_sE5tC8QPUC4F-ZeIiKyrh7Uw,,,,,,,,,,,
,,,,,,,,,,,,,,a,1,0.60863,space,0.089285,0,149,149,196,1,0_targ_16_dist_green/trial22.png,,,0,16,greenverival,a,Nathan Crush,20,male,2021-02-21_19h45.37.744,exp11,2020.2.6,Win32,60,IwAR2ROE_9iU5tOZlHgHT14sQTTjUFnzTcwF_sE5tC8QPUC4F-ZeIiKyrh7Uw,,,,,,,,,,,
,,,,,,,,,,,,,,p,1,0.623835,space,0.192325,0,150,150,22,1,0_dist_green/trial23.png,,,1,0,greenverival,p,Nathan Crush,20,male,2021-02-21_19h45.37.744,exp11,2020.2.6,Win32,60,IwAR2ROE_9iU5tOZlHgHT14sQTTjUFnzTcwF_sE5tC8QPUC4F-ZeIiKyrh7Uw,,,,,,,,,,,
,,,,,,,,,,,,,,a,1,0.93945,space,0.158505,0,151,151,150,1,0_targ_10_dist_green/trial1.png,,,0,10,greenverival,a,Nathan Crush,20,male,2021-02-21_19h45.37.744,exp11,2020.2.6,Win32,60,IwAR2ROE_9iU5tOZlHgHT14sQTTjUFnzTcwF_sE5tC8QPUC4F-ZeIiKyrh7Uw,,,,,,,,,,,
,,,,,,,,,,,,,,a,1,0.96525,space,0.134845,0,152,152,127,1,0_targ_4_dist_green/trial3.png,,,0,4,greenverival,a,Nathan Crush,20,male,2021-02-21_19h45.37.744,exp11,2020.2.6,Win32,60,IwAR2ROE_9iU5tOZlHgHT14sQTTjUFnzTcwF_sE5tC8QPUC4F-ZeIiKyrh7Uw,,,,,,,,,,,
,,,,,,,,,,,,,,a,1,0.59981,space,0.12691,0,153,153,163,1,0_targ_10_dist_green/trial14.png,,,0,10,greenverival,a,Nathan Crush,20,male,2021-02-21_19h45.37.744,exp11,2020.2.6,Win32,60,IwAR2ROE_9iU5tOZlHgHT14sQTTjUFnzTcwF_sE5tC8QPUC4F-ZeIiKyrh7Uw,,,,,,,,,,,
,,,,,,,,,,,,,,p,1,0.602845,space,0.238145,0,154,154,48,1,3_dist_green/trial24.png,,,1,3,greenverival,p,Nathan Crush,20,male,2021-02-21_19h45.37.744,exp11,2020.2.6,Win32,60,IwAR2ROE_9iU5tOZlHgHT14sQTTjUFnzTcwF_sE5tC8QPUC4F-ZeIiKyrh7Uw,,,,,,,,,,,
,,,,,,,,,,,,,,a,1,0.58957,space,0.10059,0,155,155,149,1,0_targ_4_dist_green/trial25.png,,,0,4,greenverival,a,Nathan Crush,20,male,2021-02-21_19h45.37.744,exp11,2020.2.6,Win32,60,IwAR2ROE_9iU5tOZlHgHT14sQTTjUFnzTcwF_sE5tC8QPUC4F-ZeIiKyrh7Uw,,,,,,,,,,,
,,,,,,,,,,,,,,a,1,0.595455,space,0.093145,0,156,156,147,1,0_targ_4_dist_green/trial23.png,,,0,4,greenverival,a,Nathan Crush,20,male,2021-02-21_19h45.37.744,exp11,2020.2.6,Win32,60,IwAR2ROE_9iU5tOZlHgHT14sQTTjUFnzTcwF_sE5tC8QPUC4F-ZeIiKyrh7Uw,,,,,,,,,,,
,,,,,,,,,,,,,,p,1,0.59446,space,0.218205,0,157,157,98,1,15_dist_green/trial24.png,,,1,15,greenverival,p,Nathan Crush,20,male,2021-02-21_19h45.37.744,exp11,2020.2.6,Win32,60,IwAR2ROE_9iU5tOZlHgHT14sQTTjUFnzTcwF_sE5tC8QPUC4F-ZeIiKyrh7Uw,,,,,,,,,,,
,,,,,,,,,,,,,,a,1,0.732325,space,0.12144,0,158,158,183,1,0_targ_16_dist_green/trial9.png,,,0,16,greenverival,a,Nathan Crush,20,male,2021-02-21_19h45.37.744,exp11,2020.2.6,Win32,60,IwAR2ROE_9iU5tOZlHgHT14sQTTjUFnzTcwF_sE5tC8QPUC4F-ZeIiKyrh7Uw,,,,,,,,,,,
,,,,,,,,,,,,,,p,1,1.056795,space,0.170705,0,159,159,63,1,9_dist_green/trial14.png,,,1,9,greenverival,p,Nathan Crush,20,male,2021-02-21_19h45.37.744,exp11,2020.2.6,Win32,60,IwAR2ROE_9iU5tOZlHgHT14sQTTjUFnzTcwF_sE5tC8QPUC4F-ZeIiKyrh7Uw,,,,,,,,,,,
,,,,,,,,,,,,,,p,1,0.63259,space,0.266735,0,160,160,41,1,3_dist_green/trial17.png,,,1,3,greenverival,p,Nathan Crush,20,male,2021-02-21_19h45.37.744,exp11,2020.2.6,Win32,60,IwAR2ROE_9iU5tOZlHgHT14sQTTjUFnzTcwF_sE5tC8QPUC4F-ZeIiKyrh7Uw,,,,,,,,,,,
,,,,,,,,,,,,,,a,1,0.70434,space,0.152315,0,161,161,106,1,0_targ_1_dist_green/trial7.png,,,0,1,greenverival,a,Nathan Crush,20,male,2021-02-21_19h45.37.744,exp11,2020.2.6,Win32,60,IwAR2ROE_9iU5tOZlHgHT14sQTTjUFnzTcwF_sE5tC8QPUC4F-ZeIiKyrh7Uw,,,,,,,,,,,
,,,,,,,,,,,,,,a,1,0.621035,space,0.14124,0,162,162,134,1,0_targ_4_dist_green/trial10.png,,,0,4,greenverival,a,Nathan Crush,20,male,2021-02-21_19h45.37.744,exp11,2020.2.6,Win32,60,IwAR2ROE_9iU5tOZlHgHT14sQTTjUFnzTcwF_sE5tC8QPUC4F-ZeIiKyrh7Uw,,,,,,,,,,,
,,,,,,,,,,,,,,p,0,0.779065,space,0.815495,0,163,163,122,1,0_targ_1_dist_green/trial23.png,,,0,1,greenverival,a,Nathan Crush,20,male,2021-02-21_19h45.37.744,exp11,2020.2.6,Win32,60,IwAR2ROE_9iU5tOZlHgHT14sQTTjUFnzTcwF_sE5tC8QPUC4F-ZeIiKyrh7Uw,,,,,,,,,,,
,,,,,,,,,,,,,,p,1,0.605355,space,0.246455,0,164,164,88,1,15_dist_green/trial14.png,,,1,15,greenverival,p,Nathan Crush,20,male,2021-02-21_19h45.37.744,exp11,2020.2.6,Win32,60,IwAR2ROE_9iU5tOZlHgHT14sQTTjUFnzTcwF_sE5tC8QPUC4F-ZeIiKyrh7Uw,,,,,,,,,,,
,,,,,,,,,,,,,,p,1,0.52154,space,0.207065,0,165,165,46,1,3_dist_green/trial22.png,,,1,3,greenverival,p,Nathan Crush,20,male,2021-02-21_19h45.37.744,exp11,2020.2.6,Win32,60,IwAR2ROE_9iU5tOZlHgHT14sQTTjUFnzTcwF_sE5tC8QPUC4F-ZeIiKyrh7Uw,,,,,,,,,,,
,,,,,,,,,,,,,,p,1,0.517965,space,0.206835,0,166,166,39,1,3_dist_green/trial15.png,,,1,3,greenverival,p,Nathan Crush,20,male,2021-02-21_19h45.37.744,exp11,2020.2.6,Win32,60,IwAR2ROE_9iU5tOZlHgHT14sQTTjUFnzTcwF_sE5tC8QPUC4F-ZeIiKyrh7Uw,,,,,,,,,,,
,,,,,,,,,,,,,,p,1,0.550335,space,0.21876,0,167,167,76,1,15_dist_green/trial2.png,,,1,15,greenverival,p,Nathan Crush,20,male,2021-02-21_19h45.37.744,exp11,2020.2.6,Win32,60,IwAR2ROE_9iU5tOZlHgHT14sQTTjUFnzTcwF_sE5tC8QPUC4F-ZeIiKyrh7Uw,,,,,,,,,,,
,,,,,,,,,,,,,,p,1,0.593955,space,0.21759,0,168,168,78,1,15_dist_green/trial4.png,,,1,15,greenverival,p,Nathan Crush,20,male,2021-02-21_19h45.37.744,exp11,2020.2.6,Win32,60,IwAR2ROE_9iU5tOZlHgHT14sQTTjUFnzTcwF_sE5tC8QPUC4F-ZeIiKyrh7Uw,,,,,,,,,,,
,,,,,,,,,,,,,,a,1,0.539155,space,0.15981,0,169,169,112,1,0_targ_1_dist_green/trial13.png,,,0,1,greenverival,a,Nathan Crush,20,male,2021-02-21_19h45.37.744,exp11,2020.2.6,Win32,60,IwAR2ROE_9iU5tOZlHgHT14sQTTjUFnzTcwF_sE5tC8QPUC4F-ZeIiKyrh7Uw,,,,,,,,,,,
,,,,,,,,,,,,,,a,1,0.60193,space,0.13841,0,170,170,192,1,0_targ_16_dist_green/trial18.png,,,0,16,greenverival,a,Nathan Crush,20,male,2021-02-21_19h45.37.744,exp11,2020.2.6,Win32,60,IwAR2ROE_9iU5tOZlHgHT14sQTTjUFnzTcwF_sE5tC8QPUC4F-ZeIiKyrh7Uw,,,,,,,,,,,
,,,,,,,,,,,,,,a,1,0.651565,space,0.14133,0,171,171,157,1,0_targ_10_dist_green/trial8.png,,,0,10,greenverival,a,Nathan Crush,20,male,2021-02-21_19h45.37.744,exp11,2020.2.6,Win32,60,IwAR2ROE_9iU5tOZlHgHT14sQTTjUFnzTcwF_sE5tC8QPUC4F-ZeIiKyrh7Uw,,,,,,,,,,,
,,,,,,,,,,,,,,a,1,0.67394,space,0.14077,0,172,172,185,1,0_targ_16_dist_green/trial11.png,,,0,16,greenverival,a,Nathan Crush,20,male,2021-02-21_19h45.37.744,exp11,2020.2.6,Win32,60,IwAR2ROE_9iU5tOZlHgHT14sQTTjUFnzTcwF_sE5tC8QPUC4F-ZeIiKyrh7Uw,,,,,,,,,,,
,,,,,,,,,,,,,,p,1,0.55499,space,0.16157,0,173,173,18,1,0_dist_green/trial19.png,,,1,0,greenverival,p,Nathan Crush,20,male,2021-02-21_19h45.37.744,exp11,2020.2.6,Win32,60,IwAR2ROE_9iU5tOZlHgHT14sQTTjUFnzTcwF_sE5tC8QPUC4F-ZeIiKyrh7Uw,,,,,,,,,,,
,,,,,,,,,,,,,,p,1,0.5824,space,0.138155,0,174,174,25,1,3_dist_green/trial1.png,,,1,3,greenverival,p,Nathan Crush,20,male,2021-02-21_19h45.37.744,exp11,2020.2.6,Win32,60,IwAR2ROE_9iU5tOZlHgHT14sQTTjUFnzTcwF_sE5tC8QPUC4F-ZeIiKyrh7Uw,,,,,,,,,,,
,,,,,,,,,,,,,,a,1,0.55079,space,0.101055,0,175,175,128,1,0_targ_4_dist_green/trial4.png,,,0,4,greenverival,a,Nathan Crush,20,male,2021-02-21_19h45.37.744,exp11,2020.2.6,Win32,60,IwAR2ROE_9iU5tOZlHgHT14sQTTjUFnzTcwF_sE5tC8QPUC4F-ZeIiKyrh7Uw,,,,,,,,,,,
,,,,,,,,,,,,,,a,1,0.628475,space,0.107525,0,176,176,111,1,0_targ_1_dist_green/trial12.png,,,0,1,greenverival,a,Nathan Crush,20,male,2021-02-21_19h45.37.744,exp11,2020.2.6,Win32,60,IwAR2ROE_9iU5tOZlHgHT14sQTTjUFnzTcwF_sE5tC8QPUC4F-ZeIiKyrh7Uw,,,,,,,,,,,
,,,,,,,,,,,,,,p,1,0.5633,space,0.13434,0,177,177,37,1,3_dist_green/trial13.png,,,1,3,greenverival,p,Nathan Crush,20,male,2021-02-21_19h45.37.744,exp11,2020.2.6,Win32,60,IwAR2ROE_9iU5tOZlHgHT14sQTTjUFnzTcwF_sE5tC8QPUC4F-ZeIiKyrh7Uw,,,,,,,,,,,
,,,,,,,,,,,,,,p,1,0.755795,space,0.129035,0,178,178,74,1,9_dist_green/trial25.png,,,1,9,greenverival,p,Nathan Crush,20,male,2021-02-21_19h45.37.744,exp11,2020.2.6,Win32,60,IwAR2ROE_9iU5tOZlHgHT14sQTTjUFnzTcwF_sE5tC8QPUC4F-ZeIiKyrh7Uw,,,,,,,,,,,
,,,,,,,,,,,,,,p,1,0.70005,space,0.132595,0,179,179,54,1,9_dist_green/trial5.png,,,1,9,greenverival,p,Nathan Crush,20,male,2021-02-21_19h45.37.744,exp11,2020.2.6,Win32,60,IwAR2ROE_9iU5tOZlHgHT14sQTTjUFnzTcwF_sE5tC8QPUC4F-ZeIiKyrh7Uw,,,,,,,,,,,
,,,,,,,,,,,,,,a,1,0.5944,space,0.123945,0,180,180,103,1,0_targ_1_dist_green/trial4.png,,,0,1,greenverival,a,Nathan Crush,20,male,2021-02-21_19h45.37.744,exp11,2020.2.6,Win32,60,IwAR2ROE_9iU5tOZlHgHT14sQTTjUFnzTcwF_sE5tC8QPUC4F-ZeIiKyrh7Uw,,,,,,,,,,,
,,,,,,,,,,,,,,p,1,0.717675,space,0.119025,0,181,181,61,1,9_dist_green/trial12.png,,,1,9,greenverival,p,Nathan Crush,20,male,2021-02-21_19h45.37.744,exp11,2020.2.6,Win32,60,IwAR2ROE_9iU5tOZlHgHT14sQTTjUFnzTcwF_sE5tC8QPUC4F-ZeIiKyrh7Uw,,,,,,,,,,,
,,,,,,,,,,,,,,p,1,0.630565,space,0.01692,0,182,182,86,1,15_dist_green/trial12.png,,,1,15,greenverival,p,Nathan Crush,20,male,2021-02-21_19h45.37.744,exp11,2020.2.6,Win32,60,IwAR2ROE_9iU5tOZlHgHT14sQTTjUFnzTcwF_sE5tC8QPUC4F-ZeIiKyrh7Uw,,,,,,,,,,,
,,,,,,,,,,,,,,p,1,0.756045,space,0.204105,0,183,183,96,1,15_dist_green/trial22.png,,,1,15,greenverival,p,Nathan Crush,20,male,2021-02-21_19h45.37.744,exp11,2020.2.6,Win32,60,IwAR2ROE_9iU5tOZlHgHT14sQTTjUFnzTcwF_sE5tC8QPUC4F-ZeIiKyrh7Uw,,,,,,,,,,,
,,,,,,,,,,,,,,a,1,0.67233,space,0.06809,0,184,184,158,1,0_targ_10_dist_green/trial9.png,,,0,10,greenverival,a,Nathan Crush,20,male,2021-02-21_19h45.37.744,exp11,2020.2.6,Win32,60,IwAR2ROE_9iU5tOZlHgHT14sQTTjUFnzTcwF_sE5tC8QPUC4F-ZeIiKyrh7Uw,,,,,,,,,,,
,,,,,,,,,,,,,,a,1,0.71759,space,0.12004,0,185,185,167,1,0_targ_10_dist_green/trial18.png,,,0,10,greenverival,a,Nathan Crush,20,male,2021-02-21_19h45.37.744,exp11,2020.2.6,Win32,60,IwAR2ROE_9iU5tOZlHgHT14sQTTjUFnzTcwF_sE5tC8QPUC4F-ZeIiKyrh7Uw,,,,,,,,,,,
,,,,,,,,,,,,,,p,1,0.56628,space,0.18375,0,186,186,12,1,0_dist_green/trial13.png,,,1,0,greenverival,p,Nathan Crush,20,male,2021-02-21_19h45.37.744,exp11,2020.2.6,Win32,60,IwAR2ROE_9iU5tOZlHgHT14sQTTjUFnzTcwF_sE5tC8QPUC4F-ZeIiKyrh7Uw,,,,,,,,,,,
,,,,,,,,,,,,,,p,1,0.61809,space,0.14971,0,187,187,73,1,9_dist_green/trial24.png,,,1,9,greenverival,p,Nathan Crush,20,male,2021-02-21_19h45.37.744,exp11,2020.2.6,Win32,60,IwAR2ROE_9iU5tOZlHgHT14sQTTjUFnzTcwF_sE5tC8QPUC4F-ZeIiKyrh7Uw,,,,,,,,,,,
,,,,,,,,,,,,,,p,1,0.638205,space,0.22281,0,188,188,69,1,9_dist_green/trial20.png,,,1,9,greenverival,p,Nathan Crush,20,male,2021-02-21_19h45.37.744,exp11,2020.2.6,Win32,60,IwAR2ROE_9iU5tOZlHgHT14sQTTjUFnzTcwF_sE5tC8QPUC4F-ZeIiKyrh7Uw,,,,,,,,,,,
,,,,,,,,,,,,,,a,1,0.5543,space,0.1592,0,189,189,105,1,0_targ_1_dist_green/trial6.png,,,0,1,greenverival,a,Nathan Crush,20,male,2021-02-21_19h45.37.744,exp11,2020.2.6,Win32,60,IwAR2ROE_9iU5tOZlHgHT14sQTTjUFnzTcwF_sE5tC8QPUC4F-ZeIiKyrh7Uw,,,,,,,,,,,
,,,,,,,,,,,,,,p,1,0.802105,space,0.172,0,190,190,29,1,3_dist_green/trial5.png,,,1,3,greenverival,p,Nathan Crush,20,male,2021-02-21_19h45.37.744,exp11,2020.2.6,Win32,60,IwAR2ROE_9iU5tOZlHgHT14sQTTjUFnzTcwF_sE5tC8QPUC4F-ZeIiKyrh7Uw,,,,,,,,,,,
,,,,,,,,,,,,,,a,1,0.72493,space,0.15291,0,191,191,195,1,0_targ_16_dist_green/trial21.png,,,0,16,greenverival,a,Nathan Crush,20,male,2021-02-21_19h45.37.744,exp11,2020.2.6,Win32,60,IwAR2ROE_9iU5tOZlHgHT14sQTTjUFnzTcwF_sE5tC8QPUC4F-ZeIiKyrh7Uw,,,,,,,,,,,
,,,,,,,,,,,,,,p,1,0.568925,space,0.184165,0,192,192,14,1,0_dist_green/trial15.png,,,1,0,greenverival,p,Nathan Crush,20,male,2021-02-21_19h45.37.744,exp11,2020.2.6,Win32,60,IwAR2ROE_9iU5tOZlHgHT14sQTTjUFnzTcwF_sE5tC8QPUC4F-ZeIiKyrh7Uw,,,,,,,,,,,
,,,,,,,,,,,,,,a,1,0.63147,space,0.16937,0,193,193,100,1,0_targ_1_dist_green/trial1.png,,,0,1,greenverival,a,Nathan Crush,20,male,2021-02-21_19h45.37.744,exp11,2020.2.6,Win32,60,IwAR2ROE_9iU5tOZlHgHT14sQTTjUFnzTcwF_sE5tC8QPUC4F-ZeIiKyrh7Uw,,,,,,,,,,,
,,,,,,,,,,,,,,a,1,0.850365,space,0.140005,0,194,194,175,1,0_targ_16_dist_green/trial1.png,,,0,16,greenverival,a,Nathan Crush,20,male,2021-02-21_19h45.37.744,exp11,2020.2.6,Win32,60,IwAR2ROE_9iU5tOZlHgHT14sQTTjUFnzTcwF_sE5tC8QPUC4F-ZeIiKyrh7Uw,,,,,,,,,,,
,,,,,,,,,,,,,,p,1,0.616365,space,0.22717,0,195,195,58,1,9_dist_green/trial9.png,,,1,9,greenverival,p,Nathan Crush,20,male,2021-02-21_19h45.37.744,exp11,2020.2.6,Win32,60,IwAR2ROE_9iU5tOZlHgHT14sQTTjUFnzTcwF_sE5tC8QPUC4F-ZeIiKyrh7Uw,,,,,,,,,,,
,,,,,,,,,,,,,,p,1,0.620195,space,0.2168,0,196,196,51,1,9_dist_green/trial2.png,,,1,9,greenverival,p,Nathan Crush,20,male,2021-02-21_19h45.37.744,exp11,2020.2.6,Win32,60,IwAR2ROE_9iU5tOZlHgHT14sQTTjUFnzTcwF_sE5tC8QPUC4F-ZeIiKyrh7Uw,,,,,,,,,,,
,,,,,,,,,,,,,,a,1,0.651275,space,0.14338,0,197,197,169,1,0_targ_10_dist_green/trial20.png,,,0,10,greenverival,a,Nathan Crush,20,male,2021-02-21_19h45.37.744,exp11,2020.2.6,Win32,60,IwAR2ROE_9iU5tOZlHgHT14sQTTjUFnzTcwF_sE5tC8QPUC4F-ZeIiKyrh7Uw,,,,,,,,,,,
,,,,,,,,,,,,,,p,1,0.811625,space,0.21798,0,198,198,34,1,3_dist_green/trial10.png,,,1,3,greenverival,p,Nathan Crush,20,male,2021-02-21_19h45.37.744,exp11,2020.2.6,Win32,60,IwAR2ROE_9iU5tOZlHgHT14sQTTjUFnzTcwF_sE5tC8QPUC4F-ZeIiKyrh7Uw,,,,,,,,,,,
,,,,,,,,,,,,,,a,1,0.70459,space,0.143015,0,199,199,130,1,0_targ_4_dist_green/trial6.png,,,0,4,greenverival,a,Nathan Crush,20,male,2021-02-21_19h45.37.744,exp11,2020.2.6,Win32,60,IwAR2ROE_9iU5tOZlHgHT14sQTTjUFnzTcwF_sE5tC8QPUC4F-ZeIiKyrh7Uw,,,,,,,,,,,
,,,,,,,,,,,,,,,,,,,,,,,,,,,,,,,Nathan Crush,20,male,2021-02-21_19h45.37.744,exp11,2020.2.6,Win32,60,IwAR2ROE_9iU5tOZlHgHT14sQTTjUFnzTcwF_sE5tC8QPUC4F-ZeIiKyrh7Uw,0,0,0,0,1,conGreen.xlsx,green vertical,Look for green vertical bar (target) and indicate if it is present or absent in the array. If green vertical target is present press 'p' and if absent press 'a'. Press SPACE to start.,,,
,,,,,,,,,,space,25.77278,space,2.74705,p,1,0.54693,space,0.653315,0,0,0,40,1,3_dist_red/trial16.png,,,1,3,redHorizontal,p,Nathan Crush,20,male,2021-02-21_19h45.37.744,exp11,2020.2.6,Win32,60,IwAR2ROE_9iU5tOZlHgHT14sQTTjUFnzTcwF_sE5tC8QPUC4F-ZeIiKyrh7Uw,,,,,,,,,,,
,,,,,,,,,,,,,,a,1,1.04856,space,0.38458,0,1,1,185,1,0_targ_16_dist_red/trial11.png,,,0,16,redHorizontal,a,Nathan Crush,20,male,2021-02-21_19h45.37.744,exp11,2020.2.6,Win32,60,IwAR2ROE_9iU5tOZlHgHT14sQTTjUFnzTcwF_sE5tC8QPUC4F-ZeIiKyrh7Uw,,,,,,,,,,,
,,,,,,,,,,,,,,p,1,0.67177,space,0.32637,0,2,2,34,1,3_dist_red/trial10.png,,,1,3,redHorizontal,p,Nathan Crush,20,male,2021-02-21_19h45.37.744,exp11,2020.2.6,Win32,60,IwAR2ROE_9iU5tOZlHgHT14sQTTjUFnzTcwF_sE5tC8QPUC4F-ZeIiKyrh7Uw,,,,,,,,,,,
,,,,,,,,,,,,,,a,1,0.731895,space,0.23431,0,3,3,181,1,0_targ_16_dist_red/trial7.png,,,0,16,redHorizontal,a,Nathan Crush,20,male,2021-02-21_19h45.37.744,exp11,2020.2.6,Win32,60,IwAR2ROE_9iU5tOZlHgHT14sQTTjUFnzTcwF_sE5tC8QPUC4F-ZeIiKyrh7Uw,,,,,,,,,,,
,,,,,,,,,,,,,,p,1,0.78661,space,0.24316,0,4,4,83,1,15_dist_red/trial9.png,,,1,15,redHorizontal,p,Nathan Crush,20,male,2021-02-21_19h45.37.744,exp11,2020.2.6,Win32,60,IwAR2ROE_9iU5tOZlHgHT14sQTTjUFnzTcwF_sE5tC8QPUC4F-ZeIiKyrh7Uw,,,,,,,,,,,
,,,,,,,,,,,,,,p,1,0.541085,space,0.220155,0,5,5,67,1,9_dist_red/trial18.png,,,1,9,redHorizontal,p,Nathan Crush,20,male,2021-02-21_19h45.37.744,exp11,2020.2.6,Win32,60,IwAR2ROE_9iU5tOZlHgHT14sQTTjUFnzTcwF_sE5tC8QPUC4F-ZeIiKyrh7Uw,,,,,,,,,,,
,,,,,,,,,,,,,,a,1,0.738985,space,0.32643,0,6,6,127,1,0_targ_4_dist_red/trial3.png,,,0,4,redHorizontal,a,Nathan Crush,20,male,2021-02-21_19h45.37.744,exp11,2020.2.6,Win32,60,IwAR2ROE_9iU5tOZlHgHT14sQTTjUFnzTcwF_sE5tC8QPUC4F-ZeIiKyrh7Uw,,,,,,,,,,,
,,,,,,,,,,,,,,a,0,1.17662,space,0.178615,0,7,7,89,1,15_dist_red/trial15.png,,,1,15,redHorizontal,p,Nathan Crush,20,male,2021-02-21_19h45.37.744,exp11,2020.2.6,Win32,60,IwAR2ROE_9iU5tOZlHgHT14sQTTjUFnzTcwF_sE5tC8QPUC4F-ZeIiKyrh7Uw,,,,,,,,,,,
,,,,,,,,,,,,,,p,1,0.975805,space,0.298365,0,8,8,36,1,3_dist_red/trial12.png,,,1,3,redHorizontal,p,Nathan Crush,20,male,2021-02-21_19h45.37.744,exp11,2020.2.6,Win32,60,IwAR2ROE_9iU5tOZlHgHT14sQTTjUFnzTcwF_sE5tC8QPUC4F-ZeIiKyrh7Uw,,,,,,,,,,,
,,,,,,,,,,,,,,p,1,1.13716,space,0.16008,0,9,9,44,1,3_dist_red/trial20.png,,,1,3,redHorizontal,p,Nathan Crush,20,male,2021-02-21_19h45.37.744,exp11,2020.2.6,Win32,60,IwAR2ROE_9iU5tOZlHgHT14sQTTjUFnzTcwF_sE5tC8QPUC4F-ZeIiKyrh7Uw,,,,,,,,,,,
,,,,,,,,,,,,,,p,1,0.91826,space,0.185305,0,10,10,70,1,9_dist_red/trial21.png,,,1,9,redHorizontal,p,Nathan Crush,20,male,2021-02-21_19h45.37.744,exp11,2020.2.6,Win32,60,IwAR2ROE_9iU5tOZlHgHT14sQTTjUFnzTcwF_sE5tC8QPUC4F-ZeIiKyrh7Uw,,,,,,,,,,,
,,,,,,,,,,,,,,a,1,0.72185,space,0.15367,0,11,11,163,1,0_targ_10_dist_red/trial14.png,,,0,10,redHorizontal,a,Nathan Crush,20,male,2021-02-21_19h45.37.744,exp11,2020.2.6,Win32,60,IwAR2ROE_9iU5tOZlHgHT14sQTTjUFnzTcwF_sE5tC8QPUC4F-ZeIiKyrh7Uw,,,,,,,,,,,
,,,,,,,,,,,,,,a,1,1.158855,space,0.16338,0,12,12,159,1,0_targ_10_dist_red/trial10.png,,,0,10,redHorizontal,a,Nathan Crush,20,male,2021-02-21_19h45.37.744,exp11,2020.2.6,Win32,60,IwAR2ROE_9iU5tOZlHgHT14sQTTjUFnzTcwF_sE5tC8QPUC4F-ZeIiKyrh7Uw,,,,,,,,,,,
,,,,,,,,,,,,,,p,1,0.66445,space,0.26032,0,13,13,30,1,3_dist_red/trial6.png,,,1,3,redHorizontal,p,Nathan Crush,20,male,2021-02-21_19h45.37.744,exp11,2020.2.6,Win32,60,IwAR2ROE_9iU5tOZlHgHT14sQTTjUFnzTcwF_sE5tC8QPUC4F-ZeIiKyrh7Uw,,,,,,,,,,,
,,,,,,,,,,,,,,a,1,0.687615,space,0.15234,0,14,14,137,1,0_targ_4_dist_red/trial13.png,,,0,4,redHorizontal,a,Nathan Crush,20,male,2021-02-21_19h45.37.744,exp11,2020.2.6,Win32,60,IwAR2ROE_9iU5tOZlHgHT14sQTTjUFnzTcwF_sE5tC8QPUC4F-ZeIiKyrh7Uw,,,,,,,,,,,
,,,,,,,,,,,,,,p,1,1.034905,space,0.319865,0,15,15,79,1,15_dist_red/trial5.png,,,1,15,redHorizontal,p,Nathan Crush,20,male,2021-02-21_19h45.37.744,exp11,2020.2.6,Win32,60,IwAR2ROE_9iU5tOZlHgHT14sQTTjUFnzTcwF_sE5tC8QPUC4F-ZeIiKyrh7Uw,,,,,,,,,,,
,,,,,,,,,,,,,,p,1,0.690945,space,0.17296,0,16,16,98,1,15_dist_red/trial24.png,,,1,15,redHorizontal,p,Nathan Crush,20,male,2021-02-21_19h45.37.744,exp11,2020.2.6,Win32,60,IwAR2ROE_9iU5tOZlHgHT14sQTTjUFnzTcwF_sE5tC8QPUC4F-ZeIiKyrh7Uw,,,,,,,,,,,
,,,,,,,,,,,,,,a,1,1.05112,space,0.16741,0,17,17,180,1,0_targ_16_dist_red/trial6.png,,,0,16,redHorizontal,a,Nathan Crush,20,male,2021-02-21_19h45.37.744,exp11,2020.2.6,Win32,60,IwAR2ROE_9iU5tOZlHgHT14sQTTjUFnzTcwF_sE5tC8QPUC4F-ZeIiKyrh7Uw,,,,,,,,,,,
,,,,,,,,,,,,,,p,1,0.56158,space,0.184705,0,18,18,61,1,9_dist_red/trial12.png,,,1,9,redHorizontal,p,Nathan Crush,20,male,2021-02-21_19h45.37.744,exp11,2020.2.6,Win32,60,IwAR2ROE_9iU5tOZlHgHT14sQTTjUFnzTcwF_sE5tC8QPUC4F-ZeIiKyrh7Uw,,,,,,,,,,,
,,,,,,,,,,,,,,p,1,0.72159,space,0.26802,0,19,19,27,1,3_dist_red/trial3.png,,,1,3,redHorizontal,p,Nathan Crush,20,male,2021-02-21_19h45.37.744,exp11,2020.2.6,Win32,60,IwAR2ROE_9iU5tOZlHgHT14sQTTjUFnzTcwF_sE5tC8QPUC4F-ZeIiKyrh7Uw,,,,,,,,,,,
,,,,,,,,,,,,,,a,1,0.67511,space,0.103355,0,20,20,171,1,0_targ_10_dist_red/trial22.png,,,0,10,redHorizontal,a,Nathan Crush,20,male,2021-02-21_19h45.37.744,exp11,2020.2.6,Win32,60,IwAR2ROE_9iU5tOZlHgHT14sQTTjUFnzTcwF_sE5tC8QPUC4F-ZeIiKyrh7Uw,,,,,,,,,,,
,,,,,,,,,,,,,,p,0,0.724275,space,0.056555,0,21,21,179,1,0_targ_16_dist_red/trial5.png,,,0,16,redHorizontal,a,Nathan Crush,20,male,2021-02-21_19h45.37.744,exp11,2020.2.6,Win32,60,IwAR2ROE_9iU5tOZlHgHT14sQTTjUFnzTcwF_sE5tC8QPUC4F-ZeIiKyrh7Uw,,,,,,,,,,,
,,,,,,,,,,,,,,a,1,0.869035,space,0.85614,0,22,22,175,1,0_targ_16_dist_red/trial1.png,,,0,16,redHorizontal,a,Nathan Crush,20,male,2021-02-21_19h45.37.744,exp11,2020.2.6,Win32,60,IwAR2ROE_9iU5tOZlHgHT14sQTTjUFnzTcwF_sE5tC8QPUC4F-ZeIiKyrh7Uw,,,,,,,,,,,
,,,,,,,,,,,,,,p,1,0.627205,space,0.276655,0,23,23,13,1,0_dist_red/trial14.png,,,1,0,redHorizontal,p,Nathan Crush,20,male,2021-02-21_19h45.37.744,exp11,2020.2.6,Win32,60,IwAR2ROE_9iU5tOZlHgHT14sQTTjUFnzTcwF_sE5tC8QPUC4F-ZeIiKyrh7Uw,,,,,,,,,,,
,,,,,,,,,,,,,,p,1,0.49116,space,0.25179,0,24,24,56,1,9_dist_red/trial7.png,,,1,9,redHorizontal,p,Nathan Crush,20,male,2021-02-21_19h45.37.744,exp11,2020.2.6,Win32,60,IwAR2ROE_9iU5tOZlHgHT14sQTTjUFnzTcwF_sE5tC8QPUC4F-ZeIiKyrh7Uw,,,,,,,,,,,
,,,,,,,,,,,,,,p,1,0.42113,space,0.288215,0,25,25,5,1,0_dist_red/trial6.png,,,1,0,redHorizontal,p,Nathan Crush,20,male,2021-02-21_19h45.37.744,exp11,2020.2.6,Win32,60,IwAR2ROE_9iU5tOZlHgHT14sQTTjUFnzTcwF_sE5tC8QPUC4F-ZeIiKyrh7Uw,,,,,,,,,,,
,,,,,,,,,,,,,,p,1,0.459135,space,0.25056,0,26,26,86,1,15_dist_red/trial12.png,,,1,15,redHorizontal,p,Nathan Crush,20,male,2021-02-21_19h45.37.744,exp11,2020.2.6,Win32,60,IwAR2ROE_9iU5tOZlHgHT14sQTTjUFnzTcwF_sE5tC8QPUC4F-ZeIiKyrh7Uw,,,,,,,,,,,
,,,,,,,,,,,,,,p,0,0.42392,space,0.882445,0,27,27,148,1,0_targ_4_dist_red/trial24.png,,,0,4,redHorizontal,a,Nathan Crush,20,male,2021-02-21_19h45.37.744,exp11,2020.2.6,Win32,60,IwAR2ROE_9iU5tOZlHgHT14sQTTjUFnzTcwF_sE5tC8QPUC4F-ZeIiKyrh7Uw,,,,,,,,,,,
,,,,,,,,,,,,,,a,1,0.664175,space,0.258045,0,28,28,135,1,0_targ_4_dist_red/trial11.png,,,0,4,redHorizontal,a,Nathan Crush,20,male,2021-02-21_19h45.37.744,exp11,2020.2.6,Win32,60,IwAR2ROE_9iU5tOZlHgHT14sQTTjUFnzTcwF_sE5tC8QPUC4F-ZeIiKyrh7Uw,,,,,,,,,,,
,,,,,,,,,,,,,,p,1,0.488965,space,0.23507,0,29,29,8,1,0_dist_red/trial9.png,,,1,0,redHorizontal,p,Nathan Crush,20,male,2021-02-21_19h45.37.744,exp11,2020.2.6,Win32,60,IwAR2ROE_9iU5tOZlHgHT14sQTTjUFnzTcwF_sE5tC8QPUC4F-ZeIiKyrh7Uw,,,,,,,,,,,
,,,,,,,,,,,,,,a,1,0.70962,space,0.112265,0,30,30,134,1,0_targ_4_dist_red/trial10.png,,,0,4,redHorizontal,a,Nathan Crush,20,male,2021-02-21_19h45.37.744,exp11,2020.2.6,Win32,60,IwAR2ROE_9iU5tOZlHgHT14sQTTjUFnzTcwF_sE5tC8QPUC4F-ZeIiKyrh7Uw,,,,,,,,,,,
,,,,,,,,,,,,,,p,1,0.59412,space,0.217475,0,31,31,73,1,9_dist_red/trial24.png,,,1,9,redHorizontal,p,Nathan Crush,20,male,2021-02-21_19h45.37.744,exp11,2020.2.6,Win32,60,IwAR2ROE_9iU5tOZlHgHT14sQTTjUFnzTcwF_sE5tC8QPUC4F-ZeIiKyrh7Uw,,,,,,,,,,,
,,,,,,,,,,,,,,a,1,0.627855,space,0.135235,0,32,32,152,1,0_targ_10_dist_red/trial3.png,,,0,10,redHorizontal,a,Nathan Crush,20,male,2021-02-21_19h45.37.744,exp11,2020.2.6,Win32,60,IwAR2ROE_9iU5tOZlHgHT14sQTTjUFnzTcwF_sE5tC8QPUC4F-ZeIiKyrh7Uw,,,,,,,,,,,
,,,,,,,,,,,,,,a,1,0.64394,space,0.159925,0,33,33,189,1,0_targ_16_dist_red/trial15.png,,,0,16,redHorizontal,a,Nathan Crush,20,male,2021-02-21_19h45.37.744,exp11,2020.2.6,Win32,60,IwAR2ROE_9iU5tOZlHgHT14sQTTjUFnzTcwF_sE5tC8QPUC4F-ZeIiKyrh7Uw,,,,,,,,,,,
,,,,,,,,,,,,,,a,1,0.70267,space,0.168135,0,34,34,130,1,0_targ_4_dist_red/trial6.png,,,0,4,redHorizontal,a,Nathan Crush,20,male,2021-02-21_19h45.37.744,exp11,2020.2.6,Win32,60,IwAR2ROE_9iU5tOZlHgHT14sQTTjUFnzTcwF_sE5tC8QPUC4F-ZeIiKyrh7Uw,,,,,,,,,,,
,,,,,,,,,,,,,,a,1,0.90015,space,0.22692,0,35,35,123,1,0_targ_1_dist_red/trial24.png,,,0,1,redHorizontal,a,Nathan Crush,20,male,2021-02-21_19h45.37.744,exp11,2020.2.6,Win32,60,IwAR2ROE_9iU5tOZlHgHT14sQTTjUFnzTcwF_sE5tC8QPUC4F-ZeIiKyrh7Uw,,,,,,,,,,,
,,,,,,,,,,,,,,p,1,0.782595,space,0.267835,0,36,36,28,1,3_dist_red/trial4.png,,,1,3,redHorizontal,p,Nathan Crush,20,male,2021-02-21_19h45.37.744,exp11,2020.2.6,Win32,60,IwAR2ROE_9iU5tOZlHgHT14sQTTjUFnzTcwF_sE5tC8QPUC4F-ZeIiKyrh7Uw,,,,,,,,,,,
,,,,,,,,,,,,,,a,1,0.665965,space,0.1578,0,37,37,172,1,0_targ_10_dist_red/trial23.png,,,0,10,redHorizontal,a,Nathan Crush,20,male,2021-02-21_19h45.37.744,exp11,2020.2.6,Win32,60,IwAR2ROE_9iU5tOZlHgHT14sQTTjUFnzTcwF_sE5tC8QPUC4F-ZeIiKyrh7Uw,,,,,,,,,,,
,,,,,,,,,,,,,,a,1,0.788745,space,0.21782,0,38,38,194,1,0_targ_16_dist_red/trial20.png,,,0,16,redHorizontal,a,Nathan Crush,20,male,2021-02-21_19h45.37.744,exp11,2020.2.6,Win32,60,IwAR2ROE_9iU5tOZlHgHT14sQTTjUFnzTcwF_sE5tC8QPUC4F-ZeIiKyrh7Uw,,,,,,,,,,,
,,,,,,,,,,,,,,a,1,0.61574,space,0.151365,0,39,39,168,1,0_targ_10_dist_red/trial19.png,,,0,10,redHorizontal,a,Nathan Crush,20,male,2021-02-21_19h45.37.744,exp11,2020.2.6,Win32,60,IwAR2ROE_9iU5tOZlHgHT14sQTTjUFnzTcwF_sE5tC8QPUC4F-ZeIiKyrh7Uw,,,,,,,,,,,
,,,,,,,,,,,,,,a,0,0.48234,space,0.635905,0,40,40,94,1,15_dist_red/trial20.png,,,1,15,redHorizontal,p,Nathan Crush,20,male,2021-02-21_19h45.37.744,exp11,2020.2.6,Win32,60,IwAR2ROE_9iU5tOZlHgHT14sQTTjUFnzTcwF_sE5tC8QPUC4F-ZeIiKyrh7Uw,,,,,,,,,,,
,,,,,,,,,,,,,,a,1,0.485245,space,0.15059,0,41,41,136,1,0_targ_4_dist_red/trial12.png,,,0,4,redHorizontal,a,Nathan Crush,20,male,2021-02-21_19h45.37.744,exp11,2020.2.6,Win32,60,IwAR2ROE_9iU5tOZlHgHT14sQTTjUFnzTcwF_sE5tC8QPUC4F-ZeIiKyrh7Uw,,,,,,,,,,,
,,,,,,,,,,,,,,p,1,0.650215,space,0.276605,0,42,42,4,1,0_dist_red/trial5.png,,,1,0,redHorizontal,p,Nathan Crush,20,male,2021-02-21_19h45.37.744,exp11,2020.2.6,Win32,60,IwAR2ROE_9iU5tOZlHgHT14sQTTjUFnzTcwF_sE5tC8QPUC4F-ZeIiKyrh7Uw,,,,,,,,,,,
,,,,,,,,,,,,,,a,1,1.05124,space,0.18697,0,43,43,190,1,0_targ_16_dist_red/trial16.png,,,0,16,redHorizontal,a,Nathan Crush,20,male,2021-02-21_19h45.37.744,exp11,2020.2.6,Win32,60,IwAR2ROE_9iU5tOZlHgHT14sQTTjUFnzTcwF_sE5tC8QPUC4F-ZeIiKyrh7Uw,,,,,,,,,,,
,,,,,,,,,,,,,,p,1,0.572215,space,0.284825,0,44,44,92,1,15_dist_red/trial18.png,,,1,15,redHorizontal,p,Nathan Crush,20,male,2021-02-21_19h45.37.744,exp11,2020.2.6,Win32,60,IwAR2ROE_9iU5tOZlHgHT14sQTTjUFnzTcwF_sE5tC8QPUC4F-ZeIiKyrh7Uw,,,,,,,,,,,
,,,,,,,,,,,,,,p,1,0.451485,space,0.255565,0,45,45,93,1,15_dist_red/trial19.png,,,1,15,redHorizontal,p,Nathan Crush,20,male,2021-02-21_19h45.37.744,exp11,2020.2.6,Win32,60,IwAR2ROE_9iU5tOZlHgHT14sQTTjUFnzTcwF_sE5tC8QPUC4F-ZeIiKyrh7Uw,,,,,,,,,,,
,,,,,,,,,,,,,,a,1,0.585145,space,0.144825,0,46,46,156,1,0_targ_10_dist_red/trial7.png,,,0,10,redHorizontal,a,Nathan Crush,20,male,2021-02-21_19h45.37.744,exp11,2020.2.6,Win32,60,IwAR2ROE_9iU5tOZlHgHT14sQTTjUFnzTcwF_sE5tC8QPUC4F-ZeIiKyrh7Uw,,,,,,,,,,,
,,,,,,,,,,,,,,a,1,0.600415,space,0.159565,0,47,47,182,1,0_targ_16_dist_red/trial8.png,,,0,16,redHorizontal,a,Nathan Crush,20,male,2021-02-21_19h45.37.744,exp11,2020.2.6,Win32,60,IwAR2ROE_9iU5tOZlHgHT14sQTTjUFnzTcwF_sE5tC8QPUC4F-ZeIiKyrh7Uw,,,,,,,,,,,
,,,,,,,,,,,,,,p,1,0.712995,space,0.23464,0,48,48,88,1,15_dist_red/trial14.png,,,1,15,redHorizontal,p,Nathan Crush,20,male,2021-02-21_19h45.37.744,exp11,2020.2.6,Win32,60,IwAR2ROE_9iU5tOZlHgHT14sQTTjUFnzTcwF_sE5tC8QPUC4F-ZeIiKyrh7Uw,,,,,,,,,,,
,,,,,,,,,,,,,,a,1,0.774555,space,0.18683,0,49,49,119,1,0_targ_1_dist_red/trial20.png,,,0,1,redHorizontal,a,Nathan Crush,20,male,2021-02-21_19h45.37.744,exp11,2020.2.6,Win32,60,IwAR2ROE_9iU5tOZlHgHT14sQTTjUFnzTcwF_sE5tC8QPUC4F-ZeIiKyrh7Uw,,,,,,,,,,,
,,,,,,,,,,,,,,p,1,0.47741,space,0.253655,0,50,50,3,1,0_dist_red/trial4.png,,,1,0,redHorizontal,p,Nathan Crush,20,male,2021-02-21_19h45.37.744,exp11,2020.2.6,Win32,60,IwAR2ROE_9iU5tOZlHgHT14sQTTjUFnzTcwF_sE5tC8QPUC4F-ZeIiKyrh7Uw,,,,,,,,,,,
,,,,,,,,,,,,,,a,1,0.540965,space,0.16192,0,51,51,178,1,0_targ_16_dist_red/trial4.png,,,0,16,redHorizontal,a,Nathan Crush,20,male,2021-02-21_19h45.37.744,exp11,2020.2.6,Win32,60,IwAR2ROE_9iU5tOZlHgHT14sQTTjUFnzTcwF_sE5tC8QPUC4F-ZeIiKyrh7Uw,,,,,,,,,,,
,,,,,,,,,,,,,,p,1,0.58116,space,0.25799,0,52,52,97,1,15_dist_red/trial23.png,,,1,15,redHorizontal,p,Nathan Crush,20,male,2021-02-21_19h45.37.744,exp11,2020.2.6,Win32,60,IwAR2ROE_9iU5tOZlHgHT14sQTTjUFnzTcwF_sE5tC8QPUC4F-ZeIiKyrh7Uw,,,,,,,,,,,
,,,,,,,,,,,,,,p,1,0.7223,space,0.225585,0,53,53,38,1,3_dist_red/trial14.png,,,1,3,redHorizontal,p,Nathan Crush,20,male,2021-02-21_19h45.37.744,exp11,2020.2.6,Win32,60,IwAR2ROE_9iU5tOZlHgHT14sQTTjUFnzTcwF_sE5tC8QPUC4F-ZeIiKyrh7Uw,,,,,,,,,,,
,,,,,,,,,,,,,,a,1,0.50981,space,0.161875,0,54,54,131,1,0_targ_4_dist_red/trial7.png,,,0,4,redHorizontal,a,Nathan Crush,20,male,2021-02-21_19h45.37.744,exp11,2020.2.6,Win32,60,IwAR2ROE_9iU5tOZlHgHT14sQTTjUFnzTcwF_sE5tC8QPUC4F-ZeIiKyrh7Uw,,,,,,,,,,,
,,,,,,,,,,,,,,p,1,0.893725,space,0.21424,0,55,55,95,1,15_dist_red/trial21.png,,,1,15,redHorizontal,p,Nathan Crush,20,male,2021-02-21_19h45.37.744,exp11,2020.2.6,Win32,60,IwAR2ROE_9iU5tOZlHgHT14sQTTjUFnzTcwF_sE5tC8QPUC4F-ZeIiKyrh7Uw,,,,,,,,,,,
,,,,,,,,,,,,,,p,1,0.532995,space,0.226195,0,56,56,16,1,0_dist_red/trial17.png,,,1,0,redHorizontal,p,Nathan Crush,20,male,2021-02-21_19h45.37.744,exp11,2020.2.6,Win32,60,IwAR2ROE_9iU5tOZlHgHT14sQTTjUFnzTcwF_sE5tC8QPUC4F-ZeIiKyrh7Uw,,,,,,,,,,,
,,,,,,,,,,,,,,a,1,0.464395,space,0.175745,0,57,57,120,1,0_targ_1_dist_red/trial21.png,,,0,1,redHorizontal,a,Nathan Crush,20,male,2021-02-21_19h45.37.744,exp11,2020.2.6,Win32,60,IwAR2ROE_9iU5tOZlHgHT14sQTTjUFnzTcwF_sE5tC8QPUC4F-ZeIiKyrh7Uw,,,,,,,,,,,
,,,,,,,,,,,,,,p,1,0.515555,space,0.233035,0,58,58,39,1,3_dist_red/trial15.png,,,1,3,redHorizontal,p,Nathan Crush,20,male,2021-02-21_19h45.37.744,exp11,2020.2.6,Win32,60,IwAR2ROE_9iU5tOZlHgHT14sQTTjUFnzTcwF_sE5tC8QPUC4F-ZeIiKyrh7Uw,,,,,,,,,,,
,,,,,,,,,,,,,,p,1,0.5749,space,0.25284,0,59,59,46,1,3_dist_red/trial22.png,,,1,3,redHorizontal,p,Nathan Crush,20,male,2021-02-21_19h45.37.744,exp11,2020.2.6,Win32,60,IwAR2ROE_9iU5tOZlHgHT14sQTTjUFnzTcwF_sE5tC8QPUC4F-ZeIiKyrh7Uw,,,,,,,,,,,
,,,,,,,,,,,,,,a,1,0.45994,space,0.160125,0,60,60,138,1,0_targ_4_dist_red/trial14.png,,,0,4,redHorizontal,a,Nathan Crush,20,male,2021-02-21_19h45.37.744,exp11,2020.2.6,Win32,60,IwAR2ROE_9iU5tOZlHgHT14sQTTjUFnzTcwF_sE5tC8QPUC4F-ZeIiKyrh7Uw,,,,,,,,,,,
,,,,,,,,,,,,,,p,1,0.473345,space,0.29218,0,61,61,6,1,0_dist_red/trial7.png,,,1,0,redHorizontal,p,Nathan Crush,20,male,2021-02-21_19h45.37.744,exp11,2020.2.6,Win32,60,IwAR2ROE_9iU5tOZlHgHT14sQTTjUFnzTcwF_sE5tC8QPUC4F-ZeIiKyrh7Uw,,,,,,,,,,,
,,,,,,,,,,,,,,p,1,0.69235,space,0.310535,0,62,62,59,1,9_dist_red/trial10.png,,,1,9,redHorizontal,p,Nathan Crush,20,male,2021-02-21_19h45.37.744,exp11,2020.2.6,Win32,60,IwAR2ROE_9iU5tOZlHgHT14sQTTjUFnzTcwF_sE5tC8QPUC4F-ZeIiKyrh7Uw,,,,,,,,,,,
,,,,,,,,,,,,,,a,1,0.5532,space,0.11722,0,63,63,166,1,0_targ_10_dist_red/trial17.png,,,0,10,redHorizontal,a,Nathan Crush,20,male,2021-02-21_19h45.37.744,exp11,2020.2.6,Win32,60,IwAR2ROE_9iU5tOZlHgHT14sQTTjUFnzTcwF_sE5tC8QPUC4F-ZeIiKyrh7Uw,,,,,,,,,,,
,,,,,,,,,,,,,,a,1,0.87196,space,0.143625,0,64,64,115,1,0_targ_1_dist_red/trial6.png,,,0,1,redHorizontal,a,Nathan Crush,20,male,2021-02-21_19h45.37.744,exp11,2020.2.6,Win32,60,IwAR2ROE_9iU5tOZlHgHT14sQTTjUFnzTcwF_sE5tC8QPUC4F-ZeIiKyrh7Uw,,,,,,,,,,,
,,,,,,,,,,,,,,p,1,0.52666,space,0.334945,0,65,65,49,1,3_dist_red/trial25.png,,,1,3,redHorizontal,p,Nathan Crush,20,male,2021-02-21_19h45.37.744,exp11,2020.2.6,Win32,60,IwAR2ROE_9iU5tOZlHgHT14sQTTjUFnzTcwF_sE5tC8QPUC4F-ZeIiKyrh7Uw,,,,,,,,,,,
,,,,,,,,,,,,,,p,1,0.89755,space,0.21179,0,66,66,81,1,15_dist_red/trial7.png,,,1,15,redHorizontal,p,Nathan Crush,20,male,2021-02-21_19h45.37.744,exp11,2020.2.6,Win32,60,IwAR2ROE_9iU5tOZlHgHT14sQTTjUFnzTcwF_sE5tC8QPUC4F-ZeIiKyrh7Uw,,,,,,,,,,,
,,,,,,,,,,,,,,a,0,0.53899,space,0.05279,0,67,67,50,1,9_dist_red/trial1.png,,,1,9,redHorizontal,p,Nathan Crush,20,male,2021-02-21_19h45.37.744,exp11,2020.2.6,Win32,60,IwAR2ROE_9iU5tOZlHgHT14sQTTjUFnzTcwF_sE5tC8QPUC4F-ZeIiKyrh7Uw,,,,,,,,,,,
,,,,,,,,,,,,,,p,1,0.623545,space,0.330755,0,68,68,55,1,9_dist_red/trial6.png,,,1,9,redHorizontal,p,Nathan Crush,20,male,2021-02-21_19h45.37.744,exp11,2020.2.6,Win32,60,IwAR2ROE_9iU5tOZlHgHT14sQTTjUFnzTcwF_sE5tC8QPUC4F-ZeIiKyrh7Uw,,,,,,,,,,,
,,,,,,,,,,,,,,a,1,0.571005,space,0.16782,0,69,69,104,1,0_targ_1_dist_red/trial5.png,,,0,1,redHorizontal,a,Nathan Crush,20,male,2021-02-21_19h45.37.744,exp11,2020.2.6,Win32,60,IwAR2ROE_9iU5tOZlHgHT14sQTTjUFnzTcwF_sE5tC8QPUC4F-ZeIiKyrh7Uw,,,,,,,,,,,
,,,,,,,,,,,,,,a,1,0.6559,space,0.17581,0,70,70,124,1,0_targ_1_dist_red/trial25.png,,,0,1,redHorizontal,a,Nathan Crush,20,male,2021-02-21_19h45.37.744,exp11,2020.2.6,Win32,60,IwAR2ROE_9iU5tOZlHgHT14sQTTjUFnzTcwF_sE5tC8QPUC4F-ZeIiKyrh7Uw,,,,,,,,,,,
,,,,,,,,,,,,,,p,1,0.490095,space,0.242455,0,71,71,77,1,15_dist_red/trial3.png,,,1,15,redHorizontal,p,Nathan Crush,20,male,2021-02-21_19h45.37.744,exp11,2020.2.6,Win32,60,IwAR2ROE_9iU5tOZlHgHT14sQTTjUFnzTcwF_sE5tC8QPUC4F-ZeIiKyrh7Uw,,,,,,,,,,,
,,,,,,,,,,,,,,a,1,0.599045,space,0.12207,0,72,72,109,1,0_targ_1_dist_red/trial10.png,,,0,1,redHorizontal,a,Nathan Crush,20,male,2021-02-21_19h45.37.744,exp11,2020.2.6,Win32,60,IwAR2ROE_9iU5tOZlHgHT14sQTTjUFnzTcwF_sE5tC8QPUC4F-ZeIiKyrh7Uw,,,,,,,,,,,
,,,,,,,,,,,,,,p,1,0.66861,space,0.23547,0,73,73,54,1,9_dist_red/trial5.png,,,1,9,redHorizontal,p,Nathan Crush,20,male,2021-02-21_19h45.37.744,exp11,2020.2.6,Win32,60,IwAR2ROE_9iU5tOZlHgHT14sQTTjUFnzTcwF_sE5tC8QPUC4F-ZeIiKyrh7Uw,,,,,,,,,,,
,,,,,,,,,,,,,,p,1,0.49851,space,0.20276,0,74,74,21,1,0_dist_red/trial22.png,,,1,0,redHorizontal,p,Nathan Crush,20,male,2021-02-21_19h45.37.744,exp11,2020.2.6,Win32,60,IwAR2ROE_9iU5tOZlHgHT14sQTTjUFnzTcwF_sE5tC8QPUC4F-ZeIiKyrh7Uw,,,,,,,,,,,
,,,,,,,,,,,,,,a,1,0.597425,space,0.122505,0,75,75,125,1,0_targ_4_dist_red/trial1.png,,,0,4,redHorizontal,a,Nathan Crush,20,male,2021-02-21_19h45.37.744,exp11,2020.2.6,Win32,60,IwAR2ROE_9iU5tOZlHgHT14sQTTjUFnzTcwF_sE5tC8QPUC4F-ZeIiKyrh7Uw,,,,,,,,,,,
,,,,,,,,,,,,,,p,1,0.388305,space,0.27454,0,76,76,7,1,0_dist_red/trial8.png,,,1,0,redHorizontal,p,Nathan Crush,20,male,2021-02-21_19h45.37.744,exp11,2020.2.6,Win32,60,IwAR2ROE_9iU5tOZlHgHT14sQTTjUFnzTcwF_sE5tC8QPUC4F-ZeIiKyrh7Uw,,,,,,,,,,,
,,,,,,,,,,,,,,a,1,0.64707,space,0.09387,0,77,77,197,1,0_targ_16_dist_red/trial23.png,,,0,16,redHorizontal,a,Nathan Crush,20,male,2021-02-21_19h45.37.744,exp11,2020.2.6,Win32,60,IwAR2ROE_9iU5tOZlHgHT14sQTTjUFnzTcwF_sE5tC8QPUC4F-ZeIiKyrh7Uw,,,,,,,,,,,
,,,,,,,,,,,,,,p,1,0.552955,space,0.267435,0,78,78,18,1,0_dist_red/trial19.png,,,1,0,redHorizontal,p,Nathan Crush,20,male,2021-02-21_19h45.37.744,exp11,2020.2.6,Win32,60,IwAR2ROE_9iU5tOZlHgHT14sQTTjUFnzTcwF_sE5tC8QPUC4F-ZeIiKyrh7Uw,,,,,,,,,,,
,,,,,,,,,,,,,,a,1,0.72142,space,0.0789,0,79,79,110,1,0_targ_1_dist_red/trial11.png,,,0,1,redHorizontal,a,Nathan Crush,20,male,2021-02-21_19h45.37.744,exp11,2020.2.6,Win32,60,IwAR2ROE_9iU5tOZlHgHT14sQTTjUFnzTcwF_sE5tC8QPUC4F-ZeIiKyrh7Uw,,,,,,,,,,,
,,,,,,,,,,,,,,p,1,0.56373,space,0.222765,0,80,80,78,1,15_dist_red/trial4.png,,,1,15,redHorizontal,p,Nathan Crush,20,male,2021-02-21_19h45.37.744,exp11,2020.2.6,Win32,60,IwAR2ROE_9iU5tOZlHgHT14sQTTjUFnzTcwF_sE5tC8QPUC4F-ZeIiKyrh7Uw,,,,,,,,,,,
,,,,,,,,,,,,,,a,1,0.4671,space,0.139425,0,81,81,111,1,0_targ_1_dist_red/trial12.png,,,0,1,redHorizontal,a,Nathan Crush,20,male,2021-02-21_19h45.37.744,exp11,2020.2.6,Win32,60,IwAR2ROE_9iU5tOZlHgHT14sQTTjUFnzTcwF_sE5tC8QPUC4F-ZeIiKyrh7Uw,,,,,,,,,,,
,,,,,,,,,,,,,,a,1,0.68624,space,0.14058,0,82,82,132,1,0_targ_4_dist_red/trial8.png,,,0,4,redHorizontal,a,Nathan Crush,20,male,2021-02-21_19h45.37.744,exp11,2020.2.6,Win32,60,IwAR2ROE_9iU5tOZlHgHT14sQTTjUFnzTcwF_sE5tC8QPUC4F-ZeIiKyrh7Uw,,,,,,,,,,,
,,,,,,,,,,,,,,a,1,2.207715,space,0.206025,0,83,83,198,1,0_targ_16_dist_red/trial24.png,,,0,16,redHorizontal,a,Nathan Crush,20,male,2021-02-21_19h45.37.744,exp11,2020.2.6,Win32,60,IwAR2ROE_9iU5tOZlHgHT14sQTTjUFnzTcwF_sE5tC8QPUC4F-ZeIiKyrh7Uw,,,,,,,,,,,
,,,,,,,,,,,,,,p,1,0.49374,space,0.26708,0,84,84,82,1,15_dist_red/trial8.png,,,1,15,redHorizontal,p,Nathan Crush,20,male,2021-02-21_19h45.37.744,exp11,2020.2.6,Win32,60,IwAR2ROE_9iU5tOZlHgHT14sQTTjUFnzTcwF_sE5tC8QPUC4F-ZeIiKyrh7Uw,,,,,,,,,,,
,,,,,,,,,,,,,,a,1,0.570025,space,0.184935,0,85,85,121,1,0_targ_1_dist_red/trial22.png,,,0,1,redHorizontal,a,Nathan Crush,20,male,2021-02-21_19h45.37.744,exp11,2020.2.6,Win32,60,IwAR2ROE_9iU5tOZlHgHT14sQTTjUFnzTcwF_sE5tC8QPUC4F-ZeIiKyrh7Uw,,,,,,,,,,,
,,,,,,,,,,,,,,p,1,0.61755,space,0.234685,0,86,86,19,1,0_dist_red/trial20.png,,,1,0,redHorizontal,p,Nathan Crush,20,male,2021-02-21_19h45.37.744,exp11,2020.2.6,Win32,60,IwAR2ROE_9iU5tOZlHgHT14sQTTjUFnzTcwF_sE5tC8QPUC4F-ZeIiKyrh7Uw,,,,,,,,,,,
,,,,,,,,,,,,,,p,1,0.67603,space,0.234555,0,87,87,53,1,9_dist_red/trial4.png,,,1,9,redHorizontal,p,Nathan Crush,20,male,2021-02-21_19h45.37.744,exp11,2020.2.6,Win32,60,IwAR2ROE_9iU5tOZlHgHT14sQTTjUFnzTcwF_sE5tC8QPUC4F-ZeIiKyrh7Uw,,,,,,,,,,,
,,,,,,,,,,,,,,a,1,0.49365,space,0.171075,0,88,88,102,1,0_targ_1_dist_red/trial3.png,,,0,1,redHorizontal,a,Nathan Crush,20,male,2021-02-21_19h45.37.744,exp11,2020.2.6,Win32,60,IwAR2ROE_9iU5tOZlHgHT14sQTTjUFnzTcwF_sE5tC8QPUC4F-ZeIiKyrh7Uw,,,,,,,,,,,
,,,,,,,,,,,,,,p,1,0.53362,space,0.191335,0,89,89,24,1,0_dist_red/trial25.png,,,1,0,redHorizontal,p,Nathan Crush,20,male,2021-02-21_19h45.37.744,exp11,2020.2.6,Win32,60,IwAR2ROE_9iU5tOZlHgHT14sQTTjUFnzTcwF_sE5tC8QPUC4F-ZeIiKyrh7Uw,,,,,,,,,,,
,,,,,,,,,,,,,,p,1,0.533495,space,0.173665,0,90,90,43,1,3_dist_red/trial19.png,,,1,3,redHorizontal,p,Nathan Crush,20,male,2021-02-21_19h45.37.744,exp11,2020.2.6,Win32,60,IwAR2ROE_9iU5tOZlHgHT14sQTTjUFnzTcwF_sE5tC8QPUC4F-ZeIiKyrh7Uw,,,,,,,,,,,
,,,,,,,,,,,,,,a,1,0.44684,space,0.13818,0,91,91,153,1,0_targ_10_dist_red/trial4.png,,,0,10,redHorizontal,a,Nathan Crush,20,male,2021-02-21_19h45.37.744,exp11,2020.2.6,Win32,60,IwAR2ROE_9iU5tOZlHgHT14sQTTjUFnzTcwF_sE5tC8QPUC4F-ZeIiKyrh7Uw,,,,,,,,,,,
,,,,,,,,,,,,,,p,1,0.64365,space,0.17132,0,92,92,35,1,3_dist_red/trial11.png,,,1,3,redHorizontal,p,Nathan Crush,20,male,2021-02-21_19h45.37.744,exp11,2020.2.6,Win32,60,IwAR2ROE_9iU5tOZlHgHT14sQTTjUFnzTcwF_sE5tC8QPUC4F-ZeIiKyrh7Uw,,,,,,,,,,,
,,,,,,,,,,,,,,p,1,0.619445,space,0.17269,0,93,93,12,1,0_dist_red/trial13.png,,,1,0,redHorizontal,p,Nathan Crush,20,male,2021-02-21_19h45.37.744,exp11,2020.2.6,Win32,60,IwAR2ROE_9iU5tOZlHgHT14sQTTjUFnzTcwF_sE5tC8QPUC4F-ZeIiKyrh7Uw,,,,,,,,,,,
,,,,,,,,,,,,,,a,1,0.51299,space,0.099305,0,94,94,167,1,0_targ_10_dist_red/trial18.png,,,0,10,redHorizontal,a,Nathan Crush,20,male,2021-02-21_19h45.37.744,exp11,2020.2.6,Win32,60,IwAR2ROE_9iU5tOZlHgHT14sQTTjUFnzTcwF_sE5tC8QPUC4F-ZeIiKyrh7Uw,,,,,,,,,,,
,,,,,,,,,,,,,,p,1,0.515545,space,0.168575,0,95,95,41,1,3_dist_red/trial17.png,,,1,3,redHorizontal,p,Nathan Crush,20,male,2021-02-21_19h45.37.744,exp11,2020.2.6,Win32,60,IwAR2ROE_9iU5tOZlHgHT14sQTTjUFnzTcwF_sE5tC8QPUC4F-ZeIiKyrh7Uw,,,,,,,,,,,
,,,,,,,,,,,,,,p,1,0.58744,space,0.19441,0,96,96,52,1,9_dist_red/trial3.png,,,1,9,redHorizontal,p,Nathan Crush,20,male,2021-02-21_19h45.37.744,exp11,2020.2.6,Win32,60,IwAR2ROE_9iU5tOZlHgHT14sQTTjUFnzTcwF_sE5tC8QPUC4F-ZeIiKyrh7Uw,,,,,,,,,,,
,,,,,,,,,,,,,,p,1,0.589035,space,0.201225,0,97,97,47,1,3_dist_red/trial23.png,,,1,3,redHorizontal,p,Nathan Crush,20,male,2021-02-21_19h45.37.744,exp11,2020.2.6,Win32,60,IwAR2ROE_9iU5tOZlHgHT14sQTTjUFnzTcwF_sE5tC8QPUC4F-ZeIiKyrh7Uw,,,,,,,,,,,
,,,,,,,,,,,,,,a,0,0.54281,space,0.453565,0,98,98,60,1,9_dist_red/trial11.png,,,1,9,redHorizontal,p,Nathan Crush,20,male,2021-02-21_19h45.37.744,exp11,2020.2.6,Win32,60,IwAR2ROE_9iU5tOZlHgHT14sQTTjUFnzTcwF_sE5tC8QPUC4F-ZeIiKyrh7Uw,,,,,,,,,,,
,,,,,,,,,,,,,,a,1,0.652105,space,0.10669,0,99,99,158,1,0_targ_10_dist_red/trial9.png,,,0,10,redHorizontal,a,Nathan Crush,20,male,2021-02-21_19h45.37.744,exp11,2020.2.6,Win32,60,IwAR2ROE_9iU5tOZlHgHT14sQTTjUFnzTcwF_sE5tC8QPUC4F-ZeIiKyrh7Uw,,,,,,,,,,,
,,,,,,,,,,,,,,p,1,0.619725,space,0.19298,0,100,100,85,1,15_dist_red/trial11.png,,,1,15,redHorizontal,p,Nathan Crush,20,male,2021-02-21_19h45.37.744,exp11,2020.2.6,Win32,60,IwAR2ROE_9iU5tOZlHgHT14sQTTjUFnzTcwF_sE5tC8QPUC4F-ZeIiKyrh7Uw,,,,,,,,,,,
,,,,,,,,,,,,,,p,1,0.51713,space,0.206395,0,101,101,62,1,9_dist_red/trial13.png,,,1,9,redHorizontal,p,Nathan Crush,20,male,2021-02-21_19h45.37.744,exp11,2020.2.6,Win32,60,IwAR2ROE_9iU5tOZlHgHT14sQTTjUFnzTcwF_sE5tC8QPUC4F-ZeIiKyrh7Uw,,,,,,,,,,,
,,,,,,,,,,,,,,a,1,0.580245,space,0.12381,0,102,102,144,1,0_targ_4_dist_red/trial20.png,,,0,4,redHorizontal,a,Nathan Crush,20,male,2021-02-21_19h45.37.744,exp11,2020.2.6,Win32,60,IwAR2ROE_9iU5tOZlHgHT14sQTTjUFnzTcwF_sE5tC8QPUC4F-ZeIiKyrh7Uw,,,,,,,,,,,
,,,,,,,,,,,,,,a,1,0.89947,space,0.539295,0,103,103,146,1,0_targ_4_dist_red/trial22.png,,,0,4,redHorizontal,a,Nathan Crush,20,male,2021-02-21_19h45.37.744,exp11,2020.2.6,Win32,60,IwAR2ROE_9iU5tOZlHgHT14sQTTjUFnzTcwF_sE5tC8QPUC4F-ZeIiKyrh7Uw,,,,,,,,,,,
,,,,,,,,,,,,,,a,1,1.3033,space,0.15733,0,104,104,151,1,0_targ_10_dist_red/trial2.png,,,0,10,redHorizontal,a,Nathan Crush,20,male,2021-02-21_19h45.37.744,exp11,2020.2.6,Win32,60,IwAR2ROE_9iU5tOZlHgHT14sQTTjUFnzTcwF_sE5tC8QPUC4F-ZeIiKyrh7Uw,,,,,,,,,,,
,,,,,,,,,,,,,,a,1,0.8381,space,0.48679,0,105,105,143,1,0_targ_4_dist_red/trial19.png,,,0,4,redHorizontal,a,Nathan Crush,20,male,2021-02-21_19h45.37.744,exp11,2020.2.6,Win32,60,IwAR2ROE_9iU5tOZlHgHT14sQTTjUFnzTcwF_sE5tC8QPUC4F-ZeIiKyrh7Uw,,,,,,,,,,,
,,,,,,,,,,,,,,p,1,0.60998,space,0.272535,0,106,106,64,1,9_dist_red/trial15.png,,,1,9,redHorizontal,p,Nathan Crush,20,male,2021-02-21_19h45.37.744,exp11,2020.2.6,Win32,60,IwAR2ROE_9iU5tOZlHgHT14sQTTjUFnzTcwF_sE5tC8QPUC4F-ZeIiKyrh7Uw,,,,,,,,,,,
,,,,,,,,,,,,,,a,1,0.52618,space,0.13476,0,107,107,107,1,0_targ_1_dist_red/trial8.png,,,0,1,redHorizontal,a,Nathan Crush,20,male,2021-02-21_19h45.37.744,exp11,2020.2.6,Win32,60,IwAR2ROE_9iU5tOZlHgHT14sQTTjUFnzTcwF_sE5tC8QPUC4F-ZeIiKyrh7Uw,,,,,,,,,,,
,,,,,,,,,,,,,,a,1,0.613815,space,0.151115,0,108,108,101,1,0_targ_1_dist_red/trial2.png,,,0,1,redHorizontal,a,Nathan Crush,20,male,2021-02-21_19h45.37.744,exp11,2020.2.6,Win32,60,IwAR2ROE_9iU5tOZlHgHT14sQTTjUFnzTcwF_sE5tC8QPUC4F-ZeIiKyrh7Uw,,,,,,,,,,,
,,,,,,,,,,,,,,a,1,0.61442,space,0.159685,0,109,109,122,1,0_targ_1_dist_red/trial23.png,,,0,1,redHorizontal,a,Nathan Crush,20,male,2021-02-21_19h45.37.744,exp11,2020.2.6,Win32,60,IwAR2ROE_9iU5tOZlHgHT14sQTTjUFnzTcwF_sE5tC8QPUC4F-ZeIiKyrh7Uw,,,,,,,,,,,
,,,,,,,,,,,,,,a,1,0.73666,space,0.13773,0,110,110,195,1,0_targ_16_dist_red/trial21.png,,,0,16,redHorizontal,a,Nathan Crush,20,male,2021-02-21_19h45.37.744,exp11,2020.2.6,Win32,60,IwAR2ROE_9iU5tOZlHgHT14sQTTjUFnzTcwF_sE5tC8QPUC4F-ZeIiKyrh7Uw,,,,,,,,,,,
,,,,,,,,,,,,,,p,1,0.708355,space,0.21715,0,111,111,51,1,9_dist_red/trial2.png,,,1,9,redHorizontal,p,Nathan Crush,20,male,2021-02-21_19h45.37.744,exp11,2020.2.6,Win32,60,IwAR2ROE_9iU5tOZlHgHT14sQTTjUFnzTcwF_sE5tC8QPUC4F-ZeIiKyrh7Uw,,,,,,,,,,,
,,,,,,,,,,,,,,a,1,0.688035,space,0.166665,0,112,112,155,1,0_targ_10_dist_red/trial6.png,,,0,10,redHorizontal,a,Nathan Crush,20,male,2021-02-21_19h45.37.744,exp11,2020.2.6,Win32,60,IwAR2ROE_9iU5tOZlHgHT14sQTTjUFnzTcwF_sE5tC8QPUC4F-ZeIiKyrh7Uw,,,,,,,,,,,
,,,,,,,,,,,,,,p,1,0.501915,space,0.219225,0,113,113,17,1,0_dist_red/trial18.png,,,1,0,redHorizontal,p,Nathan Crush,20,male,2021-02-21_19h45.37.744,exp11,2020.2.6,Win32,60,IwAR2ROE_9iU5tOZlHgHT14sQTTjUFnzTcwF_sE5tC8QPUC4F-ZeIiKyrh7Uw,,,,,,,,,,,
,,,,,,,,,,,,,,a,0,0.49552,space,0.4208,0,114,114,63,1,9_dist_red/trial14.png,,,1,9,redHorizontal,p,Nathan Crush,20,male,2021-02-21_19h45.37.744,exp11,2020.2.6,Win32,60,IwAR2ROE_9iU5tOZlHgHT14sQTTjUFnzTcwF_sE5tC8QPUC4F-ZeIiKyrh7Uw,,,,,,,,,,,
,,,,,,,,,,,,,,a,1,1.0566,space,0.151025,0,115,115,112,1,0_targ_1_dist_red/trial13.png,,,0,1,redHorizontal,a,Nathan Crush,20,male,2021-02-21_19h45.37.744,exp11,2020.2.6,Win32,60,IwAR2ROE_9iU5tOZlHgHT14sQTTjUFnzTcwF_sE5tC8QPUC4F-ZeIiKyrh7Uw,,,,,,,,,,,
,,,,,,,,,,,,,,p,1,0.490875,space,0.28471,0,116,116,31,1,3_dist_red/trial7.png,,,1,3,redHorizontal,p,Nathan Crush,20,male,2021-02-21_19h45.37.744,exp11,2020.2.6,Win32,60,IwAR2ROE_9iU5tOZlHgHT14sQTTjUFnzTcwF_sE5tC8QPUC4F-ZeIiKyrh7Uw,,,,,,,,,,,
,,,,,,,,,,,,,,p,1,0.52678,space,0.21712,0,117,117,68,1,9_dist_red/trial19.png,,,1,9,redHorizontal,p,Nathan Crush,20,male,2021-02-21_19h45.37.744,exp11,2020.2.6,Win32,60,IwAR2ROE_9iU5tOZlHgHT14sQTTjUFnzTcwF_sE5tC8QPUC4F-ZeIiKyrh7Uw,,,,,,,,,,,
,,,,,,,,,,,,,,a,1,0.7492,space,0.1861,0,118,118,193,1,0_targ_16_dist_red/trial19.png,,,0,16,redHorizontal,a,Nathan Crush,20,male,2021-02-21_19h45.37.744,exp11,2020.2.6,Win32,60,IwAR2ROE_9iU5tOZlHgHT14sQTTjUFnzTcwF_sE5tC8QPUC4F-ZeIiKyrh7Uw,,,,,,,,,,,
,,,,,,,,,,,,,,a,1,0.80808,space,0.206045,0,119,119,176,1,0_targ_16_dist_red/trial2.png,,,0,16,redHorizontal,a,Nathan Crush,20,male,2021-02-21_19h45.37.744,exp11,2020.2.6,Win32,60,IwAR2ROE_9iU5tOZlHgHT14sQTTjUFnzTcwF_sE5tC8QPUC4F-ZeIiKyrh7Uw,,,,,,,,,,,
,,,,,,,,,,,,,,p,1,0.718485,space,0.22511,0,120,120,90,1,15_dist_red/trial16.png,,,1,15,redHorizontal,p,Nathan Crush,20,male,2021-02-21_19h45.37.744,exp11,2020.2.6,Win32,60,IwAR2ROE_9iU5tOZlHgHT14sQTTjUFnzTcwF_sE5tC8QPUC4F-ZeIiKyrh7Uw,,,,,,,,,,,
,,,,,,,,,,,,,,a,1,0.84198,space,0.11906,0,121,121,147,1,0_targ_4_dist_red/trial23.png,,,0,4,redHorizontal,a,Nathan Crush,20,male,2021-02-21_19h45.37.744,exp11,2020.2.6,Win32,60,IwAR2ROE_9iU5tOZlHgHT14sQTTjUFnzTcwF_sE5tC8QPUC4F-ZeIiKyrh7Uw,,,,,,,,,,,
,,,,,,,,,,,,,,p,1,0.52565,space,0.228245,0,122,122,14,1,0_dist_red/trial15.png,,,1,0,redHorizontal,p,Nathan Crush,20,male,2021-02-21_19h45.37.744,exp11,2020.2.6,Win32,60,IwAR2ROE_9iU5tOZlHgHT14sQTTjUFnzTcwF_sE5tC8QPUC4F-ZeIiKyrh7Uw,,,,,,,,,,,
,,,,,,,,,,,,,,a,1,0.514025,space,0.123905,0,123,123,149,1,0_targ_4_dist_red/trial25.png,,,0,4,redHorizontal,a,Nathan Crush,20,male,2021-02-21_19h45.37.744,exp11,2020.2.6,Win32,60,IwAR2ROE_9iU5tOZlHgHT14sQTTjUFnzTcwF_sE5tC8QPUC4F-ZeIiKyrh7Uw,,,,,,,,,,,
,,,,,,,,,,,,,,a,1,1.06876,space,0.142765,0,124,124,183,1,0_targ_16_dist_red/trial9.png,,,0,16,redHorizontal,a,Nathan Crush,20,male,2021-02-21_19h45.37.744,exp11,2020.2.6,Win32,60,IwAR2ROE_9iU5tOZlHgHT14sQTTjUFnzTcwF_sE5tC8QPUC4F-ZeIiKyrh7Uw,,,,,,,,,,,
,,,,,,,,,,,,,,a,1,0.62749,space,0.17396,0,125,125,117,1,0_targ_1_dist_red/trial18.png,,,0,1,redHorizontal,a,Nathan Crush,20,male,2021-02-21_19h45.37.744,exp11,2020.2.6,Win32,60,IwAR2ROE_9iU5tOZlHgHT14sQTTjUFnzTcwF_sE5tC8QPUC4F-ZeIiKyrh7Uw,,,,,,,,,,,
,,,,,,,,,,,,,,p,1,0.66244,space,0.20343,0,126,126,96,1,15_dist_red/trial22.png,,,1,15,redHorizontal,p,Nathan Crush,20,male,2021-02-21_19h45.37.744,exp11,2020.2.6,Win32,60,IwAR2ROE_9iU5tOZlHgHT14sQTTjUFnzTcwF_sE5tC8QPUC4F-ZeIiKyrh7Uw,,,,,,,,,,,
,,,,,,,,,,,,,,a,1,0.57347,space,0.161405,0,127,127,126,1,0_targ_4_dist_red/trial2.png,,,0,4,redHorizontal,a,Nathan Crush,20,male,2021-02-21_19h45.37.744,exp11,2020.2.6,Win32,60,IwAR2ROE_9iU5tOZlHgHT14sQTTjUFnzTcwF_sE5tC8QPUC4F-ZeIiKyrh7Uw,,,,,,,,,,,
,,,,,,,,,,,,,,a,1,0.640545,space,0.218795,0,128,128,108,1,0_targ_1_dist_red/trial9.png,,,0,1,redHorizontal,a,Nathan Crush,20,male,2021-02-21_19h45.37.744,exp11,2020.2.6,Win32,60,IwAR2ROE_9iU5tOZlHgHT14sQTTjUFnzTcwF_sE5tC8QPUC4F-ZeIiKyrh7Uw,,,,,,,,,,,
,,,,,,,,,,,,,,p,1,0.618265,space,0.23387,0,129,129,99,1,15_dist_red/trial25.png,,,1,15,redHorizontal,p,Nathan Crush,20,male,2021-02-21_19h45.37.744,exp11,2020.2.6,Win32,60,IwAR2ROE_9iU5tOZlHgHT14sQTTjUFnzTcwF_sE5tC8QPUC4F-ZeIiKyrh7Uw,,,,,,,,,,,
,,,,,,,,,,,,,,p,1,0.614795,space,0.210085,0,130,130,33,1,3_dist_red/trial9.png,,,1,3,redHorizontal,p,Nathan Crush,20,male,2021-02-21_19h45.37.744,exp11,2020.2.6,Win32,60,IwAR2ROE_9iU5tOZlHgHT14sQTTjUFnzTcwF_sE5tC8QPUC4F-ZeIiKyrh7Uw,,,,,,,,,,,
,,,,,,,,,,,,,,a,1,0.876635,space,0.13361,0,131,131,187,1,0_targ_16_dist_red/trial13.png,,,0,16,redHorizontal,a,Nathan Crush,20,male,2021-02-21_19h45.37.744,exp11,2020.2.6,Win32,60,IwAR2ROE_9iU5tOZlHgHT14sQTTjUFnzTcwF_sE5tC8QPUC4F-ZeIiKyrh7Uw,,,,,,,,,,,
,,,,,,,,,,,,,,a,1,1.71085,space,0.52164,0,132,132,165,1,0_targ_10_dist_red/trial16.png,,,0,10,redHorizontal,a,Nathan Crush,20,male,2021-02-21_19h45.37.744,exp11,2020.2.6,Win32,60,IwAR2ROE_9iU5tOZlHgHT14sQTTjUFnzTcwF_sE5tC8QPUC4F-ZeIiKyrh7Uw,,,,,,,,,,,
,,,,,,,,,,,,,,p,1,0.60257,space,0.248425,0,133,133,91,1,15_dist_red/trial17.png,,,1,15,redHorizontal,p,Nathan Crush,20,male,2021-02-21_19h45.37.744,exp11,2020.2.6,Win32,60,IwAR2ROE_9iU5tOZlHgHT14sQTTjUFnzTcwF_sE5tC8QPUC4F-ZeIiKyrh7Uw,,,,,,,,,,,
,,,,,,,,,,,,,,a,1,0.92777,space,0.17392,0,134,134,140,1,0_targ_4_dist_red/trial6.png,,,0,4,redHorizontal,a,Nathan Crush,20,male,2021-02-21_19h45.37.744,exp11,2020.2.6,Win32,60,IwAR2ROE_9iU5tOZlHgHT14sQTTjUFnzTcwF_sE5tC8QPUC4F-ZeIiKyrh7Uw,,,,,,,,,,,
,,,,,,,,,,,,,,p,1,0.50788,space,0.208375,0,135,135,48,1,3_dist_red/trial24.png,,,1,3,redHorizontal,p,Nathan Crush,20,male,2021-02-21_19h45.37.744,exp11,2020.2.6,Win32,60,IwAR2ROE_9iU5tOZlHgHT14sQTTjUFnzTcwF_sE5tC8QPUC4F-ZeIiKyrh7Uw,,,,,,,,,,,
,,,,,,,,,,,,,,p,1,0.75265,space,0.23369,0,136,136,0,1,0_dist_red/trial1.png,,,1,0,redHorizontal,p,Nathan Crush,20,male,2021-02-21_19h45.37.744,exp11,2020.2.6,Win32,60,IwAR2ROE_9iU5tOZlHgHT14sQTTjUFnzTcwF_sE5tC8QPUC4F-ZeIiKyrh7Uw,,,,,,,,,,,
,,,,,,,,,,,,,,a,1,0.65471,space,0.107945,0,137,137,161,1,0_targ_10_dist_red/trial12.png,,,0,10,redHorizontal,a,Nathan Crush,20,male,2021-02-21_19h45.37.744,exp11,2020.2.6,Win32,60,IwAR2ROE_9iU5tOZlHgHT14sQTTjUFnzTcwF_sE5tC8QPUC4F-ZeIiKyrh7Uw,,,,,,,,,,,
,,,,,,,,,,,,,,p,0,0.61666,space,0.28247,0,138,138,186,1,0_targ_16_dist_red/trial12.png,,,0,16,redHorizontal,a,Nathan Crush,20,male,2021-02-21_19h45.37.744,exp11,2020.2.6,Win32,60,IwAR2ROE_9iU5tOZlHgHT14sQTTjUFnzTcwF_sE5tC8QPUC4F-ZeIiKyrh7Uw,,,,,,,,,,,
,,,,,,,,,,,,,,a,1,0.60762,space,0.14663,0,139,139,192,1,0_targ_16_dist_red/trial18.png,,,0,16,redHorizontal,a,Nathan Crush,20,male,2021-02-21_19h45.37.744,exp11,2020.2.6,Win32,60,IwAR2ROE_9iU5tOZlHgHT14sQTTjUFnzTcwF_sE5tC8QPUC4F-ZeIiKyrh7Uw,,,,,,,,,,,
,,,,,,,,,,,,,,p,1,0.48358,space,0.21999,0,140,140,15,1,0_dist_red/trial16.png,,,1,0,redHorizontal,p,Nathan Crush,20,male,2021-02-21_19h45.37.744,exp11,2020.2.6,Win32,60,IwAR2ROE_9iU5tOZlHgHT14sQTTjUFnzTcwF_sE5tC8QPUC4F-ZeIiKyrh7Uw,,,,,,,,,,,
,,,,,,,,,,,,,,p,0,0.549095,space,0.120845,0,141,141,174,1,0_targ_10_dist_red/trial25.png,,,0,10,redHorizontal,a,Nathan Crush,20,male,2021-02-21_19h45.37.744,exp11,2020.2.6,Win32,60,IwAR2ROE_9iU5tOZlHgHT14sQTTjUFnzTcwF_sE5tC8QPUC4F-ZeIiKyrh7Uw,,,,,,,,,,,
,,,,,,,,,,,,,,a,1,0.63996,space,0.412465,0,142,142,196,1,0_targ_16_dist_red/trial22.png,,,0,16,redHorizontal,a,Nathan Crush,20,male,2021-02-21_19h45.37.744,exp11,2020.2.6,Win32,60,IwAR2ROE_9iU5tOZlHgHT14sQTTjUFnzTcwF_sE5tC8QPUC4F-ZeIiKyrh7Uw,,,,,,,,,,,
,,,,,,,,,,,,,,a,1,0.610765,space,0.10729,0,143,143,154,1,0_targ_10_dist_red/trial5.png,,,0,10,redHorizontal,a,Nathan Crush,20,male,2021-02-21_19h45.37.744,exp11,2020.2.6,Win32,60,IwAR2ROE_9iU5tOZlHgHT14sQTTjUFnzTcwF_sE5tC8QPUC4F-ZeIiKyrh7Uw,,,,,,,,,,,
,,,,,,,,,,,,,,p,1,0.678875,space,0.206905,0,144,144,65,1,9_dist_red/trial16.png,,,1,9,redHorizontal,p,Nathan Crush,20,male,2021-02-21_19h45.37.744,exp11,2020.2.6,Win32,60,IwAR2ROE_9iU5tOZlHgHT14sQTTjUFnzTcwF_sE5tC8QPUC4F-ZeIiKyrh7Uw,,,,,,,,,,,
,,,,,,,,,,,,,,p,1,0.615395,space,0.21733,0,145,145,45,1,3_dist_red/trial21.png,,,1,3,redHorizontal,p,Nathan Crush,20,male,2021-02-21_19h45.37.744,exp11,2020.2.6,Win32,60,IwAR2ROE_9iU5tOZlHgHT14sQTTjUFnzTcwF_sE5tC8QPUC4F-ZeIiKyrh7Uw,,,,,,,,,,,
,,,,,,,,,,,,,,p,1,0.585595,space,0.21032,0,146,146,25,1,3_dist_red/trial1.png,,,1,3,redHorizontal,p,Nathan Crush,20,male,2021-02-21_19h45.37.744,exp11,2020.2.6,Win32,60,IwAR2ROE_9iU5tOZlHgHT14sQTTjUFnzTcwF_sE5tC8QPUC4F-ZeIiKyrh7Uw,,,,,,,,,,,
,,,,,,,,,,,,,,p,1,0.516475,space,0.201105,0,147,147,11,1,0_dist_red/trial12.png,,,1,0,redHorizontal,p,Nathan Crush,20,male,2021-02-21_19h45.37.744,exp11,2020.2.6,Win32,60,IwAR2ROE_9iU5tOZlHgHT14sQTTjUFnzTcwF_sE5tC8QPUC4F-ZeIiKyrh7Uw,,,,,,,,,,,
,,,,,,,,,,,,,,a,1,0.6566,space,0.20865,0,148,148,169,1,0_targ_10_dist_red/trial20.png,,,0,10,redHorizontal,a,Nathan Crush,20,male,2021-02-21_19h45.37.744,exp11,2020.2.6,Win32,60,IwAR2ROE_9iU5tOZlHgHT14sQTTjUFnzTcwF_sE5tC8QPUC4F-ZeIiKyrh7Uw,,,,,,,,,,,
,,,,,,,,,,,,,,a,1,0.628705,space,0.25723,0,149,149,142,1,0_targ_4_dist_red/trial18.png,,,0,4,redHorizontal,a,Nathan Crush,20,male,2021-02-21_19h45.37.744,exp11,2020.2.6,Win32,60,IwAR2ROE_9iU5tOZlHgHT14sQTTjUFnzTcwF_sE5tC8QPUC4F-ZeIiKyrh7Uw,,,,,,,,,,,
,,,,,,,,,,,,,,a,1,0.54531,space,0.20631,0,150,150,100,1,0_targ_1_dist_red/trial1.png,,,0,1,redHorizontal,a,Nathan Crush,20,male,2021-02-21_19h45.37.744,exp11,2020.2.6,Win32,60,IwAR2ROE_9iU5tOZlHgHT14sQTTjUFnzTcwF_sE5tC8QPUC4F-ZeIiKyrh7Uw,,,,,,,,,,,
,,,,,,,,,,,,,,p,1,0.85769,space,0.223705,0,151,151,84,1,15_dist_red/trial10.png,,,1,15,redHorizontal,p,Nathan Crush,20,male,2021-02-21_19h45.37.744,exp11,2020.2.6,Win32,60,IwAR2ROE_9iU5tOZlHgHT14sQTTjUFnzTcwF_sE5tC8QPUC4F-ZeIiKyrh7Uw,,,,,,,,,,,
,,,,,,,,,,,,,,a,1,0.836865,space,0.16818,0,152,152,177,1,0_targ_16_dist_red/trial3.png,,,0,16,redHorizontal,a,Nathan Crush,20,male,2021-02-21_19h45.37.744,exp11,2020.2.6,Win32,60,IwAR2ROE_9iU5tOZlHgHT14sQTTjUFnzTcwF_sE5tC8QPUC4F-ZeIiKyrh7Uw,,,,,,,,,,,
,,,,,,,,,,,,,,a,1,0.67832,space,0.13663,0,153,153,133,1,0_targ_4_dist_red/trial9.png,,,0,4,redHorizontal,a,Nathan Crush,20,male,2021-02-21_19h45.37.744,exp11,2020.2.6,Win32,60,IwAR2ROE_9iU5tOZlHgHT14sQTTjUFnzTcwF_sE5tC8QPUC4F-ZeIiKyrh7Uw,,,,,,,,,,,
,,,,,,,,,,,,,,a,0,1.05631,space,0.23826,0,154,154,80,1,15_dist_red/trial6.png,,,1,15,redHorizontal,p,Nathan Crush,20,male,2021-02-21_19h45.37.744,exp11,2020.2.6,Win32,60,IwAR2ROE_9iU5tOZlHgHT14sQTTjUFnzTcwF_sE5tC8QPUC4F-ZeIiKyrh7Uw,,,,,,,,,,,
,,,,,,,,,,,,,,p,1,0.84475,space,0.200625,0,155,155,2,1,0_dist_red/trial3.png,,,1,0,redHorizontal,p,Nathan Crush,20,male,2021-02-21_19h45.37.744,exp11,2020.2.6,Win32,60,IwAR2ROE_9iU5tOZlHgHT14sQTTjUFnzTcwF_sE5tC8QPUC4F-ZeIiKyrh7Uw,,,,,,,,,,,
,,,,,,,,,,,,,,a,1,0.63301,space,0.14174,0,156,156,128,1,0_targ_4_dist_red/trial4.png,,,0,4,redHorizontal,a,Nathan Crush,20,male,2021-02-21_19h45.37.744,exp11,2020.2.6,Win32,60,IwAR2ROE_9iU5tOZlHgHT14sQTTjUFnzTcwF_sE5tC8QPUC4F-ZeIiKyrh7Uw,,,,,,,,,,,
,,,,,,,,,,,,,,a,1,0.802105,space,0.22384,0,157,157,116,1,0_targ_1_dist_red/trial17.png,,,0,1,redHorizontal,a,Nathan Crush,20,male,2021-02-21_19h45.37.744,exp11,2020.2.6,Win32,60,IwAR2ROE_9iU5tOZlHgHT14sQTTjUFnzTcwF_sE5tC8QPUC4F-ZeIiKyrh7Uw,,,,,,,,,,,
,,,,,,,,,,,,,,p,1,0.59627,space,0.268755,0,158,158,22,1,0_dist_red/trial23.png,,,1,0,redHorizontal,p,Nathan Crush,20,male,2021-02-21_19h45.37.744,exp11,2020.2.6,Win32,60,IwAR2ROE_9iU5tOZlHgHT14sQTTjUFnzTcwF_sE5tC8QPUC4F-ZeIiKyrh7Uw,,,,,,,,,,,
,,,,,,,,,,,,,,p,1,0.577125,space,0.21019,0,159,159,87,1,15_dist_red/trial13.png,,,1,15,redHorizontal,p,Nathan Crush,20,male,2021-02-21_19h45.37.744,exp11,2020.2.6,Win32,60,IwAR2ROE_9iU5tOZlHgHT14sQTTjUFnzTcwF_sE5tC8QPUC4F-ZeIiKyrh7Uw,,,,,,,,,,,
,,,,,,,,,,,,,,p,1,0.664995,space,0.16919,0,160,160,57,1,9_dist_red/trial8.png,,,1,9,redHorizontal,p,Nathan Crush,20,male,2021-02-21_19h45.37.744,exp11,2020.2.6,Win32,60,IwAR2ROE_9iU5tOZlHgHT14sQTTjUFnzTcwF_sE5tC8QPUC4F-ZeIiKyrh7Uw,,,,,,,,,,,
,,,,,,,,,,,,,,a,1,0.719325,space,0.20336,0,161,161,129,1,0_targ_4_dist_red/trial5.png,,,0,4,redHorizontal,a,Nathan Crush,20,male,2021-02-21_19h45.37.744,exp11,2020.2.6,Win32,60,IwAR2ROE_9iU5tOZlHgHT14sQTTjUFnzTcwF_sE5tC8QPUC4F-ZeIiKyrh7Uw,,,,,,,,,,,
,,,,,,,,,,,,,,a,1,0.85825,space,0.15007,0,162,162,184,1,0_targ_16_dist_red/trial10.png,,,0,16,redHorizontal,a,Nathan Crush,20,male,2021-02-21_19h45.37.744,exp11,2020.2.6,Win32,60,IwAR2ROE_9iU5tOZlHgHT14sQTTjUFnzTcwF_sE5tC8QPUC4F-ZeIiKyrh7Uw,,,,,,,,,,,
,,,,,,,,,,,,,,a,1,0.84404,space,0.15399,0,163,163,141,1,0_targ_4_dist_red/trial17.png,,,0,4,redHorizontal,a,Nathan Crush,20,male,2021-02-21_19h45.37.744,exp11,2020.2.6,Win32,60,IwAR2ROE_9iU5tOZlHgHT14sQTTjUFnzTcwF_sE5tC8QPUC4F-ZeIiKyrh7Uw,,,,,,,,,,,
,,,,,,,,,,,,,,a,1,0.59922,space,0.146825,0,164,164,173,1,0_targ_10_dist_red/trial24.png,,,0,10,redHorizontal,a,Nathan Crush,20,male,2021-02-21_19h45.37.744,exp11,2020.2.6,Win32,60,IwAR2ROE_9iU5tOZlHgHT14sQTTjUFnzTcwF_sE5tC8QPUC4F-ZeIiKyrh7Uw,,,,,,,,,,,
,,,,,,,,,,,,,,p,1,0.550175,space,0.21734,0,165,165,32,1,3_dist_red/trial8.png,,,1,3,redHorizontal,p,Nathan Crush,20,male,2021-02-21_19h45.37.744,exp11,2020.2.6,Win32,60,IwAR2ROE_9iU5tOZlHgHT14sQTTjUFnzTcwF_sE5tC8QPUC4F-ZeIiKyrh7Uw,,,,,,,,,,,
,,,,,,,,,,,,,,p,1,0.908015,space,0.17129,0,166,166,23,1,0_dist_red/trial24.png,,,1,0,redHorizontal,p,Nathan Crush,20,male,2021-02-21_19h45.37.744,exp11,2020.2.6,Win32,60,IwAR2ROE_9iU5tOZlHgHT14sQTTjUFnzTcwF_sE5tC8QPUC4F-ZeIiKyrh7Uw,,,,,,,,,,,
,,,,,,,,,,,,,,p,1,0.523485,space,0.225335,0,167,167,10,1,0_dist_red/trial11.png,,,1,0,redHorizontal,p,Nathan Crush,20,male,2021-02-21_19h45.37.744,exp11,2020.2.6,Win32,60,IwAR2ROE_9iU5tOZlHgHT14sQTTjUFnzTcwF_sE5tC8QPUC4F-ZeIiKyrh7Uw,,,,,,,,,,,
,,,,,,,,,,,,,,p,1,0.777895,space,0.206795,0,168,168,74,1,9_dist_red/trial25.png,,,1,9,redHorizontal,p,Nathan Crush,20,male,2021-02-21_19h45.37.744,exp11,2020.2.6,Win32,60,IwAR2ROE_9iU5tOZlHgHT14sQTTjUFnzTcwF_sE5tC8QPUC4F-ZeIiKyrh7Uw,,,,,,,,,,,
,,,,,,,,,,,,,,p,1,0.473045,space,0.21023,0,169,169,42,1,3_dist_red/trial18.png,,,1,3,redHorizontal,p,Nathan Crush,20,male,2021-02-21_19h45.37.744,exp11,2020.2.6,Win32,60,IwAR2ROE_9iU5tOZlHgHT14sQTTjUFnzTcwF_sE5tC8QPUC4F-ZeIiKyrh7Uw,,,,,,,,,,,
,,,,,,,,,,,,,,a,1,0.599035,space,0.154035,0,170,170,162,1,0_targ_10_dist_red/trial13.png,,,0,10,redHorizontal,a,Nathan Crush,20,male,2021-02-21_19h45.37.744,exp11,2020.2.6,Win32,60,IwAR2ROE_9iU5tOZlHgHT14sQTTjUFnzTcwF_sE5tC8QPUC4F-ZeIiKyrh7Uw,,,,,,,,,,,
,,,,,,,,,,,,,,p,1,0.58753,space,0.191285,0,171,171,72,1,9_dist_red/trial23.png,,,1,9,redHorizontal,p,Nathan Crush,20,male,2021-02-21_19h45.37.744,exp11,2020.2.6,Win32,60,IwAR2ROE_9iU5tOZlHgHT14sQTTjUFnzTcwF_sE5tC8QPUC4F-ZeIiKyrh7Uw,,,,,,,,,,,
,,,,,,,,,,,,,,p,1,0.622595,space,0.15666,0,172,172,20,1,0_dist_red/trial21.png,,,1,0,redHorizontal,p,Nathan Crush,20,male,2021-02-21_19h45.37.744,exp11,2020.2.6,Win32,60,IwAR2ROE_9iU5tOZlHgHT14sQTTjUFnzTcwF_sE5tC8QPUC4F-ZeIiKyrh7Uw,,,,,,,,,,,
,,,,,,,,,,,,,,a,1,0.887815,space,0.25988,0,173,173,157,1,0_targ_10_dist_red/trial8.png,,,0,10,redHorizontal,a,Nathan Crush,20,male,2021-02-21_19h45.37.744,exp11,2020.2.6,Win32,60,IwAR2ROE_9iU5tOZlHgHT14sQTTjUFnzTcwF_sE5tC8QPUC4F-ZeIiKyrh7Uw,,,,,,,,,,,
,,,,,,,,,,,,,,p,1,0.68934,space,0.20234,0,174,174,76,1,15_dist_red/trial2.png,,,1,15,redHorizontal,p,Nathan Crush,20,male,2021-02-21_19h45.37.744,exp11,2020.2.6,Win32,60,IwAR2ROE_9iU5tOZlHgHT14sQTTjUFnzTcwF_sE5tC8QPUC4F-ZeIiKyrh7Uw,,,,,,,,,,,
,,,,,,,,,,,,,,a,1,0.744015,space,0.167805,0,175,175,170,1,0_targ_10_dist_red/trial21.png,,,0,10,redHorizontal,a,Nathan Crush,20,male,2021-02-21_19h45.37.744,exp11,2020.2.6,Win32,60,IwAR2ROE_9iU5tOZlHgHT14sQTTjUFnzTcwF_sE5tC8QPUC4F-ZeIiKyrh7Uw,,,,,,,,,,,
,,,,,,,,,,,,,,a,1,0.749495,space,0.720085,0,176,176,160,1,0_targ_10_dist_red/trial11.png,,,0,10,redHorizontal,a,Nathan Crush,20,male,2021-02-21_19h45.37.744,exp11,2020.2.6,Win32,60,IwAR2ROE_9iU5tOZlHgHT14sQTTjUFnzTcwF_sE5tC8QPUC4F-ZeIiKyrh7Uw,,,,,,,,,,,
,,,,,,,,,,,,,,a,1,0.726925,space,0.1991,0,177,177,114,1,0_targ_1_dist_red/trial15.png,,,0,1,redHorizontal,a,Nathan Crush,20,male,2021-02-21_19h45.37.744,exp11,2020.2.6,Win32,60,IwAR2ROE_9iU5tOZlHgHT14sQTTjUFnzTcwF_sE5tC8QPUC4F-ZeIiKyrh7Uw,,,,,,,,,,,
,,,,,,,,,,,,,,a,1,0.552905,space,0.35691,0,178,178,118,1,0_targ_1_dist_red/trial19.png,,,0,1,redHorizontal,a,Nathan Crush,20,male,2021-02-21_19h45.37.744,exp11,2020.2.6,Win32,60,IwAR2ROE_9iU5tOZlHgHT14sQTTjUFnzTcwF_sE5tC8QPUC4F-ZeIiKyrh7Uw,,,,,,,,,,,
,,,,,,,,,,,,,,p,1,0.530525,space,0.2261,0,179,179,26,1,3_dist_red/trial2.png,,,1,3,redHorizontal,p,Nathan Crush,20,male,2021-02-21_19h45.37.744,exp11,2020.2.6,Win32,60,IwAR2ROE_9iU5tOZlHgHT14sQTTjUFnzTcwF_sE5tC8QPUC4F-ZeIiKyrh7Uw,,,,,,,,,,,
,,,,,,,,,,,,,,p,1,0.586725,space,0.204475,0,180,180,71,1,9_dist_red/trial22.png,,,1,9,redHorizontal,p,Nathan Crush,20,male,2021-02-21_19h45.37.744,exp11,2020.2.6,Win32,60,IwAR2ROE_9iU5tOZlHgHT14sQTTjUFnzTcwF_sE5tC8QPUC4F-ZeIiKyrh7Uw,,,,,,,,,,,
,,,,,,,,,,,,,,a,1,0.77828,space,0.171025,0,181,181,191,1,0_targ_16_dist_red/trial17.png,,,0,16,redHorizontal,a,Nathan Crush,20,male,2021-02-21_19h45.37.744,exp11,2020.2.6,Win32,60,IwAR2ROE_9iU5tOZlHgHT14sQTTjUFnzTcwF_sE5tC8QPUC4F-ZeIiKyrh7Uw,,,,,,,,,,,
,,,,,,,,,,,,,,a,1,0.649725,space,0.184395,0,182,182,150,1,0_targ_10_dist_red/trial1.png,,,0,10,redHorizontal,a,Nathan Crush,20,male,2021-02-21_19h45.37.744,exp11,2020.2.6,Win32,60,IwAR2ROE_9iU5tOZlHgHT14sQTTjUFnzTcwF_sE5tC8QPUC4F-ZeIiKyrh7Uw,,,,,,,,,,,
,,,,,,,,,,,,,,a,1,0.594355,space,0.222725,0,183,183,139,1,0_targ_4_dist_red/trial15.png,,,0,4,redHorizontal,a,Nathan Crush,20,male,2021-02-21_19h45.37.744,exp11,2020.2.6,Win32,60,IwAR2ROE_9iU5tOZlHgHT14sQTTjUFnzTcwF_sE5tC8QPUC4F-ZeIiKyrh7Uw,,,,,,,,,,,
,,,,,,,,,,,,,,a,1,0.594115,space,0.27263,0,184,184,113,1,0_targ_1_dist_red/trial14.png,,,0,1,redHorizontal,a,Nathan Crush,20,male,2021-02-21_19h45.37.744,exp11,2020.2.6,Win32,60,IwAR2ROE_9iU5tOZlHgHT14sQTTjUFnzTcwF_sE5tC8QPUC4F-ZeIiKyrh7Uw,,,,,,,,,,,
,,,,,,,,,,,,,,p,1,0.53867,space,0.23848,0,185,185,69,1,9_dist_red/trial20.png,,,1,9,redHorizontal,p,Nathan Crush,20,male,2021-02-21_19h45.37.744,exp11,2020.2.6,Win32,60,IwAR2ROE_9iU5tOZlHgHT14sQTTjUFnzTcwF_sE5tC8QPUC4F-ZeIiKyrh7Uw,,,,,,,,,,,
,,,,,,,,,,,,,,p,1,0.605225,space,0.236905,0,186,186,66,1,9_dist_red/trial17.png,,,1,9,redHorizontal,p,Nathan Crush,20,male,2021-02-21_19h45.37.744,exp11,2020.2.6,Win32,60,IwAR2ROE_9iU5tOZlHgHT14sQTTjUFnzTcwF_sE5tC8QPUC4F-ZeIiKyrh7Uw,,,,,,,,,,,
,,,,,,,,,,,,,,p,1,0.793025,space,0.16112,0,187,187,75,1,15_dist_red/trial1.png,,,1,15,redHorizontal,p,Nathan Crush,20,male,2021-02-21_19h45.37.744,exp11,2020.2.6,Win32,60,IwAR2ROE_9iU5tOZlHgHT14sQTTjUFnzTcwF_sE5tC8QPUC4F-ZeIiKyrh7Uw,,,,,,,,,,,
,,,,,,,,,,,,,,p,1,0.48878,space,0.193925,0,188,188,9,1,0_dist_red/trial10.png,,,1,0,redHorizontal,p,Nathan Crush,20,male,2021-02-21_19h45.37.744,exp11,2020.2.6,Win32,60,IwAR2ROE_9iU5tOZlHgHT14sQTTjUFnzTcwF_sE5tC8QPUC4F-ZeIiKyrh7Uw,,,,,,,,,,,
,,,,,,,,,,,,,,a,1,0.799755,space,0.122165,0,189,189,188,1,0_targ_16_dist_red/trial14.png,,,0,16,redHorizontal,a,Nathan Crush,20,male,2021-02-21_19h45.37.744,exp11,2020.2.6,Win32,60,IwAR2ROE_9iU5tOZlHgHT14sQTTjUFnzTcwF_sE5tC8QPUC4F-ZeIiKyrh7Uw,,,,,,,,,,,
,,,,,,,,,,,,,,a,1,0.698675,space,0.17717,0,190,190,105,1,0_targ_1_dist_red/trial6.png,,,0,1,redHorizontal,a,Nathan Crush,20,male,2021-02-21_19h45.37.744,exp11,2020.2.6,Win32,60,IwAR2ROE_9iU5tOZlHgHT14sQTTjUFnzTcwF_sE5tC8QPUC4F-ZeIiKyrh7Uw,,,,,,,,,,,
,,,,,,,,,,,,,,a,1,0.548705,space,0.150095,0,191,191,145,1,0_targ_4_dist_red/trial21.png,,,0,4,redHorizontal,a,Nathan Crush,20,male,2021-02-21_19h45.37.744,exp11,2020.2.6,Win32,60,IwAR2ROE_9iU5tOZlHgHT14sQTTjUFnzTcwF_sE5tC8QPUC4F-ZeIiKyrh7Uw,,,,,,,,,,,
,,,,,,,,,,,,,,p,1,0.536135,space,0.25849,0,192,192,29,1,3_dist_red/trial5.png,,,1,3,redHorizontal,p,Nathan Crush,20,male,2021-02-21_19h45.37.744,exp11,2020.2.6,Win32,60,IwAR2ROE_9iU5tOZlHgHT14sQTTjUFnzTcwF_sE5tC8QPUC4F-ZeIiKyrh7Uw,,,,,,,,,,,
,,,,,,,,,,,,,,p,1,0.583085,space,0.22052,0,193,193,58,1,9_dist_red/trial9.png,,,1,9,redHorizontal,p,Nathan Crush,20,male,2021-02-21_19h45.37.744,exp11,2020.2.6,Win32,60,IwAR2ROE_9iU5tOZlHgHT14sQTTjUFnzTcwF_sE5tC8QPUC4F-ZeIiKyrh7Uw,,,,,,,,,,,
,,,,,,,,,,,,,,a,1,0.84535,space,0.8376,0,194,194,164,1,0_targ_10_dist_red/trial15.png,,,0,10,redHorizontal,a,Nathan Crush,20,male,2021-02-21_19h45.37.744,exp11,2020.2.6,Win32,60,IwAR2ROE_9iU5tOZlHgHT14sQTTjUFnzTcwF_sE5tC8QPUC4F-ZeIiKyrh7Uw,,,,,,,,,,,
,,,,,,,,,,,,,,a,0,0.552515,space,0.640675,0,195,195,1,1,0_dist_red/trial2.png,,,1,0,redHorizontal,p,Nathan Crush,20,male,2021-02-21_19h45.37.744,exp11,2020.2.6,Win32,60,IwAR2ROE_9iU5tOZlHgHT14sQTTjUFnzTcwF_sE5tC8QPUC4F-ZeIiKyrh7Uw,,,,,,,,,,,
,,,,,,,,,,,,,,p,1,0.59172,space,0.188295,0,196,196,37,1,3_dist_red/trial13.png,,,1,3,redHorizontal,p,Nathan Crush,20,male,2021-02-21_19h45.37.744,exp11,2020.2.6,Win32,60,IwAR2ROE_9iU5tOZlHgHT14sQTTjUFnzTcwF_sE5tC8QPUC4F-ZeIiKyrh7Uw,,,,,,,,,,,
,,,,,,,,,,,,,,a,1,0.942005,space,0.203845,0,197,197,199,1,0_targ_16_dist_red/trial25.png,,,0,16,redHorizontal,a,Nathan Crush,20,male,2021-02-21_19h45.37.744,exp11,2020.2.6,Win32,60,IwAR2ROE_9iU5tOZlHgHT14sQTTjUFnzTcwF_sE5tC8QPUC4F-ZeIiKyrh7Uw,,,,,,,,,,,
,,,,,,,,,,,,,,p,0,0.57656,space,0.28351,0,198,198,106,1,0_targ_1_dist_red/trial7.png,,,0,1,redHorizontal,a,Nathan Crush,20,male,2021-02-21_19h45.37.744,exp11,2020.2.6,Win32,60,IwAR2ROE_9iU5tOZlHgHT14sQTTjUFnzTcwF_sE5tC8QPUC4F-ZeIiKyrh7Uw,,,,,,,,,,,
,,,,,,,,,,,,,,a,1,0.556815,space,0.15544,0,199,199,103,1,0_targ_1_dist_red/trial4.png,,,0,1,redHorizontal,a,Nathan Crush,20,male,2021-02-21_19h45.37.744,exp11,2020.2.6,Win32,60,IwAR2ROE_9iU5tOZlHgHT14sQTTjUFnzTcwF_sE5tC8QPUC4F-ZeIiKyrh7Uw,,,,,,,,,,,
