observer,data_from,trial,difficulty,targ,rt,accuracy,response
obs1,proficio,tex,mid,absent,5.030180002,1,0
obs1,proficio,tex,easy,absent,3.428540001,1,0
obs1,proficio,tex,easy,absent,3.20606,1,0
obs1,proficio,tex,mid,absent,3.045980001,1,0
obs1,proficio,tex,hard,present,4.421769999,0,0
obs1,proficio,tex,hard,present,1.080495,1,1
obs1,proficio,tex,easy,absent,7.222774999,1,0
obs1,proficio,tex,easy,absent,4.968994999,1,0
obs1,proficio,tex,hard,absent,7.414954999,1,0
obs1,proficio,tex,easy,absent,6.952855,1,0
obs1,proficio,tex,hard,absent,8.433629999,1,0
obs1,proficio,tex,easy,present,1.206559999,1,1
obs1,proficio,tex,easy,absent,10.20955,0,1
obs1,proficio,tex,hard,present,9.115405001,0,0
obs1,proficio,tex,mid,present,1.089880001,1,1
obs1,proficio,tex,hard,absent,8.50539,1,0
obs1,proficio,tex,mid,absent,9.297940001,1,0
obs1,proficio,tex,hard,absent,8.988869999,1,0
obs1,proficio,tex,easy,present,0.815715,1,1
obs1,proficio,tex,mid,present,6.189900002,0,0
obs1,proficio,tex,easy,absent,11.525305,1,0
obs1,proficio,tex,easy,absent,9.159845,1,0
obs1,proficio,tex,hard,absent,7.432639999,1,0
obs1,proficio,tex,hard,present,5.993929999,0,0
obs1,proficio,tex,easy,present,3.540895,1,1
obs1,proficio,tex,mid,present,1.18784,1,1
obs1,proficio,tex,hard,present,0.842970001,1,1
obs1,proficio,tex,easy,absent,8.272360001,1,0
obs1,proficio,tex,mid,absent,5.902895,1,0
obs1,proficio,tex,hard,present,5.212405,0,0
obs1,proficio,tex,mid,present,1.075645,1,1
obs1,proficio,tex,mid,present,0.615005,1,1
obs1,proficio,tex,hard,present,5.537870001,1,1
obs1,proficio,tex,mid,present,1.371335,1,1
obs1,proficio,tex,easy,absent,7.606620001,1,0
obs1,proficio,tex,hard,absent,6.688920001,1,0
obs1,proficio,tex,easy,present,0.822555,1,1
obs1,proficio,tex,easy,present,0.71036,1,1
obs1,proficio,tex,hard,absent,6.18259,1,0
obs1,proficio,tex,mid,present,0.778884999,1,1
obs1,proficio,tex,hard,absent,8.505265001,1,0
obs1,proficio,tex,easy,absent,6.458079999,1,0
obs1,proficio,tex,hard,present,7.309869999,0,0
obs1,proficio,tex,hard,present,1.416855,0,0
obs1,proficio,tex,easy,present,1.02493,1,1
obs1,proficio,tex,mid,present,0.702500001,1,1
obs1,proficio,tex,easy,present,0.50629,1,1
obs1,proficio,tex,mid,present,1.095789999,1,1
obs1,proficio,tex,easy,absent,6.63542,1,0
obs1,proficio,tex,mid,present,3.06153,1,1
obs1,proficio,tex,mid,present,1.183365,1,1
obs1,proficio,tex,easy,absent,4.9110500010000004,1,0
obs1,proficio,tex,easy,absent,5.037224999,1,0
obs1,proficio,tex,hard,absent,2.97274,1,0
obs1,proficio,tex,hard,absent,11.239295,0,1
obs1,proficio,tex,easy,absent,3.409560001,0,1
obs1,proficio,tex,mid,absent,8.371815,1,0
obs1,proficio,tex,mid,present,2.26599,1,1
obs1,proficio,tex,mid,present,5.74759,0,0
obs1,proficio,tex,easy,absent,16.31545,1,0
obs1,proficio,tex,easy,present,0.939510001,1,1
obs1,proficio,tex,easy,present,0.62476,1,1
obs1,proficio,tex,mid,absent,7.844319999,1,0
obs1,proficio,tex,hard,absent,7.47851,1,0
obs1,proficio,tex,hard,present,4.02358,1,1
obs1,proficio,tex,easy,present,1.037560001,1,1
obs1,proficio,tex,mid,present,1.16793,1,1
obs1,proficio,tex,mid,present,1.444755001,1,1
obs1,proficio,tex,mid,absent,0.702570001,0,1
obs1,proficio,tex,mid,present,2.355460001,1,1
obs1,proficio,tex,hard,absent,10.08344,1,0
obs1,proficio,tex,hard,present,5.738544999,0,0
obs1,proficio,tex,hard,present,3.776105002,1,1
obs1,proficio,tex,mid,absent,14.81933,1,0
obs1,proficio,tex,hard,present,7.989470001,0,0
obs1,proficio,tex,hard,absent,14.283835,0,1
obs1,proficio,tex,mid,present,0.973955,1,1
obs1,proficio,tex,mid,present,3.68527,1,1
obs1,proficio,tex,easy,present,0.71813,1,1
obs1,proficio,tex,mid,absent,8.963654999,1,0
obs1,proficio,tex,easy,absent,6.28812,1,0
obs1,proficio,tex,easy,absent,6.347095,1,0
obs1,proficio,tex,mid,present,2.082925001,1,1
obs1,proficio,tex,mid,present,0.898779999,1,1
obs1,proficio,tex,hard,present,10.137145,0,0
obs1,proficio,tex,hard,absent,8.709079999,0,1
obs1,proficio,tex,hard,present,4.993755,0,0
obs1,proficio,tex,hard,absent,7.27885,1,0
obs1,proficio,tex,hard,absent,8.697660001,1,0
obs1,proficio,tex,hard,present,2.593094999,1,1
obs1,proficio,tex,mid,absent,17.94885,0,1
obs1,proficio,tex,easy,present,0.971315,1,1
obs1,proficio,tex,easy,absent,9.820210001,1,0
obs1,proficio,tex,easy,present,1.119864998,1,1
obs1,proficio,tex,easy,present,0.843895001,1,1
obs1,proficio,tex,hard,present,5.62183,1,1
obs1,proficio,tex,easy,absent,6.097970001,1,0
obs1,proficio,tex,mid,absent,17.465115,1,0
obs1,proficio,tex,hard,present,2.626175001,1,1
obs1,proficio,tex,hard,present,9.482785,1,1
obs1,proficio,tex,hard,absent,12.79104,1,0
obs1,proficio,tex,hard,present,2.772299999,1,1
obs1,proficio,tex,easy,absent,23.9869,1,0
obs1,proficio,tex,mid,absent,11.006825,1,0
obs1,proficio,tex,mid,absent,14.856195,1,0
obs1,proficio,tex,mid,present,1.5363,1,1
obs1,proficio,tex,hard,absent,12.404015,1,0
obs1,proficio,tex,hard,absent,10.26789,1,0
obs1,proficio,tex,mid,absent,9.245615,1,0
obs1,proficio,tex,hard,absent,13.56475,1,0
obs1,proficio,tex,mid,absent,10.903515,1,0
obs1,proficio,tex,mid,present,1.168395,1,1
obs1,proficio,tex,easy,absent,9.459100001,1,0
obs1,proficio,tex,hard,present,1.433145,1,1
obs1,proficio,tex,easy,present,1.240805,1,1
obs1,proficio,tex,easy,present,2.008435,1,1
obs1,proficio,tex,mid,absent,15.24897,1,0
obs1,proficio,tex,mid,absent,5.340679999,1,0
obs1,proficio,tex,easy,present,0.81134,1,1
obs1,proficio,tex,hard,present,2.525810001,1,1
obs1,proficio,tex,easy,present,1.106040001,1,1
obs1,proficio,tex,mid,absent,9.922324998,1,0
obs1,proficio,tex,hard,absent,6.721335001,1,0
obs1,proficio,tex,hard,present,8.950379999,0,0
obs1,proficio,tex,mid,absent,18.19833,1,0
obs1,proficio,tex,mid,absent,14.65719,1,0
obs1,proficio,tex,easy,present,0.871454999,1,1
obs1,proficio,tex,mid,absent,10.20616,1,0
obs1,proficio,tex,easy,present,0.792934999,1,1
obs1,proficio,tex,mid,absent,0.707559999,0,1
obs1,proficio,tex,hard,absent,8.338945,1,0
obs1,proficio,tex,easy,present,0.939105,1,1
obs1,proficio,tex,easy,present,0.737499999,1,1
obs1,proficio,tex,easy,absent,7.389504999,1,0
obs1,proficio,tex,easy,present,0.909740001,1,1
obs1,proficio,tex,hard,absent,9.806290001,1,0
obs1,proficio,tex,hard,absent,7.096945001,1,0
obs1,proficio,tex,hard,present,1.560095001,1,1
obs1,proficio,tex,mid,present,2.209350001,1,1
obs1,proficio,tex,hard,absent,11.025425,1,0
obs1,proficio,tex,mid,absent,7.05892,1,0
obs1,proficio,tex,mid,absent,5.229994999,1,0
obs1,proficio,tex,mid,present,0.867235001,1,1
obs1,proficio,tex,easy,absent,10.510785,1,0
obs1,proficio,tex,easy,absent,6.479905,1,0
obs1,proficio,tex,easy,present,0.810265001,1,1
obs1,proficio,tex,mid,present,0.693495,1,1
obs1,proficio,tex,mid,absent,11.54828,1,0
obs1,proficio,tex,hard,present,2.339305,0,0
obs1,proficio,tex,easy,present,0.673415,1,1
obs1,proficio,conj,hard,present,0.97504,1,1
obs1,proficio,conj,easy,absent,1.01582,1,0
obs1,proficio,conj,easy,present,0.756695,1,1
obs1,proficio,conj,mid,absent,1.295835,1,0
obs1,proficio,conj,mid,present,1.500644999,0,0
obs1,proficio,conj,hard,present,1.185025001,1,1
obs1,proficio,conj,hard,present,0.683784999,1,1
obs1,proficio,conj,easy,absent,1.021020001,1,0
obs1,proficio,conj,easy,present,0.875895001,1,1
obs1,proficio,conj,hard,absent,2.048320001,1,0
obs1,proficio,conj,easy,present,1.128450001,1,1
obs1,proficio,conj,hard,present,0.881825,1,1
obs1,proficio,conj,mid,present,0.8586,1,1
obs1,proficio,conj,hard,absent,1.530475,1,0
obs1,proficio,conj,hard,present,1.461095,1,1
obs1,proficio,conj,hard,absent,1.95982,1,0
obs1,proficio,conj,easy,present,0.822234999,1,1
obs1,proficio,conj,hard,present,0.74461,1,1
obs1,proficio,conj,hard,absent,1.66131,1,0
obs1,proficio,conj,easy,present,1.258464999,1,1
obs1,proficio,conj,easy,absent,0.800525,1,0
obs1,proficio,conj,mid,absent,1.019990001,1,0
obs1,proficio,conj,hard,present,0.953385001,1,1
obs1,proficio,conj,mid,absent,0.925985001,1,0
obs1,proficio,conj,easy,present,0.96019,1,1
obs1,proficio,conj,mid,present,0.744899999,1,1
obs1,proficio,conj,hard,absent,2.260739999,1,0
obs1,proficio,conj,hard,present,0.76165,1,1
obs1,proficio,conj,mid,present,0.773845,1,1
obs1,proficio,conj,easy,present,0.741465,1,1
obs1,proficio,conj,hard,present,1.02201,1,1
obs1,proficio,conj,mid,absent,1.093265001,1,0
obs1,proficio,conj,easy,absent,1.073869999,1,0
obs1,proficio,conj,hard,absent,1.68957,1,0
obs1,proficio,conj,mid,absent,1.191225,1,0
obs1,proficio,conj,easy,absent,0.822185,1,0
obs1,proficio,conj,hard,absent,1.578059999,1,0
obs1,proficio,conj,mid,present,0.860859999,1,1
obs1,proficio,conj,easy,present,0.824375,1,1
obs1,proficio,conj,mid,absent,1.242795002,1,0
obs1,proficio,conj,hard,present,0.680144999,1,1
obs1,proficio,conj,hard,absent,1.126009999,1,0
obs1,proficio,conj,mid,present,1.551660001,1,1
obs1,proficio,conj,mid,present,1.57815,1,1
obs1,proficio,conj,easy,present,0.894995,1,1
obs1,proficio,conj,mid,absent,0.923234999,1,0
obs1,proficio,conj,mid,present,1.015115,1,1
obs1,proficio,conj,mid,present,0.749715,1,1
obs1,proficio,conj,hard,absent,1.737965001,1,0
obs1,proficio,conj,easy,present,1.02428,1,1
obs1,proficio,conj,mid,present,1.080109999,1,1
obs1,proficio,conj,mid,present,1.197504999,1,1
obs1,proficio,conj,hard,absent,1.249624999,1,0
obs1,proficio,conj,easy,present,0.85887,1,1
obs1,proficio,conj,mid,present,0.91948,1,1
obs1,proficio,conj,mid,absent,1.18822,1,0
obs1,proficio,conj,easy,absent,1.0254,1,0
obs1,proficio,conj,mid,present,0.733264999,1,1
obs1,proficio,conj,easy,present,0.727630001,1,1
obs1,proficio,conj,hard,present,1.153269999,1,1
obs1,proficio,conj,hard,absent,1.330009999,0,1
obs1,proficio,conj,mid,absent,1.423645001,1,0
obs1,proficio,conj,easy,absent,0.900359999,1,0
obs1,proficio,conj,easy,absent,0.85956,1,0
obs1,proficio,conj,hard,absent,1.496275,1,0
obs1,proficio,conj,easy,present,0.843354998,1,1
obs1,proficio,conj,easy,absent,0.82942,1,0
obs1,proficio,conj,hard,absent,1.56725,1,0
obs1,proficio,conj,hard,absent,1.547355,1,0
obs1,proficio,conj,easy,absent,0.810929999,1,0
obs1,proficio,conj,mid,absent,0.866379999,1,0
obs1,proficio,conj,hard,present,0.749130001,1,1
obs1,proficio,conj,easy,absent,0.881919999,1,0
obs1,proficio,conj,hard,present,0.904365001,1,1
obs1,proficio,conj,mid,absent,1.20606,1,0
obs1,proficio,conj,mid,absent,1.559700001,1,0
obs1,proficio,conj,mid,absent,1.003455,1,0
obs1,proficio,conj,hard,present,0.837125,1,1
obs1,proficio,conj,easy,absent,0.840445001,1,0
obs1,proficio,conj,mid,absent,1.360524999,1,0
obs1,proficio,conj,easy,present,0.716675,1,1
obs1,proficio,conj,hard,absent,1.45792,1,0
obs1,proficio,conj,mid,present,0.705335001,1,1
obs1,proficio,conj,hard,absent,0.92877,1,0
obs1,proficio,conj,easy,absent,1.72394,1,0
obs1,proficio,conj,easy,absent,0.892200001,1,0
obs1,proficio,conj,mid,present,0.80803,1,1
obs1,proficio,conj,mid,absent,0.828380002,1,0
obs1,proficio,conj,hard,absent,0.947685,1,0
obs1,proficio,conj,easy,absent,0.748465,1,0
obs1,proficio,conj,easy,present,0.95951,1,1
obs1,proficio,conj,easy,present,0.951859999,1,1
obs1,proficio,conj,hard,present,0.86809,0,0
obs1,proficio,conj,easy,present,0.764775001,1,1
obs1,proficio,conj,hard,present,0.739599999,1,1
obs1,proficio,conj,easy,present,0.978809999,1,1
obs1,proficio,conj,mid,absent,1.198534999,1,0
obs1,proficio,conj,easy,present,0.859195,1,1
obs1,proficio,conj,mid,present,0.974424999,0,0
obs1,proficio,conj,mid,present,0.806780001,1,1
obs1,proficio,conj,mid,absent,0.85647,1,0
obs1,proficio,conj,hard,present,0.828055,1,1
obs1,proficio,conj,hard,present,0.697195001,1,1
obs1,proficio,conj,hard,absent,1.630525,1,0
obs1,proficio,conj,easy,absent,0.843565,1,0
obs1,proficio,conj,easy,absent,0.869385,1,0
obs1,proficio,conj,mid,absent,1.03712,1,0
obs1,proficio,conj,hard,present,0.69868,1,1
obs1,proficio,conj,hard,present,0.721385,1,1
obs1,proficio,conj,hard,present,0.786220001,1,1
obs1,proficio,conj,hard,present,1.10878,1,1
obs1,proficio,conj,easy,present,0.754065001,1,1
obs1,proficio,conj,mid,present,1.28609,0,0
obs1,proficio,conj,easy,absent,1.101875,1,0
obs1,proficio,conj,easy,present,1.46476,1,1
obs1,proficio,conj,hard,absent,1.599675,1,0
obs1,proficio,conj,hard,absent,1.953389999,1,0
obs1,proficio,conj,mid,absent,2.301795,1,0
obs1,proficio,conj,easy,absent,1.425424999,1,0
obs1,proficio,conj,hard,absent,2.042835001,1,0
obs1,proficio,conj,mid,absent,1.157430001,1,0
obs1,proficio,conj,hard,absent,1.84072,1,0
obs1,proficio,conj,mid,present,0.929915,1,1
obs1,proficio,conj,easy,present,0.836280001,1,1
obs1,proficio,conj,hard,present,0.904379999,1,1
obs1,proficio,conj,easy,absent,1.020955,1,0
obs1,proficio,conj,easy,present,1.174415,0,0
obs1,proficio,conj,mid,present,0.79166,1,1
obs1,proficio,conj,easy,absent,0.88239,1,0
obs1,proficio,conj,easy,absent,0.873920001,1,0
obs1,proficio,conj,mid,absent,0.99374,1,0
obs1,proficio,conj,mid,absent,0.811865,1,0
obs1,proficio,conj,hard,absent,1.086084999,1,0
obs1,proficio,conj,mid,present,0.776845001,1,1
obs1,proficio,conj,hard,absent,1.60403,1,0
obs1,proficio,conj,mid,absent,1.661655001,1,0
obs1,proficio,conj,mid,absent,0.99212,1,0
obs1,proficio,conj,mid,present,1.457714999,1,1
obs1,proficio,conj,hard,present,0.705779999,1,1
obs1,proficio,conj,mid,absent,1.005519999,1,0
obs1,proficio,conj,easy,present,0.616955001,1,1
obs1,proficio,conj,easy,present,0.891105,1,1
obs1,proficio,conj,hard,present,0.994930001,1,1
obs1,proficio,conj,mid,present,0.755205,1,1
obs1,proficio,conj,hard,absent,1.123034999,1,0
obs1,proficio,conj,easy,absent,2.327365,1,0
obs1,proficio,conj,mid,present,1.350554999,1,1
obs1,proficio,conj,mid,present,1.108720001,1,1
obs1,proficio,conj,easy,absent,1.274504999,1,0
obs1,proficio,conj,easy,absent,1.375174999,1,0
obs1,proficio,ori,mid,present,1.322125001,1,1
obs1,proficio,ori,mid,absent,4.947759999,0,1
obs1,proficio,ori,hard,present,7.381040001,0,0
obs1,proficio,ori,easy,present,1.419299999,1,1
obs1,proficio,ori,mid,present,5.40325,1,1
obs1,proficio,ori,easy,absent,8.429975001,1,0
obs1,proficio,ori,mid,absent,9.387365,1,0
obs1,proficio,ori,hard,present,15.70531,0,0
obs1,proficio,ori,hard,present,20.852485,0,0
obs1,proficio,ori,hard,absent,4.242665,0,1
obs1,proficio,ori,hard,absent,6.25866,0,1
obs1,proficio,ori,hard,present,1.29095,1,1
obs1,proficio,ori,mid,absent,10.34345,1,0
obs1,proficio,ori,easy,present,0.97828,1,1
obs1,proficio,ori,mid,present,11.335185,0,0
obs1,proficio,ori,mid,absent,8.990929998,1,0
obs1,proficio,ori,mid,present,4.17082,1,1
obs1,proficio,ori,mid,absent,8.781580001,1,0
obs1,proficio,ori,hard,absent,2.00904,0,1
obs1,proficio,ori,hard,absent,8.63463,1,0
obs1,proficio,ori,hard,absent,12.736975,1,0
obs1,proficio,ori,hard,present,14.043865,0,0
obs1,proficio,ori,easy,present,0.85971,1,1
obs1,proficio,ori,easy,absent,10.477585,1,0
obs1,proficio,ori,hard,absent,15.88017,1,0
obs1,proficio,ori,mid,present,11.62204,0,0
obs1,proficio,ori,mid,absent,12.88927,1,0
obs1,proficio,ori,mid,absent,9.985955,0,1
obs1,proficio,ori,easy,absent,6.347564999,1,0
obs1,proficio,ori,hard,present,3.260405,1,1
obs1,proficio,ori,easy,present,1.093430001,1,1
obs1,proficio,ori,easy,present,0.758335,1,1
obs1,proficio,ori,mid,absent,8.426200001,1,0
obs1,proficio,ori,easy,present,0.773934999,1,1
obs1,proficio,ori,mid,present,3.039205,1,1
obs1,proficio,ori,mid,absent,7.55546,1,0
obs1,proficio,ori,easy,absent,4.710515,1,0
obs1,proficio,ori,easy,absent,8.078130001,1,0
obs1,proficio,ori,mid,absent,8.02359,1,0
obs1,proficio,ori,easy,absent,4.90033,1,0
obs1,proficio,ori,hard,present,7.497795001,0,0
obs1,proficio,ori,easy,present,0.890135001,1,1
obs1,proficio,ori,mid,present,21.30239,1,1
obs1,proficio,ori,hard,present,11.973785,0,0
obs1,proficio,ori,hard,absent,14.309575,1,0
obs1,proficio,ori,mid,present,2.931369999,1,1
obs1,proficio,ori,mid,present,1.650965,1,1
obs1,proficio,ori,hard,absent,6.62373,1,0
obs1,proficio,ori,mid,absent,6.44342,1,0
obs1,proficio,ori,mid,absent,9.774045,1,0
obs1,proficio,ori,mid,present,7.157370001,0,0
obs1,proficio,ori,easy,absent,7.956249999,1,0
obs1,proficio,ori,easy,present,0.728730001,1,1
obs1,proficio,ori,hard,absent,3.507585,0,1
obs1,proficio,ori,easy,absent,8.136164999,1,0
obs1,proficio,ori,hard,absent,10.06956,1,0
obs1,proficio,ori,easy,absent,6.978775,1,0
obs1,proficio,ori,hard,absent,3.432875,1,0
obs1,proficio,ori,easy,present,0.86256,1,1
obs1,proficio,ori,mid,present,7.413334999,0,0
obs1,proficio,ori,easy,absent,5.572325001,1,0
obs1,proficio,ori,easy,present,0.908809999,1,1
obs1,proficio,ori,hard,present,6.899880001,0,0
obs1,proficio,ori,hard,absent,7.890735,1,0
obs1,proficio,ori,easy,present,0.789719999,1,1
obs1,proficio,ori,mid,present,0.657314999,1,1
obs1,proficio,ori,hard,absent,5.961585,1,0
obs1,proficio,ori,mid,present,0.84804,1,1
obs1,proficio,ori,easy,present,0.640814999,1,1
obs1,proficio,ori,hard,absent,6.194344999,0,1
obs1,proficio,ori,mid,present,1.215005001,1,1
obs1,proficio,ori,mid,present,0.810665,1,1
obs1,proficio,ori,easy,present,0.625189999,1,1
obs1,proficio,ori,easy,absent,3.946659999,1,0
obs1,proficio,ori,hard,present,2.068285,1,1
obs1,proficio,ori,easy,absent,6.42306,1,0
obs1,proficio,ori,hard,present,7.56201,0,0
obs1,proficio,ori,easy,absent,6.063704999,1,0
obs1,proficio,ori,easy,present,0.835205,1,1
obs1,proficio,ori,easy,present,0.64195,1,1
obs1,proficio,ori,easy,present,0.673110001,1,1
obs1,proficio,ori,hard,present,4.497955,0,0
obs1,proficio,ori,easy,absent,3.826805001,1,0
obs1,proficio,ori,mid,present,0.873584999,1,1
obs1,proficio,ori,mid,absent,2.51334,0,1
obs1,proficio,ori,easy,present,0.704004999,1,1
obs1,proficio,ori,easy,present,0.541245,1,1
obs1,proficio,ori,easy,absent,5.388434999,1,0
obs1,proficio,ori,mid,absent,1.659235001,1,0
obs1,proficio,ori,hard,present,2.487229999,0,0
obs1,proficio,ori,mid,absent,11.593075,1,0
obs1,proficio,ori,mid,present,0.740635,1,1
obs1,proficio,ori,hard,absent,11.535365,1,0
obs1,proficio,ori,easy,present,0.807714999,1,1
obs1,proficio,ori,mid,present,0.788009999,1,1
obs1,proficio,ori,easy,absent,6.816945,1,0
obs1,proficio,ori,hard,absent,9.253219999,1,0
obs1,proficio,ori,mid,present,1.441190001,1,1
obs1,proficio,ori,easy,present,1.746295001,1,1
obs1,proficio,ori,hard,present,2.903000001,1,1
obs1,proficio,ori,mid,absent,6.35744,0,1
obs1,proficio,ori,easy,absent,3.450579999,1,0
obs1,proficio,ori,easy,present,1.3330100010000001,1,1
obs1,proficio,ori,easy,absent,7.020705,1,0
obs1,proficio,ori,hard,present,13.09074,0,0
obs1,proficio,ori,mid,absent,7.220805001,1,0
obs1,proficio,ori,easy,present,0.717910001,1,1
obs1,proficio,ori,hard,absent,3.168100001,1,0
obs1,proficio,ori,mid,absent,4.081085,1,0
obs1,proficio,ori,hard,absent,9.43764,0,1
obs1,proficio,ori,mid,absent,21.83313,1,0
obs1,proficio,ori,hard,present,1.35716,1,1
obs1,proficio,ori,hard,present,0.993164999,1,1
obs1,proficio,ori,mid,absent,6.430905001,1,0
obs1,proficio,ori,easy,present,0.83123,1,1
obs1,proficio,ori,easy,present,0.7325,1,1
obs1,proficio,ori,mid,present,0.980970001,1,1
obs1,proficio,ori,easy,absent,2.8016,0,1
obs1,proficio,ori,mid,absent,7.27231,1,0
obs1,proficio,ori,hard,present,1.308729999,1,1
obs1,proficio,ori,mid,absent,11.22487,0,1
obs1,proficio,ori,hard,present,9.5350249989999991,1,1
obs1,proficio,ori,hard,absent,5.838540001,1,0
obs1,proficio,ori,easy,absent,8.437075,1,0
obs1,proficio,ori,hard,absent,18.09486,1,0
obs1,proficio,ori,easy,absent,5.841025,1,0
obs1,proficio,ori,mid,present,1.128304999,1,1
obs1,proficio,ori,hard,absent,7.456290001,1,0
obs1,proficio,ori,mid,absent,6.56191,1,0
obs1,proficio,ori,hard,present,29.054785,0,0
obs1,proficio,ori,hard,absent,2.965994999,0,1
obs1,proficio,ori,mid,absent,8.016925002,1,0
obs1,proficio,ori,hard,absent,7.434824999,0,1
obs1,proficio,ori,hard,present,2.152045,1,1
obs1,proficio,ori,hard,present,4.31573,1,1
obs1,proficio,ori,hard,present,6.911255,0,0
obs1,proficio,ori,hard,absent,2.15044,0,1
obs1,proficio,ori,easy,absent,23.25742,1,0
obs1,proficio,ori,mid,present,1.436379999,1,1
obs1,proficio,ori,mid,absent,12.4908,1,0
obs1,proficio,ori,mid,present,1.027080001,1,1
obs1,proficio,ori,easy,absent,4.727189999,1,0
obs1,proficio,ori,easy,absent,2.49649,1,0
obs1,proficio,ori,easy,absent,5.821150001,1,0
obs1,proficio,ori,hard,absent,11.57276,1,0
obs1,proficio,ori,hard,present,3.456464998,1,1
obs1,proficio,ori,mid,present,1.529069999,1,1
obs1,proficio,ori,mid,present,0.906889999,1,1
obs1,proficio,ori,hard,present,10.840285,1,1
obs1,proficio,ori,easy,present,0.652120002,1,1
obs2,proficio,ori,easy,present,0.82155,1,1
obs2,proficio,ori,mid,absent,2.619545,1,0
obs2,proficio,ori,hard,present,3.2265,0,0
obs2,proficio,ori,easy,present,0.72561,1,1
obs2,proficio,ori,mid,absent,1.040405,1,0
obs2,proficio,ori,hard,present,2.88119,1,1
obs2,proficio,ori,mid,absent,2.754065,1,0
obs2,proficio,ori,easy,present,0.767975,1,1
obs2,proficio,ori,mid,present,6.182865,0,0
obs2,proficio,ori,hard,absent,10.71878,1,0
obs2,proficio,ori,mid,present,7.64465,0,0
obs2,proficio,ori,hard,absent,14.042935,1,0
obs2,proficio,ori,easy,absent,5.72513,1,0
obs2,proficio,ori,easy,absent,2.619635,1,0
obs2,proficio,ori,hard,absent,6.51274,1,0
obs2,proficio,ori,easy,present,0.846545,1,1
obs2,proficio,ori,hard,present,3.636315,0,0
obs2,proficio,ori,easy,present,0.98994,1,1
obs2,proficio,ori,mid,present,1.77021,1,1
obs2,proficio,ori,easy,present,1.178995,1,1
obs2,proficio,ori,mid,present,3.540115,0,0
obs2,proficio,ori,easy,present,0.94239,1,1
obs2,proficio,ori,mid,present,4.39899,1,1
obs2,proficio,ori,hard,absent,4.379765,1,0
obs2,proficio,ori,hard,present,1.338735,1,1
obs2,proficio,ori,hard,present,5.246825,0,0
obs2,proficio,ori,easy,present,0.786735,1,1
obs2,proficio,ori,easy,absent,5.751175,1,0
obs2,proficio,ori,easy,absent,4.535465,1,0
obs2,proficio,ori,hard,absent,6.07875,1,0
obs2,proficio,ori,hard,present,6.61892,0,0
obs2,proficio,ori,easy,absent,4.534215,1,0
obs2,proficio,ori,hard,absent,6.4321,1,0
obs2,proficio,ori,mid,absent,7.4565,1,0
obs2,proficio,ori,mid,present,2.34742,1,1
obs2,proficio,ori,mid,absent,6.928455,1,0
obs2,proficio,ori,hard,present,5.805485,1,1
obs2,proficio,ori,easy,present,0.7064,1,1
obs2,proficio,ori,easy,absent,5.94345,1,0
obs2,proficio,ori,mid,absent,4.622465,1,0
obs2,proficio,ori,easy,absent,4.05567,1,0
obs2,proficio,ori,hard,absent,4.346555,1,0
obs2,proficio,ori,hard,present,4.462075,0,0
obs2,proficio,ori,easy,present,0.690965,1,1
obs2,proficio,ori,easy,absent,1.398925,1,0
obs2,proficio,ori,mid,present,0.90304,1,1
obs2,proficio,ori,mid,absent,8.74903,1,0
obs2,proficio,ori,easy,absent,1.593755,1,0
obs2,proficio,ori,mid,absent,3.83544,1,0
obs2,proficio,ori,easy,present,0.5712,1,1
obs2,proficio,ori,easy,present,0.62556,1,1
obs2,proficio,ori,mid,absent,5.363615,1,0
obs2,proficio,ori,hard,absent,8.177185,0,1
obs2,proficio,ori,mid,absent,3.680475,1,0
obs2,proficio,ori,easy,absent,4.07491,1,0
obs2,proficio,ori,hard,present,1.58496,0,0
obs2,proficio,ori,hard,present,5.67684,0,0
obs2,proficio,ori,hard,absent,16.72484,1,0
obs2,proficio,ori,easy,absent,3.72942,1,0
obs2,proficio,ori,easy,present,0.89015,1,1
obs2,proficio,ori,hard,absent,2.0991,1,0
obs2,proficio,ori,mid,present,4.883405,1,1
obs2,proficio,ori,easy,present,0.64884,1,1
obs2,proficio,ori,easy,present,0.792655,1,1
obs2,proficio,ori,mid,present,4.075635,1,1
obs2,proficio,ori,hard,present,1.671245,0,0
obs2,proficio,ori,hard,present,11.06932,1,1
obs2,proficio,ori,easy,present,0.775985,1,1
obs2,proficio,ori,mid,absent,2.22926,1,0
obs2,proficio,ori,mid,absent,2.88104,1,0
obs2,proficio,ori,mid,absent,5.88345,1,0
obs2,proficio,ori,mid,present,1.01291,1,1
obs2,proficio,ori,mid,absent,9.256995,1,0
obs2,proficio,ori,hard,present,4.39855,0,0
obs2,proficio,ori,easy,absent,1.50861,1,0
obs2,proficio,ori,mid,present,2.16684,1,1
obs2,proficio,ori,mid,present,5.950115,0,0
obs2,proficio,ori,hard,absent,5.725115,1,0
obs2,proficio,ori,mid,absent,6.23984,1,0
obs2,proficio,ori,mid,present,0.89824,1,1
obs2,proficio,ori,mid,present,4.1309,0,0
obs2,proficio,ori,hard,present,1.403665,0,0
obs2,proficio,ori,mid,absent,7.429665,1,0
obs2,proficio,ori,easy,absent,3.741155,1,0
obs2,proficio,ori,hard,absent,15.782515,1,0
obs2,proficio,ori,hard,present,8.438655,0,0
obs2,proficio,ori,easy,present,0.914925,1,1
obs2,proficio,ori,hard,present,10.336735,0,0
obs2,proficio,ori,mid,absent,7.0233,1,0
obs2,proficio,ori,easy,absent,3.945725,1,0
obs2,proficio,ori,hard,absent,12.72353,1,0
obs2,proficio,ori,hard,absent,12.045285,1,0
obs2,proficio,ori,mid,absent,10.385925,1,0
obs2,proficio,ori,mid,present,11.5612,0,0
obs2,proficio,ori,mid,absent,4.35794,1,0
obs2,proficio,ori,hard,absent,3.94305,1,0
obs2,proficio,ori,easy,absent,2.866855,1,0
obs2,proficio,ori,hard,absent,14.40714,1,0
obs2,proficio,ori,hard,absent,8.146195,1,0
obs2,proficio,ori,hard,present,3.614695,1,1
obs2,proficio,ori,hard,present,2.43889,1,1
obs2,proficio,ori,mid,present,2.75248,1,1
obs2,proficio,ori,easy,present,0.69577,1,1
obs2,proficio,ori,mid,present,8.385425,0,0
obs2,proficio,ori,hard,present,13.790755,0,0
obs2,proficio,ori,mid,absent,4.21119,1,0
obs2,proficio,ori,hard,present,3.630035,1,1
obs2,proficio,ori,hard,absent,4.70725,1,0
obs2,proficio,ori,easy,absent,2.97833,1,0
obs2,proficio,ori,mid,present,0.80372,1,1
obs2,proficio,ori,easy,absent,5.362395,1,0
obs2,proficio,ori,easy,absent,2.614095,1,0
obs2,proficio,ori,easy,absent,1.76714,1,0
obs2,proficio,ori,hard,absent,6.713915,1,0
obs2,proficio,ori,easy,present,0.6993,1,1
obs2,proficio,ori,mid,absent,4.67094,1,0
obs2,proficio,ori,easy,present,0.569675,1,1
obs2,proficio,ori,easy,present,0.62749,1,1
obs2,proficio,ori,easy,present,0.52651,1,1
obs2,proficio,ori,mid,present,1.03872,1,1
obs2,proficio,ori,easy,present,0.57625,1,1
obs2,proficio,ori,mid,present,2.556665,1,1
obs2,proficio,ori,easy,absent,1.69482,1,0
obs2,proficio,ori,mid,present,1.522965,1,1
obs2,proficio,ori,easy,absent,1.551785,1,0
obs2,proficio,ori,hard,present,5.057195,0,0
obs2,proficio,ori,easy,present,0.913705,1,1
obs2,proficio,ori,easy,absent,2.453195,1,0
obs2,proficio,ori,easy,present,0.568225,1,1
obs2,proficio,ori,hard,present,6.17217,0,0
obs2,proficio,ori,easy,absent,2.86685,1,0
obs2,proficio,ori,hard,absent,7.30647,1,0
obs2,proficio,ori,hard,absent,1.813965,0,1
obs2,proficio,ori,mid,absent,2.13316,1,0
obs2,proficio,ori,hard,absent,12.6446,1,0
obs2,proficio,ori,mid,present,4.16331,0,0
obs2,proficio,ori,mid,present,1.60048,1,1
obs2,proficio,ori,mid,absent,11.760315,1,0
obs2,proficio,ori,hard,absent,7.949285,1,0
obs2,proficio,ori,hard,absent,5.086265,1,0
obs2,proficio,ori,hard,absent,1.751185,1,0
obs2,proficio,ori,mid,absent,2.680975,1,0
obs2,proficio,ori,mid,present,3.97555,0,0
obs2,proficio,ori,easy,absent,3.022535,1,0
obs2,proficio,ori,easy,absent,1.35529,1,0
obs2,proficio,ori,hard,present,2.106575,1,1
obs2,proficio,ori,mid,present,0.74339,1,1
obs2,proficio,ori,hard,present,6.35575,0,0
obs2,proficio,ori,hard,present,9.680865,0,0
obs2,proficio,ori,mid,absent,1.92563,1,0
obs2,proficio,conj,hard,present,2.6073,1,1
obs2,proficio,conj,hard,absent,0.90681,0,1
obs2,proficio,conj,easy,present,1.30592,1,1
obs2,proficio,conj,mid,present,2.3735,0,0
obs2,proficio,conj,mid,present,1.574295,1,1
obs2,proficio,conj,hard,present,3.50442,1,1
obs2,proficio,conj,mid,absent,1.486275,0,1
obs2,proficio,conj,hard,present,1.0603,0,0
obs2,proficio,conj,hard,present,0.893475,1,1
obs2,proficio,conj,hard,absent,1.528085,1,0
obs2,proficio,conj,mid,present,1.048465,0,0
obs2,proficio,conj,easy,absent,0.92588,1,0
obs2,proficio,conj,mid,absent,1.527145,1,0
obs2,proficio,conj,hard,present,0.70336,1,1
obs2,proficio,conj,easy,absent,0.790595,1,0
obs2,proficio,conj,easy,absent,0.722115,1,0
obs2,proficio,conj,easy,present,0.619955,1,1
obs2,proficio,conj,hard,absent,1.694825,1,0
obs2,proficio,conj,mid,absent,0.71831,1,0
obs2,proficio,conj,mid,absent,0.77917,1,0
obs2,proficio,conj,mid,present,0.91905,1,1
obs2,proficio,conj,hard,absent,0.830645,1,0
obs2,proficio,conj,hard,absent,0.507105,1,0
obs2,proficio,conj,mid,present,0.844155,1,1
obs2,proficio,conj,easy,absent,0.59857,0,1
obs2,proficio,conj,hard,absent,2.57171,1,0
obs2,proficio,conj,hard,present,0.921775,1,1
obs2,proficio,conj,mid,absent,0.841335,1,0
obs2,proficio,conj,easy,present,0.860075,1,1
obs2,proficio,conj,mid,absent,0.61299,1,0
obs2,proficio,conj,hard,present,0.482795,1,1
obs2,proficio,conj,mid,present,0.383285,0,0
obs2,proficio,conj,mid,absent,1.465605,1,0
obs2,proficio,conj,mid,present,0.713945,1,1
obs2,proficio,conj,easy,present,0.715195,1,1
obs2,proficio,conj,easy,absent,0.576715,1,0
obs2,proficio,conj,mid,present,0.80377,1,1
obs2,proficio,conj,easy,absent,0.48137,1,0
obs2,proficio,conj,mid,present,0.86673,1,1
obs2,proficio,conj,hard,absent,0.830825,1,0
obs2,proficio,conj,hard,present,0.819545,0,0
obs2,proficio,conj,hard,absent,1.326985,1,0
obs2,proficio,conj,easy,absent,0.66048,1,0
obs2,proficio,conj,mid,present,0.519875,1,1
obs2,proficio,conj,easy,absent,0.84292,1,0
obs2,proficio,conj,hard,absent,0.826515,1,0
obs2,proficio,conj,hard,present,0.58783,1,1
obs2,proficio,conj,easy,present,0.628655,1,1
obs2,proficio,conj,mid,absent,0.61652,1,0
obs2,proficio,conj,easy,absent,0.512495,1,0
obs2,proficio,conj,easy,present,0.62567,1,1
obs2,proficio,conj,easy,present,0.477,0,0
obs2,proficio,conj,mid,absent,0.970725,1,0
obs2,proficio,conj,hard,present,0.585035,1,1
obs2,proficio,conj,mid,absent,0.603625,1,0
obs2,proficio,conj,easy,present,0.64792,1,1
obs2,proficio,conj,hard,absent,0.602845,1,0
obs2,proficio,conj,mid,absent,0.59302,1,0
obs2,proficio,conj,hard,absent,0.496495,1,0
obs2,proficio,conj,hard,absent,0.57073,1,0
obs2,proficio,conj,easy,present,0.472465,0,0
obs2,proficio,conj,easy,absent,0.80698,1,0
obs2,proficio,conj,easy,absent,0.558955,1,0
obs2,proficio,conj,hard,absent,0.53546,1,0
obs2,proficio,conj,easy,present,0.60872,1,1
obs2,proficio,conj,mid,absent,0.61464,1,0
obs2,proficio,conj,easy,present,0.7295,1,1
obs2,proficio,conj,mid,absent,0.84957,1,0
obs2,proficio,conj,easy,present,0.83036,1,1
obs2,proficio,conj,hard,present,0.883175,1,1
obs2,proficio,conj,mid,absent,0.81749,1,0
obs2,proficio,conj,easy,absent,0.48127,1,0
obs2,proficio,conj,mid,present,0.49408,1,1
obs2,proficio,conj,easy,present,1.28438,1,1
obs2,proficio,conj,hard,present,0.8007,1,1
obs2,proficio,conj,easy,absent,0.55803,1,0
obs2,proficio,conj,hard,present,0.6345,1,1
obs2,proficio,conj,mid,present,0.62816,1,1
obs2,proficio,conj,hard,absent,0.593625,1,0
obs2,proficio,conj,easy,present,0.57453,1,1
obs2,proficio,conj,hard,present,0.72235,1,1
obs2,proficio,conj,hard,present,0.83342,1,1
obs2,proficio,conj,mid,absent,0.695655,1,0
obs2,proficio,conj,easy,present,0.551345,1,1
obs2,proficio,conj,mid,present,0.73254,1,1
obs2,proficio,conj,easy,absent,0.59693,1,0
obs2,proficio,conj,easy,present,0.5224,0,0
obs2,proficio,conj,hard,absent,0.9807,1,0
obs2,proficio,conj,easy,present,0.86096,1,1
obs2,proficio,conj,hard,present,0.628275,0,0
obs2,proficio,conj,easy,absent,0.91703,1,0
obs2,proficio,conj,hard,present,0.609875,1,1
obs2,proficio,conj,hard,present,0.686305,1,1
obs2,proficio,conj,mid,present,0.99507,1,1
obs2,proficio,conj,easy,absent,0.62675,1,0
obs2,proficio,conj,easy,absent,0.554195,1,0
obs2,proficio,conj,easy,absent,0.48336,1,0
obs2,proficio,conj,mid,absent,0.68247,1,0
obs2,proficio,conj,hard,absent,0.573165,1,0
obs2,proficio,conj,mid,present,1.03109,1,1
obs2,proficio,conj,mid,absent,0.87622,1,0
obs2,proficio,conj,mid,absent,0.82421,1,0
obs2,proficio,conj,hard,absent,0.71675,1,0
obs2,proficio,conj,easy,present,0.54127,1,1
obs2,proficio,conj,hard,present,0.73092,1,1
obs2,proficio,conj,easy,absent,0.675495,1,0
obs2,proficio,conj,hard,absent,1.42601,1,0
obs2,proficio,conj,hard,absent,1.727155,1,0
obs2,proficio,conj,hard,present,0.62038,1,1
obs2,proficio,conj,mid,absent,0.725265,1,0
obs2,proficio,conj,mid,absent,0.911375,1,0
obs2,proficio,conj,mid,present,0.68333,1,1
obs2,proficio,conj,mid,absent,0.732845,1,0
obs2,proficio,conj,hard,absent,0.606865,1,0
obs2,proficio,conj,hard,present,0.61074,1,1
obs2,proficio,conj,hard,absent,0.605125,1,0
obs2,proficio,conj,mid,present,0.85352,1,1
obs2,proficio,conj,hard,absent,0.83962,1,0
obs2,proficio,conj,hard,absent,1.079035,1,0
obs2,proficio,conj,mid,absent,0.824645,1,0
obs2,proficio,conj,mid,present,0.641435,1,1
obs2,proficio,conj,mid,present,0.545865,1,1
obs2,proficio,conj,easy,present,0.44333,0,0
obs2,proficio,conj,mid,present,0.90123,1,1
obs2,proficio,conj,mid,present,1.007205,1,1
obs2,proficio,conj,mid,present,0.548435,1,1
obs2,proficio,conj,easy,present,0.551795,1,1
obs2,proficio,conj,easy,absent,0.60538,1,0
obs2,proficio,conj,hard,absent,0.945055,1,0
obs2,proficio,conj,hard,present,0.686555,1,1
obs2,proficio,conj,mid,absent,0.76968,0,1
obs2,proficio,conj,easy,present,0.763975,1,1
obs2,proficio,conj,easy,absent,0.656655,1,0
obs2,proficio,conj,hard,present,1.1541,1,1
obs2,proficio,conj,easy,absent,0.57265,1,0
obs2,proficio,conj,easy,absent,0.5384,1,0
obs2,proficio,conj,mid,present,0.54286,1,1
obs2,proficio,conj,mid,present,0.57045,1,1
obs2,proficio,conj,hard,present,0.609495,1,1
obs2,proficio,conj,easy,present,0.660095,0,0
obs2,proficio,conj,mid,absent,0.973765,1,0
obs2,proficio,conj,easy,present,0.748695,1,1
obs2,proficio,conj,mid,present,0.65021,1,1
obs2,proficio,conj,easy,absent,0.71523,1,0
obs2,proficio,conj,easy,present,0.562775,1,1
obs2,proficio,conj,hard,present,0.73216,1,1
obs2,proficio,conj,mid,absent,0.818535,1,0
obs2,proficio,conj,easy,present,0.78048,1,1
obs2,proficio,conj,hard,absent,1.0166,1,0
obs2,proficio,conj,easy,absent,0.65141,1,0
obs2,proficio,tex,easy,absent,1.264355,1,0
obs2,proficio,tex,mid,absent,0.53888,1,0
obs2,proficio,tex,easy,present,0.55617,1,1
obs2,proficio,tex,hard,absent,0.49272,1,0
obs2,proficio,tex,easy,present,0.63629,1,1
obs2,proficio,tex,easy,absent,0.466745,1,0
obs2,proficio,tex,easy,absent,0.357595,0,1
obs2,proficio,tex,easy,present,0.62056,1,1
obs2,proficio,tex,mid,absent,0.545465,1,0
obs2,proficio,tex,mid,present,0.74698,1,1
obs2,proficio,tex,mid,absent,1.42101,1,0
obs2,proficio,tex,easy,absent,1.05086,1,0
obs2,proficio,tex,easy,absent,0.588685,1,0
obs2,proficio,tex,easy,present,0.68118,1,1
obs2,proficio,tex,hard,absent,1.579845,1,0
obs2,proficio,tex,easy,absent,0.572575,1,0
obs2,proficio,tex,mid,present,0.70239,1,1
obs2,proficio,tex,mid,absent,0.928575,1,0
obs2,proficio,tex,easy,absent,0.74112,1,0
obs2,proficio,tex,mid,present,0.7261,1,1
obs2,proficio,tex,mid,present,0.689285,0,0
obs2,proficio,tex,hard,present,0.68307,0,0
obs2,proficio,tex,easy,absent,2.26293,1,0
obs2,proficio,tex,easy,present,0.69164,1,1
obs2,proficio,tex,mid,present,2.15682,0,0
obs2,proficio,tex,mid,absent,0.98133,1,0
obs2,proficio,tex,mid,absent,3.394695,1,0
obs2,proficio,tex,hard,present,4.802095,1,1
obs2,proficio,tex,mid,present,0.79286,1,1
obs2,proficio,tex,hard,absent,1.942785,1,0
obs2,proficio,tex,hard,present,0.86651,0,0
obs2,proficio,tex,mid,present,0.688545,1,1
obs2,proficio,tex,hard,present,0.90285,0,0
obs2,proficio,tex,mid,absent,2.27047,1,0
obs2,proficio,tex,easy,present,0.70034,1,1
obs2,proficio,tex,mid,absent,6.23709,1,0
obs2,proficio,tex,hard,absent,4.16988,1,0
obs2,proficio,tex,hard,present,2.35309,0,0
obs2,proficio,tex,mid,present,1.331205,1,1
obs2,proficio,tex,mid,absent,4.25366,1,0
obs2,proficio,tex,hard,absent,4.186615,1,0
obs2,proficio,tex,hard,present,5.15852,0,0
obs2,proficio,tex,hard,absent,4.38904,1,0
obs2,proficio,tex,easy,present,0.578905,1,1
obs2,proficio,tex,mid,present,0.5732,1,1
obs2,proficio,tex,easy,present,0.486135,1,1
obs2,proficio,tex,mid,absent,0.46073,0,1
obs2,proficio,tex,hard,absent,2.8249050000000002,1,0
obs2,proficio,tex,easy,absent,1.549745,1,0
obs2,proficio,tex,hard,absent,3.4753,1,0
obs2,proficio,tex,hard,present,0.67796,1,1
obs2,proficio,tex,hard,present,2.595685,0,0
obs2,proficio,tex,hard,absent,2.042015,1,0
obs2,proficio,tex,hard,present,4.444625,0,0
obs2,proficio,tex,easy,present,0.642625,1,1
obs2,proficio,tex,easy,absent,2.050585,1,0
obs2,proficio,tex,mid,present,0.72108,1,1
obs2,proficio,tex,mid,present,0.87379,1,1
obs2,proficio,tex,mid,absent,3.33899,1,0
obs2,proficio,tex,easy,present,0.62802500000000006,1,1
obs2,proficio,tex,hard,present,1.51439,0,0
obs2,proficio,tex,mid,absent,0.87776,1,0
obs2,proficio,tex,mid,absent,0.921605,1,0
obs2,proficio,tex,easy,absent,1.213665,1,0
obs2,proficio,tex,mid,present,0.66296,1,1
obs2,proficio,tex,hard,absent,0.89251,1,0
obs2,proficio,tex,hard,absent,1.62902,1,0
obs2,proficio,tex,easy,absent,1.20252,1,0
obs2,proficio,tex,easy,present,0.62146,1,1
obs2,proficio,tex,hard,present,0.812195,1,1
obs2,proficio,tex,hard,present,1.332585,1,1
obs2,proficio,tex,mid,absent,1.934385,1,0
obs2,proficio,tex,easy,absent,0.82067,1,0
obs2,proficio,tex,easy,present,0.709875,1,1
obs2,proficio,tex,hard,absent,0.91557,1,0
obs2,proficio,tex,hard,absent,2.3774,1,0
obs2,proficio,tex,mid,absent,0.77607,1,0
obs2,proficio,tex,mid,absent,2.69279,1,0
obs2,proficio,tex,hard,present,2.18734,1,1
obs2,proficio,tex,hard,present,2.785235,0,0
obs2,proficio,tex,mid,absent,3.917935,1,0
obs2,proficio,tex,easy,absent,2.133715,1,0
obs2,proficio,tex,easy,present,0.658685,1,1
obs2,proficio,tex,hard,absent,0.839475,1,0
obs2,proficio,tex,easy,absent,0.890645,1,0
obs2,proficio,tex,mid,absent,0.593395,1,0
obs2,proficio,tex,mid,absent,0.821375,1,0
obs2,proficio,tex,hard,absent,0.94673,1,0
obs2,proficio,tex,easy,present,0.62823,1,1
obs2,proficio,tex,hard,present,0.99893,1,1
obs2,proficio,tex,hard,present,1.16632,1,1
obs2,proficio,tex,mid,absent,0.54539,0,1
obs2,proficio,tex,easy,present,0.60217,1,1
obs2,proficio,tex,easy,absent,0.97969,1,0
obs2,proficio,tex,easy,present,0.63206,1,1
obs2,proficio,tex,easy,absent,1.396585,1,0
obs2,proficio,tex,easy,present,1.00577,1,1
obs2,proficio,tex,easy,present,0.879945,1,1
obs2,proficio,tex,hard,present,1.000625,0,0
obs2,proficio,tex,mid,present,0.76049,1,1
obs2,proficio,tex,mid,present,0.731065,1,1
obs2,proficio,tex,mid,present,0.597975,1,1
obs2,proficio,tex,hard,absent,1.05344,1,0
obs2,proficio,tex,hard,present,0.845715,0,0
obs2,proficio,tex,mid,absent,1.666865,1,0
obs2,proficio,tex,easy,present,0.47223,1,1
obs2,proficio,tex,hard,absent,0.93081,1,0
obs2,proficio,tex,mid,absent,1.79428,1,0
obs2,proficio,tex,hard,present,1.38888,1,1
obs2,proficio,tex,mid,present,0.73141,1,1
obs2,proficio,tex,mid,present,0.491645,1,1
obs2,proficio,tex,hard,present,1.502445,1,1
obs2,proficio,tex,hard,present,3.31049,0,0
obs2,proficio,tex,easy,present,0.689235,1,1
obs2,proficio,tex,mid,absent,1.50473,1,0
obs2,proficio,tex,mid,present,0.547565,0,0
obs2,proficio,tex,easy,present,0.601035,1,1
obs2,proficio,tex,easy,absent,1.24757,1,0
obs2,proficio,tex,easy,present,0.61817,1,1
obs2,proficio,tex,mid,present,0.69563,1,1
obs2,proficio,tex,hard,absent,3.26568,1,0
obs2,proficio,tex,easy,present,0.6166,1,1
obs2,proficio,tex,mid,present,0.567305,1,1
obs2,proficio,tex,hard,present,2.746865,0,0
obs2,proficio,tex,easy,absent,1.792325,1,0
obs2,proficio,tex,hard,absent,1.27933,1,0
obs2,proficio,tex,mid,present,0.77251,1,1
obs2,proficio,tex,hard,absent,2.355555,1,0
obs2,proficio,tex,easy,absent,2.16562,1,0
obs2,proficio,tex,mid,present,0.993455,1,1
obs2,proficio,tex,hard,absent,2.95054,1,0
obs2,proficio,tex,mid,present,0.94229,1,1
obs2,proficio,tex,easy,present,0.79487,1,1
obs2,proficio,tex,easy,absent,1.46382,1,0
obs2,proficio,tex,hard,present,1.109675,0,0
obs2,proficio,tex,mid,present,0.6154,1,1
obs2,proficio,tex,easy,absent,1.07903,1,0
obs2,proficio,tex,hard,absent,1.79269,1,0
obs2,proficio,tex,mid,absent,0.67661,1,0
obs2,proficio,tex,hard,absent,2.38229,1,0
obs2,proficio,tex,hard,absent,2.863325,1,0
obs2,proficio,tex,hard,present,1.550125,1,1
obs2,proficio,tex,hard,absent,1.50229,1,0
obs2,proficio,tex,easy,present,0.498705,1,1
obs2,proficio,tex,easy,absent,0.876635,1,0
obs2,proficio,tex,easy,absent,0.785975,1,0
obs2,proficio,tex,easy,absent,0.587715,1,0
obs2,proficio,tex,mid,absent,3.17699,1,0
obs2,proficio,tex,mid,present,0.636915,1,1
obs2,proficio,tex,hard,present,1.95243,1,1
obs4,proficio,conj,easy,present,3.415,0,0
obs4,proficio,conj,easy,absent,1.859,1,0
obs4,proficio,conj,mid,absent,2.745,1,0
obs4,proficio,conj,hard,present,3.724,1,1
obs4,proficio,conj,mid,absent,1.878,1,0
obs4,proficio,conj,mid,absent,1.512,1,0
obs4,proficio,conj,hard,absent,2.092,1,0
obs4,proficio,conj,hard,absent,1.352,1,0
obs4,proficio,conj,mid,absent,1.492,1,0
obs4,proficio,conj,easy,absent,0.795,1,0
obs4,proficio,conj,easy,absent,0.664,1,0
obs4,proficio,conj,hard,present,2.937,1,1
obs4,proficio,conj,easy,absent,1.388,1,0
obs4,proficio,conj,mid,absent,1.579,1,0
obs4,proficio,conj,hard,absent,1.281,1,0
obs4,proficio,conj,easy,absent,0.867,1,0
obs4,proficio,conj,easy,present,4.229,1,1
obs4,proficio,conj,hard,present,1.298,0,0
obs4,proficio,conj,hard,present,2.945,1,1
obs4,proficio,conj,easy,present,3.55,1,1
obs4,proficio,conj,easy,absent,1.804,1,0
obs4,proficio,conj,easy,present,3.713,1,1
obs4,proficio,conj,hard,present,5.459,1,1
obs4,proficio,conj,easy,present,2.334,1,1
obs4,proficio,conj,hard,absent,1.807,1,0
obs4,proficio,conj,easy,absent,5.354,1,0
obs4,proficio,conj,mid,absent,1.159,1,0
obs4,proficio,conj,hard,present,1.59,1,1
obs4,proficio,conj,easy,absent,1.186,1,0
obs4,proficio,conj,easy,present,7.826,1,1
obs4,proficio,conj,easy,absent,1.546,1,0
obs4,proficio,conj,mid,present,2.158,1,1
obs4,proficio,conj,mid,present,1.946,1,1
obs4,proficio,conj,mid,present,1.266,1,1
obs4,proficio,conj,easy,present,1.844,1,1
obs4,proficio,conj,easy,present,2.267,1,1
obs4,proficio,conj,hard,absent,1.377,1,0
obs4,proficio,conj,mid,present,5.2,1,1
obs4,proficio,conj,mid,absent,1.44,1,0
obs4,proficio,conj,hard,present,0.91,1,1
obs4,proficio,conj,hard,absent,0.934,1,0
obs4,proficio,conj,hard,present,0.988,1,1
obs4,proficio,conj,easy,present,2.653,1,1
obs4,proficio,conj,easy,present,2.098,1,1
obs4,proficio,conj,hard,absent,1.443,1,0
obs4,proficio,conj,easy,absent,2.066,1,0
obs4,proficio,conj,hard,absent,1.637,1,0
obs4,proficio,conj,mid,present,1.236,1,1
obs4,proficio,conj,hard,present,0.857,1,1
obs4,proficio,conj,hard,absent,4.038,1,0
obs4,proficio,conj,hard,present,1.265,1,1
obs4,proficio,conj,easy,absent,4.174,1,0
obs4,proficio,conj,easy,present,1.601,1,1
obs4,proficio,conj,easy,present,2.161,1,1
obs4,proficio,conj,hard,absent,1.09,1,0
obs4,proficio,conj,mid,absent,0.883,1,0
obs4,proficio,conj,easy,absent,0.812,1,0
obs4,proficio,conj,easy,present,1.484,1,1
obs4,proficio,conj,easy,absent,1.508,1,0
obs4,proficio,conj,mid,absent,1.582,1,0
obs4,proficio,conj,hard,present,2.044,1,1
obs4,proficio,conj,hard,absent,2.214,1,0
obs4,proficio,conj,mid,present,1.845,1,1
obs4,proficio,conj,easy,absent,0.809,1,0
obs4,proficio,conj,easy,present,1.415,1,1
obs4,proficio,conj,mid,absent,1.39,1,0
obs4,proficio,conj,easy,absent,2.669,1,0
obs4,proficio,conj,mid,absent,1.028,1,0
obs4,proficio,conj,easy,present,0.918,1,1
obs4,proficio,conj,mid,present,0.795,0,0
obs4,proficio,conj,mid,absent,4.572,1,0
obs4,proficio,conj,mid,present,1.925,1,1
obs4,proficio,conj,mid,present,5.996,1,1
obs4,proficio,conj,easy,present,2.351,1,1
obs4,proficio,conj,easy,absent,1.039,1,0
obs4,proficio,conj,hard,present,1.786,1,1
obs4,proficio,conj,hard,present,1.776,1,1
obs4,proficio,conj,hard,absent,1.142,1,0
obs4,proficio,conj,hard,absent,1.072,1,0
obs4,proficio,conj,mid,absent,1.29,1,0
obs4,proficio,conj,easy,present,1.423,1,1
obs4,proficio,conj,mid,present,1.95,1,1
obs4,proficio,conj,mid,absent,3.832,1,0
obs4,proficio,conj,hard,present,3.314,1,1
obs4,proficio,conj,easy,present,1.871,1,1
obs4,proficio,conj,easy,absent,0.913,1,0
obs4,proficio,conj,easy,absent,0.781,1,0
obs4,proficio,conj,easy,present,1.275,1,1
obs4,proficio,conj,easy,absent,1.607,1,0
obs4,proficio,conj,easy,present,1.368,1,1
obs4,proficio,conj,mid,absent,1.342,1,0
obs4,proficio,conj,mid,absent,0.811,1,0
obs4,proficio,conj,mid,absent,0.813,1,0
obs4,proficio,conj,hard,present,1.339,1,1
obs4,proficio,conj,easy,present,2.217,1,1
obs4,proficio,conj,mid,absent,1.613,1,0
obs4,proficio,conj,mid,present,2.049,1,1
obs4,proficio,conj,mid,present,1.349,1,1
obs4,proficio,conj,mid,absent,1.146,1,0
obs4,proficio,conj,hard,absent,1.155,1,0
obs4,proficio,conj,mid,absent,0.931,1,0
obs4,proficio,conj,mid,present,2.209,1,1
obs4,proficio,conj,mid,present,2.224,1,1
obs4,proficio,conj,mid,present,2.186,1,1
obs4,proficio,conj,hard,absent,4.257,1,0
obs4,proficio,conj,mid,present,1.871,1,1
obs4,proficio,conj,easy,present,2.116,1,1
obs4,proficio,conj,easy,absent,2.009,1,0
obs4,proficio,conj,mid,absent,4.937,1,0
obs4,proficio,conj,mid,present,2.004,0,0
obs4,proficio,conj,mid,present,1.822,1,1
obs4,proficio,conj,mid,present,2,1,1
obs4,proficio,conj,mid,present,2.393,0,0
obs4,proficio,conj,easy,present,2.994,1,1
obs4,proficio,conj,easy,absent,1.1,1,0
obs4,proficio,conj,easy,absent,0.917,1,0
obs4,proficio,conj,hard,absent,1.032,1,0
obs4,proficio,conj,hard,present,1.086,1,1
obs4,proficio,conj,mid,absent,0.873,1,0
obs4,proficio,conj,mid,absent,1.81,1,0
obs4,proficio,conj,hard,present,4.363,1,1
obs4,proficio,conj,mid,present,1.77,1,1
obs4,proficio,conj,hard,present,1.227,1,1
obs4,proficio,conj,hard,present,1.465,1,1
obs4,proficio,conj,mid,present,0.863,1,1
obs4,proficio,conj,hard,absent,1.056,1,0
obs4,proficio,conj,easy,absent,0.683,1,0
obs4,proficio,conj,easy,present,1.764,1,1
obs4,proficio,conj,hard,present,2.174,1,1
obs4,proficio,conj,mid,present,0.86,1,1
obs4,proficio,conj,hard,absent,1.395,1,0
obs4,proficio,conj,mid,absent,0.835,1,0
obs4,proficio,conj,hard,absent,1.028,1,0
obs4,proficio,conj,hard,absent,0.845,1,0
obs4,proficio,conj,mid,present,1.812,1,1
obs4,proficio,conj,easy,present,3.007,1,1
obs4,proficio,conj,hard,absent,0.789,1,0
obs4,proficio,conj,hard,absent,0.737,1,0
obs4,proficio,conj,easy,absent,1.078,1,0
obs4,proficio,conj,hard,absent,0.884,1,0
obs4,proficio,conj,mid,present,1.312,1,1
obs4,proficio,conj,hard,present,1.28,1,1
obs4,proficio,conj,easy,absent,7.338,1,0
obs4,proficio,conj,mid,absent,0.887,1,0
obs4,proficio,conj,hard,present,0.984,1,1
obs4,proficio,conj,hard,absent,1.536,1,0
obs4,proficio,conj,hard,present,1.465,1,1
obs4,proficio,conj,hard,absent,0.809,1,0
obs4,proficio,conj,hard,present,0.879,1,1
obs4,proficio,conj,hard,present,1.758,1,1
obs4,proficio,tex,easy,present,0.709,1,1
obs4,proficio,tex,hard,absent,1.277,1,0
obs4,proficio,tex,mid,present,0.806,1,1
obs4,proficio,tex,easy,present,0.958,1,1
obs4,proficio,tex,hard,absent,1.865,0,1
obs4,proficio,tex,mid,absent,1.176,1,0
obs4,proficio,tex,easy,absent,1.109,1,0
obs4,proficio,tex,easy,present,0.867,1,1
obs4,proficio,tex,hard,absent,3.492,1,0
obs4,proficio,tex,mid,present,1.608,1,1
obs4,proficio,tex,hard,present,1.445,0,0
obs4,proficio,tex,easy,absent,1.526,1,0
obs4,proficio,tex,mid,present,0.836,1,1
obs4,proficio,tex,hard,present,1.385,1,1
obs4,proficio,tex,easy,absent,1.619,1,0
obs4,proficio,tex,easy,present,0.698,1,1
obs4,proficio,tex,easy,absent,1.711,1,0
obs4,proficio,tex,hard,absent,5.058,1,0
obs4,proficio,tex,hard,absent,3.532,1,0
obs4,proficio,tex,mid,present,0.925,1,1
obs4,proficio,tex,mid,absent,1.619,1,0
obs4,proficio,tex,hard,present,2.14,1,1
obs4,proficio,tex,hard,absent,3.058,1,0
obs4,proficio,tex,easy,absent,0.961,1,0
obs4,proficio,tex,mid,absent,1.191,1,0
obs4,proficio,tex,hard,present,2.905,0,0
obs4,proficio,tex,mid,absent,3.066,1,0
obs4,proficio,tex,hard,absent,4.33,1,0
obs4,proficio,tex,mid,present,0.834,1,1
obs4,proficio,tex,mid,absent,1.555,1,0
obs4,proficio,tex,hard,present,2.143,0,0
obs4,proficio,tex,easy,present,0.976,1,1
obs4,proficio,tex,mid,present,0.913,1,1
obs4,proficio,tex,easy,absent,1.228,1,0
obs4,proficio,tex,hard,present,0.921,1,1
obs4,proficio,tex,hard,absent,4.05,1,0
obs4,proficio,tex,hard,absent,2.881,1,0
obs4,proficio,tex,easy,absent,1.061,1,0
obs4,proficio,tex,hard,absent,4.649,1,0
obs4,proficio,tex,hard,absent,3.186,1,0
obs4,proficio,tex,mid,absent,2.135,1,0
obs4,proficio,tex,easy,absent,1.858,1,0
obs4,proficio,tex,hard,absent,2.834,1,0
obs4,proficio,tex,hard,absent,2.101,1,0
obs4,proficio,tex,mid,present,0.667,1,1
obs4,proficio,tex,easy,present,0.644,1,1
obs4,proficio,tex,mid,present,1.176,1,1
obs4,proficio,tex,mid,absent,2.162,1,0
obs4,proficio,tex,mid,absent,1.867,1,0
obs4,proficio,tex,easy,present,0.699,1,1
obs4,proficio,tex,easy,absent,0.854,1,0
obs4,proficio,tex,mid,absent,3.043,1,0
obs4,proficio,tex,mid,absent,1.288,1,0
obs4,proficio,tex,mid,absent,1.397,1,0
obs4,proficio,tex,easy,present,0.675,1,1
obs4,proficio,tex,mid,present,1.053,1,1
obs4,proficio,tex,mid,present,1.591,1,1
obs4,proficio,tex,hard,present,1.424,0,0
obs4,proficio,tex,easy,present,1.656,1,1
obs4,proficio,tex,hard,present,0.913,1,1
obs4,proficio,tex,easy,absent,0.773,1,0
obs4,proficio,tex,mid,absent,1.408,1,0
obs4,proficio,tex,mid,present,1.017,1,1
obs4,proficio,tex,hard,present,2.066,0,0
obs4,proficio,tex,hard,absent,7.055,1,0
obs4,proficio,tex,mid,present,0.917,1,1
obs4,proficio,tex,mid,absent,0.767,0,1
obs4,proficio,tex,mid,absent,4.734,1,0
obs4,proficio,tex,hard,absent,1.893,1,0
obs4,proficio,tex,mid,present,0.664,1,1
obs4,proficio,tex,easy,absent,1.296,1,0
obs4,proficio,tex,mid,present,0.991,1,1
obs4,proficio,tex,easy,absent,1.866,1,0
obs4,proficio,tex,easy,present,0.763,1,1
obs4,proficio,tex,mid,present,2.195,1,1
obs4,proficio,tex,easy,present,0.802,1,1
obs4,proficio,tex,hard,present,1.009,1,1
obs4,proficio,tex,mid,absent,1.26,1,0
obs4,proficio,tex,easy,present,0.852,1,1
obs4,proficio,tex,mid,present,1.105,1,1
obs4,proficio,tex,hard,absent,2.538,1,0
obs4,proficio,tex,mid,present,0.933,1,1
obs4,proficio,tex,easy,absent,0.778,1,0
obs4,proficio,tex,mid,present,0.71,1,1
obs4,proficio,tex,mid,present,0.935,1,1
obs4,proficio,tex,mid,absent,1.778,1,0
obs4,proficio,tex,easy,absent,1.346,1,0
obs4,proficio,tex,easy,absent,1.595,1,0
obs4,proficio,tex,mid,present,0.749,1,1
obs4,proficio,tex,hard,present,1.324,1,1
obs4,proficio,tex,easy,present,0.873,1,1
obs4,proficio,tex,easy,present,0.746,1,1
obs4,proficio,tex,easy,absent,1.095,1,0
obs4,proficio,tex,mid,absent,1.473,1,0
obs4,proficio,tex,mid,absent,1.368,1,0
obs4,proficio,tex,mid,absent,1.24,1,0
obs4,proficio,tex,mid,absent,1.601,1,0
obs4,proficio,tex,hard,absent,2.48,1,0
obs4,proficio,tex,easy,present,0.644,1,1
obs4,proficio,tex,hard,present,1.735,1,1
obs4,proficio,tex,hard,present,2.547,1,1
obs4,proficio,tex,hard,absent,3.005,1,0
obs4,proficio,tex,hard,present,4.144,1,1
obs4,proficio,tex,easy,present,0.912,1,1
obs4,proficio,tex,mid,absent,1.795,1,0
obs4,proficio,tex,easy,present,0.707,1,1
obs4,proficio,tex,hard,present,1.381,1,1
obs4,proficio,tex,hard,present,1.637,1,1
obs4,proficio,tex,easy,present,1.256,1,1
obs4,proficio,tex,hard,absent,3.549,1,0
obs4,proficio,tex,easy,absent,0.788,1,0
obs4,proficio,tex,hard,present,1.074,1,1
obs4,proficio,tex,hard,present,1.183,1,1
obs4,proficio,tex,hard,present,1.066,1,1
obs4,proficio,tex,easy,absent,0.991,1,0
obs4,proficio,tex,mid,present,2.406,1,1
obs4,proficio,tex,mid,absent,0.626,0,1
obs4,proficio,tex,mid,present,0.725,1,1
obs4,proficio,tex,easy,absent,1.402,1,0
obs4,proficio,tex,hard,present,3.256,1,1
obs4,proficio,tex,mid,present,1.851,1,1
obs4,proficio,tex,easy,absent,1.01,1,0
obs4,proficio,tex,easy,present,0.608,1,1
obs4,proficio,tex,hard,absent,3.554,1,0
obs4,proficio,tex,hard,absent,2.035,1,0
obs4,proficio,tex,easy,absent,1.02,1,0
obs4,proficio,tex,easy,present,0.672,1,1
obs4,proficio,tex,easy,present,0.632,1,1
obs4,proficio,tex,easy,present,0.635,1,1
obs4,proficio,tex,easy,absent,1.025,1,0
obs4,proficio,tex,mid,absent,1.59,1,0
obs4,proficio,tex,hard,present,4.18,1,1
obs4,proficio,tex,easy,absent,1.024,1,0
obs4,proficio,tex,mid,present,0.857,1,1
obs4,proficio,tex,hard,present,3.983,0,0
obs4,proficio,tex,hard,present,3.668,1,1
obs4,proficio,tex,mid,present,1.273,1,1
obs4,proficio,tex,hard,absent,4.832,1,0
obs4,proficio,tex,hard,absent,4.418,1,0
obs4,proficio,tex,easy,present,0.695,1,1
obs4,proficio,tex,easy,present,0.506,1,1
obs4,proficio,tex,easy,present,0.468,1,1
obs4,proficio,tex,hard,absent,4.189,1,0
obs4,proficio,tex,mid,absent,1.572,1,0
obs4,proficio,tex,hard,present,1.03,1,1
obs4,proficio,tex,easy,absent,0.968,1,0
obs4,proficio,tex,hard,present,2.491,0,0
obs4,proficio,tex,easy,absent,0.778,1,0
obs4,proficio,tex,mid,absent,0.605,1,0
obs4,proficio,tex,hard,absent,2.308,1,0
obs4,proficio,ori,hard,present,2.028,1,1
obs4,proficio,ori,mid,present,2.817,1,1
obs4,proficio,ori,mid,present,2.593,1,1
obs4,proficio,ori,hard,present,5.224,0,0
obs4,proficio,ori,easy,absent,1.52,1,0
obs4,proficio,ori,mid,absent,9.712,1,0
obs4,proficio,ori,mid,absent,8.832,1,0
obs4,proficio,ori,mid,absent,4.927,1,0
obs4,proficio,ori,easy,present,1.04,1,1
obs4,proficio,ori,easy,absent,3.528,1,0
obs4,proficio,ori,easy,present,1.211,1,1
obs4,proficio,ori,hard,present,11.423,0,0
obs4,proficio,ori,hard,present,18.566,0,0
obs4,proficio,ori,mid,absent,1.263,1,0
obs4,proficio,ori,easy,present,1.073,1,1
obs4,proficio,ori,easy,present,0.82,1,1
obs4,proficio,ori,mid,present,1.172,1,1
obs4,proficio,ori,easy,absent,2.056,1,0
obs4,proficio,ori,easy,present,0.69,1,1
obs4,proficio,ori,hard,present,12.607,0,0
obs4,proficio,ori,easy,absent,1.936,1,0
obs4,proficio,ori,easy,absent,2.581,1,0
obs4,proficio,ori,easy,absent,2.113,1,0
obs4,proficio,ori,hard,present,17.511,0,0
obs4,proficio,ori,mid,present,1.58,1,1
obs4,proficio,ori,mid,absent,3.639,1,0
obs4,proficio,ori,mid,absent,6,1,0
obs4,proficio,ori,hard,absent,5.194,0,1
obs4,proficio,ori,hard,absent,6.465,1,0
obs4,proficio,ori,easy,present,0.903,1,1
obs4,proficio,ori,easy,present,0.631,1,1
obs4,proficio,ori,hard,present,8.146,1,1
obs4,proficio,ori,hard,absent,10.628,1,0
obs4,proficio,ori,hard,absent,9.025,1,0
obs4,proficio,ori,easy,absent,1.212,1,0
obs4,proficio,ori,easy,absent,2.4,1,0
obs4,proficio,ori,mid,present,1.853,1,1
obs4,proficio,ori,hard,present,1.793,1,1
obs4,proficio,ori,hard,absent,4.218,1,0
obs4,proficio,ori,easy,absent,1.007,1,0
obs4,proficio,ori,easy,absent,0.624,1,0
obs4,proficio,ori,mid,present,1.604,1,1
obs4,proficio,ori,easy,absent,1.08,1,0
obs4,proficio,ori,mid,absent,4.139,1,0
obs4,proficio,ori,mid,present,1.477,1,1
obs4,proficio,ori,easy,present,0.682,1,1
obs4,proficio,ori,hard,absent,8.342,1,0
obs4,proficio,ori,hard,present,16.078,1,1
obs4,proficio,ori,hard,absent,5.045,1,0
obs4,proficio,ori,hard,present,4.883,0,0
obs4,proficio,ori,mid,present,1.142,1,1
obs4,proficio,ori,easy,present,0.614,1,1
obs4,proficio,ori,easy,present,0.572,1,1
obs4,proficio,ori,hard,present,5.452,1,1
obs4,proficio,ori,mid,present,1.086,1,1
obs4,proficio,ori,mid,present,2.181,1,1
obs4,proficio,ori,hard,present,8.906,0,0
obs4,proficio,ori,easy,present,0.764,1,1
obs4,proficio,ori,mid,absent,13.619,1,0
obs4,proficio,ori,easy,absent,0.906,1,0
obs4,proficio,ori,mid,absent,8.081,1,0
obs4,proficio,ori,mid,absent,3.415,1,0
obs4,proficio,ori,hard,present,2.094,1,1
obs4,proficio,ori,easy,absent,1.371,1,0
obs4,proficio,ori,mid,absent,5.188,1,0
obs4,proficio,ori,hard,absent,1.539,0,1
obs4,proficio,ori,hard,present,2.757,1,1
obs4,proficio,ori,easy,absent,0.913,1,0
obs4,proficio,ori,hard,absent,11.274,1,0
obs4,proficio,ori,hard,present,2.365,1,1
obs4,proficio,ori,easy,absent,0.879,1,0
obs4,proficio,ori,hard,absent,2.617,0,1
obs4,proficio,ori,easy,absent,0.817,1,0
obs4,proficio,ori,hard,absent,8.726,1,0
obs4,proficio,ori,mid,absent,10.405,1,0
obs4,proficio,ori,mid,absent,3.081,1,0
obs4,proficio,ori,mid,absent,5.743,1,0
obs4,proficio,ori,mid,absent,3.296,1,0
obs4,proficio,ori,easy,present,0.667,1,1
obs4,proficio,ori,hard,absent,0.902,0,1
obs4,proficio,ori,mid,present,4.017,1,1
obs4,proficio,ori,hard,present,4.532,0,0
obs4,proficio,ori,easy,absent,2.56,1,0
obs4,proficio,ori,hard,absent,6.287,1,0
obs4,proficio,ori,mid,present,1.36,1,1
obs4,proficio,ori,easy,absent,0.891,1,0
obs4,proficio,ori,mid,absent,7.382,1,0
obs4,proficio,ori,easy,present,0.64,1,1
obs4,proficio,ori,hard,absent,9.609,1,0
obs4,proficio,ori,easy,absent,0.733,1,0
obs4,proficio,ori,easy,present,0.687,1,1
obs4,proficio,ori,mid,present,1.005,1,1
obs4,proficio,ori,mid,present,1.905,1,1
obs4,proficio,ori,easy,present,0.64,1,1
obs4,proficio,ori,hard,absent,2.029,1,0
obs4,proficio,ori,hard,present,9.448,0,0
obs4,proficio,ori,easy,present,0.821,1,1
obs4,proficio,ori,mid,absent,6.007,1,0
obs4,proficio,ori,hard,absent,7.677,1,0
obs4,proficio,ori,mid,absent,3.369,1,0
obs4,proficio,ori,hard,present,4.142,1,1
obs4,proficio,ori,easy,absent,1.45,1,0
obs4,proficio,ori,easy,present,0.615,1,1
obs4,proficio,ori,easy,present,0.672,1,1
obs4,proficio,ori,mid,absent,3.26,1,0
obs4,proficio,ori,easy,present,0.965,1,1
obs4,proficio,ori,hard,absent,11.062,1,0
obs4,proficio,ori,hard,present,2.243,1,1
obs4,proficio,ori,mid,present,0.798,1,1
obs4,proficio,ori,easy,present,0.592,1,1
obs4,proficio,ori,hard,present,7.88,0,0
obs4,proficio,ori,mid,present,0.859,1,1
obs4,proficio,ori,hard,present,11.544,0,0
obs4,proficio,ori,mid,present,2.374,1,1
obs4,proficio,ori,hard,absent,7.055,0,1
obs4,proficio,ori,hard,absent,4.557,1,0
obs4,proficio,ori,easy,absent,0.851,1,0
obs4,proficio,ori,easy,absent,1.486,1,0
obs4,proficio,ori,mid,absent,13.644,1,0
obs4,proficio,ori,hard,absent,10.442,1,0
obs4,proficio,ori,mid,present,2.426,1,1
obs4,proficio,ori,hard,absent,6.598,0,1
obs4,proficio,ori,easy,absent,0.992,1,0
obs4,proficio,ori,mid,present,1.486,1,1
obs4,proficio,ori,hard,absent,3.932,1,0
obs4,proficio,ori,mid,present,0.79,1,1
obs4,proficio,ori,hard,present,4.686,0,0
obs4,proficio,ori,mid,absent,4.357,1,0
obs4,proficio,ori,easy,absent,0.827,1,0
obs4,proficio,ori,hard,absent,8.581,1,0
obs4,proficio,ori,easy,absent,0.722,1,0
obs4,proficio,ori,mid,absent,3.144,1,0
obs4,proficio,ori,hard,present,5.595,1,1
obs4,proficio,ori,mid,absent,7.132,1,0
obs4,proficio,ori,hard,present,3.742,0,0
obs4,proficio,ori,easy,present,0.722,1,1
obs4,proficio,ori,hard,absent,6.926,1,0
obs4,proficio,ori,hard,absent,6.381,1,0
obs4,proficio,ori,easy,present,0.614,1,1
obs4,proficio,ori,hard,present,2.629,1,1
obs4,proficio,ori,mid,absent,2.346,1,0
obs4,proficio,ori,easy,present,0.674,1,1
obs4,proficio,ori,mid,present,1.798,1,1
obs4,proficio,ori,mid,present,0.795,1,1
obs4,proficio,ori,mid,absent,5.727,1,0
obs4,proficio,ori,mid,present,0.888,1,1
obs4,proficio,ori,easy,present,0.686,1,1
obs4,proficio,ori,mid,present,0.813,1,1
obs4,proficio,ori,mid,present,0.841,1,1
obs4,proficio,ori,easy,present,0.602,1,1
obs5,proficio,ori,mid,absent,47.52668,1,0
obs5,proficio,ori,easy,present,4.91704,1,1
obs5,proficio,ori,hard,present,53.31795,0,0
obs5,proficio,ori,easy,absent,15.383115,1,0
obs5,proficio,ori,easy,absent,18.501185,1,0
obs5,proficio,ori,easy,present,0.95025,1,1
obs5,proficio,ori,easy,present,1.85037,1,1
obs5,proficio,ori,hard,present,24.584595,0,0
obs5,proficio,ori,hard,absent,33.968625,1,0
obs5,proficio,ori,mid,present,33.68449,1,1
obs5,proficio,ori,easy,present,1.51703,1,1
obs5,proficio,ori,mid,absent,19.20052,1,0
obs5,proficio,ori,mid,present,4.717875,1,1
obs5,proficio,ori,hard,absent,38.33497,1,0
obs5,proficio,ori,hard,present,31.317485,1,1
obs5,proficio,ori,easy,present,1.100055,1,1
obs5,proficio,ori,mid,absent,25.78556,1,0
obs5,proficio,ori,hard,present,27.33389,0,0
obs5,proficio,ori,hard,absent,49.10245,1,0
obs5,proficio,ori,easy,present,0.76499,1,1
obs5,proficio,ori,mid,present,8.832005,1,1
obs5,proficio,ori,mid,absent,10.0174,1,0
obs5,proficio,ori,mid,absent,22.58397,1,0
obs5,proficio,ori,hard,present,45.9159,0,0
obs5,proficio,ori,hard,present,2.100975,1,1
obs5,proficio,ori,easy,present,1.25023,1,1
obs5,proficio,ori,hard,present,27.368015,0,0
obs5,proficio,ori,hard,absent,33.0006,1,0
obs5,proficio,ori,easy,absent,7.3326,1,0
obs5,proficio,ori,mid,absent,29.350145,1,0
obs5,proficio,ori,mid,absent,24.16713,1,0
obs5,proficio,ori,easy,absent,4.899565,1,0
obs5,proficio,ori,mid,present,1.316865,1,1
obs5,proficio,ori,easy,present,0.966945,1,1
obs5,proficio,ori,mid,present,1.632665,1,1
obs5,proficio,ori,hard,absent,13.083575,1,0
obs5,proficio,ori,easy,present,0.984975,1,1
obs5,proficio,ori,hard,present,17.6509,1,1
obs5,proficio,ori,mid,present,20.13411,0,0
obs5,proficio,ori,mid,present,1.250315,1,1
obs5,proficio,ori,mid,absent,21.66764,1,0
obs5,proficio,ori,hard,present,11.951165,1,1
obs5,proficio,ori,hard,absent,18.66746,1,0
obs5,proficio,ori,hard,absent,17.718685,1,0
obs5,proficio,ori,mid,present,9.317325,1,1
obs5,proficio,ori,hard,absent,20.38461,1,0
obs5,proficio,ori,easy,present,0.599125,1,1
obs5,proficio,ori,hard,present,11.267095,0,0
obs5,proficio,ori,hard,absent,19.634215,1,0
obs5,proficio,ori,mid,present,1.767225,1,1
obs5,proficio,ori,mid,present,7.01716,1,1
obs5,proficio,ori,hard,absent,18.46608,1,0
obs5,proficio,ori,hard,present,15.317125,1,1
obs5,proficio,ori,easy,present,0.65168,1,1
obs5,proficio,ori,hard,present,16.5339,1,1
obs5,proficio,ori,hard,absent,23.00072,1,0
obs5,proficio,ori,mid,present,0.93463,1,1
obs5,proficio,ori,easy,absent,4.90033,1,0
obs5,proficio,ori,hard,absent,18.500015,1,0
obs5,proficio,ori,mid,absent,5.250175,1,0
obs5,proficio,ori,mid,present,0.948985,1,1
obs5,proficio,ori,easy,absent,3.88386,1,0
obs5,proficio,ori,easy,absent,4.08449,1,0
obs5,proficio,ori,hard,present,21.95063,0,0
obs5,proficio,ori,mid,present,8.833735,1,1
obs5,proficio,ori,mid,present,1.11686,1,1
obs5,proficio,ori,easy,absent,5.233235,1,0
obs5,proficio,ori,easy,present,0.832435,1,1
obs5,proficio,ori,mid,present,14.950375,0,0
obs5,proficio,ori,mid,present,18.850235,0,0
obs5,proficio,ori,easy,absent,4.480935,1,0
obs5,proficio,ori,hard,absent,27.250825,1,0
obs5,proficio,ori,hard,absent,22.867555,1,0
obs5,proficio,ori,hard,absent,31.79973,1,0
obs5,proficio,ori,hard,absent,32.80081,1,0
obs5,proficio,ori,hard,absent,27.64934,1,0
obs5,proficio,ori,easy,present,1.03425,1,1
obs5,proficio,ori,easy,absent,4.000245,1,0
obs5,proficio,ori,easy,absent,5.183995,1,0
obs5,proficio,ori,mid,absent,17.967145,1,0
obs5,proficio,ori,hard,absent,20.583775,1,0
obs5,proficio,ori,mid,absent,5.33368,1,0
obs5,proficio,ori,hard,present,10.15077,0,0
obs5,proficio,ori,mid,present,1.19883,1,1
obs5,proficio,ori,mid,absent,6.53369,1,0
obs5,proficio,ori,mid,present,0.833545,1,1
obs5,proficio,ori,mid,absent,14.966855,1,0
obs5,proficio,ori,easy,absent,2.40073,1,0
obs5,proficio,ori,hard,present,16.285105,0,0
obs5,proficio,ori,easy,present,0.800785,1,1
obs5,proficio,ori,easy,absent,4.183255,1,0
obs5,proficio,ori,easy,absent,4.09987,1,0
obs5,proficio,ori,hard,present,16.65061,0,0
obs5,proficio,ori,hard,present,31.984395,0,0
obs5,proficio,ori,hard,present,26.18387,0,0
obs5,proficio,ori,mid,absent,6.13347,1,0
obs5,proficio,ori,hard,absent,23.66827,1,0
obs5,proficio,ori,hard,absent,21.13396,1,0
obs5,proficio,ori,mid,absent,24.41769,1,0
obs5,proficio,ori,hard,present,20.4188,0,0
obs5,proficio,ori,easy,present,1.150345,1,1
obs5,proficio,ori,hard,present,4.2331,1,1
obs5,proficio,ori,mid,absent,19.985095,1,0
obs5,proficio,ori,mid,absent,6.94928,1,0
obs5,proficio,ori,hard,present,11.05028,0,0
obs5,proficio,ori,easy,absent,2.716675,1,0
obs5,proficio,ori,hard,present,26.183975,0,0
obs5,proficio,ori,easy,present,0.867625,1,1
obs5,proficio,ori,mid,absent,25.234575,1,0
obs5,proficio,ori,hard,absent,17.75064,1,0
obs5,proficio,ori,easy,absent,4.716835,1,0
obs5,proficio,ori,hard,present,19.451385,0,0
obs5,proficio,ori,easy,absent,4.066355,1,0
obs5,proficio,ori,easy,absent,2.65036,1,0
obs5,proficio,ori,easy,absent,1.86703,1,0
obs5,proficio,ori,mid,absent,3.13341,1,0
obs5,proficio,ori,easy,absent,2.4819,1,0
obs5,proficio,ori,easy,present,0.633585,1,1
obs5,proficio,ori,mid,absent,12.9004,1,0
obs5,proficio,ori,mid,present,1.06779,1,1
obs5,proficio,ori,easy,present,0.616805,1,1
obs5,proficio,ori,mid,present,0.85064,1,1
obs5,proficio,ori,mid,absent,5.21711,1,0
obs5,proficio,ori,mid,present,0.851565,1,1
obs5,proficio,ori,easy,present,0.80003,1,1
obs5,proficio,ori,easy,present,0.566615,1,1
obs5,proficio,ori,easy,present,0.60075,1,1
obs5,proficio,ori,easy,absent,3.16615,1,0
obs5,proficio,ori,mid,present,0.832035,1,1
obs5,proficio,ori,easy,absent,1.766455,1,0
obs5,proficio,ori,easy,present,0.633725,1,1
obs5,proficio,ori,easy,absent,1.433525,1,0
obs5,proficio,ori,hard,absent,15.8325,1,0
obs5,proficio,ori,easy,present,0.585175,1,1
obs5,proficio,ori,mid,present,0.916315,1,1
obs5,proficio,ori,easy,present,0.634275,1,1
obs5,proficio,ori,easy,absent,2.50123,1,0
obs5,proficio,ori,hard,absent,14.11665,1,0
obs5,proficio,ori,hard,present,3.035325,1,1
obs5,proficio,ori,mid,absent,3.71706,1,0
obs5,proficio,ori,hard,absent,7.683725,1,0
obs5,proficio,ori,mid,absent,2.068185,1,0
obs5,proficio,ori,easy,absent,2.233305,1,0
obs5,proficio,ori,mid,absent,4.416875,1,0
obs5,proficio,ori,mid,present,7.033075,1,1
obs5,proficio,ori,hard,present,2.249305,1,1
obs5,proficio,ori,mid,absent,11.8337,1,0
obs5,proficio,ori,hard,absent,13.834845,1,0
obs5,proficio,ori,easy,present,0.91401,1,1
obs5,proficio,ori,mid,present,1.0013,1,1
obs5,proficio,tex,mid,present,3.109955,1,1
obs5,proficio,tex,mid,present,2.50035,1,1
obs5,proficio,tex,mid,absent,10.15006,1,0
obs5,proficio,tex,mid,absent,4.96583,1,0
obs5,proficio,tex,hard,absent,8.249925,1,0
obs5,proficio,tex,hard,present,6.516805,0,0
obs5,proficio,tex,mid,present,1.199995,1,1
obs5,proficio,tex,hard,absent,7.232645,1,0
obs5,proficio,tex,easy,present,2.53347,1,1
obs5,proficio,tex,mid,present,1.550025,1,1
obs5,proficio,tex,hard,absent,9.483135,1,0
obs5,proficio,tex,mid,present,0.80005,1,1
obs5,proficio,tex,easy,absent,6.217425,1,0
obs5,proficio,tex,hard,absent,4.932385,1,0
obs5,proficio,tex,mid,absent,3.300365,1,0
obs5,proficio,tex,easy,absent,9.03363,1,0
obs5,proficio,tex,hard,absent,7.377675,1,0
obs5,proficio,tex,hard,present,0.849195,1,1
obs5,proficio,tex,mid,absent,6.89909,1,0
obs5,proficio,tex,mid,absent,5.415675,1,0
obs5,proficio,tex,easy,present,0.817575,1,1
obs5,proficio,tex,easy,present,0.648545,1,1
obs5,proficio,tex,easy,present,0.56757,1,1
obs5,proficio,tex,hard,present,5.03344,0,0
obs5,proficio,tex,easy,present,0.58288,1,1
obs5,proficio,tex,easy,absent,3.73222,1,0
obs5,proficio,tex,easy,absent,3.534935,1,0
obs5,proficio,tex,hard,present,0.934595,1,1
obs5,proficio,tex,easy,present,0.63191,1,1
obs5,proficio,tex,easy,absent,3.91744,1,0
obs5,proficio,tex,hard,absent,7.18495,1,0
obs5,proficio,tex,hard,absent,6.166625,1,0
obs5,proficio,tex,easy,present,0.834015,1,1
obs5,proficio,tex,easy,present,1.183255,1,1
obs5,proficio,tex,hard,absent,6.332075,1,0
obs5,proficio,tex,hard,absent,5.300985,1,0
obs5,proficio,tex,easy,present,0.59915,1,1
obs5,proficio,tex,mid,absent,9.23368,1,0
obs5,proficio,tex,easy,absent,2.649325,1,0
obs5,proficio,tex,hard,absent,12.799545,1,0
obs5,proficio,tex,hard,absent,3.882475,1,0
obs5,proficio,tex,hard,present,4.35093,0,0
obs5,proficio,tex,easy,absent,2.015665,1,0
obs5,proficio,tex,hard,present,2.6166,0,0
obs5,proficio,tex,easy,absent,1.850615,1,0
obs5,proficio,tex,easy,present,0.583365,1,1
obs5,proficio,tex,easy,absent,1.3499,1,0
obs5,proficio,tex,easy,absent,2.0009,1,0
obs5,proficio,tex,hard,present,4.96697,0,0
obs5,proficio,tex,easy,present,0.73341,1,1
obs5,proficio,tex,easy,absent,1.265325,1,0
obs5,proficio,tex,easy,present,0.949925,1,1
obs5,proficio,tex,easy,present,0.617235,1,1
obs5,proficio,tex,easy,absent,2.39903,1,0
obs5,proficio,tex,easy,present,1.16777,1,1
obs5,proficio,tex,mid,absent,2.900255,1,0
obs5,proficio,tex,hard,present,1.833185,1,1
obs5,proficio,tex,hard,absent,16.300845,1,0
obs5,proficio,tex,mid,present,1.11665,1,1
obs5,proficio,tex,mid,absent,7.65058,1,0
obs5,proficio,tex,easy,absent,2.7167,1,0
obs5,proficio,tex,hard,absent,4.267445,1,0
obs5,proficio,tex,hard,present,5.96691,0,0
obs5,proficio,tex,easy,absent,4.63437,1,0
obs5,proficio,tex,easy,absent,4.55019,1,0
obs5,proficio,tex,mid,absent,11.36602,1,0
obs5,proficio,tex,mid,present,0.732485,1,1
obs5,proficio,tex,mid,present,1.76694,1,1
obs5,proficio,tex,easy,absent,1.69947,1,0
obs5,proficio,tex,mid,present,0.800055,1,1
obs5,proficio,tex,mid,present,4.86691,0,0
obs5,proficio,tex,hard,present,5.68357,0,0
obs5,proficio,tex,easy,present,0.833295,1,1
obs5,proficio,tex,hard,present,6.48339,0,0
obs5,proficio,tex,mid,present,0.80013,1,1
obs5,proficio,tex,hard,present,1.466575,1,1
obs5,proficio,tex,mid,present,0.7668,1,1
obs5,proficio,tex,hard,present,10.666965,1,1
obs5,proficio,tex,hard,absent,9.683585,1,0
obs5,proficio,tex,hard,present,4.46621,0,0
obs5,proficio,tex,mid,present,1.39909,1,1
obs5,proficio,tex,mid,present,0.999985,1,1
obs5,proficio,tex,easy,present,0.63313,1,1
obs5,proficio,tex,mid,absent,0.765145,0,1
obs5,proficio,tex,easy,absent,3.41677,1,0
obs5,proficio,tex,mid,absent,2.78326,1,0
obs5,proficio,tex,mid,present,1.01556,1,1
obs5,proficio,tex,easy,absent,2.18344,1,0
obs5,proficio,tex,easy,absent,1.84959,1,0
obs5,proficio,tex,hard,absent,3.532765,1,0
obs5,proficio,tex,hard,absent,2.95005,1,0
obs5,proficio,tex,mid,absent,3.41653,1,0
obs5,proficio,tex,easy,absent,2.54988,1,0
obs5,proficio,tex,hard,present,6.469985,0,0
obs5,proficio,tex,hard,present,3.8005,0,0
obs5,proficio,tex,easy,present,0.68403,1,1
obs5,proficio,tex,easy,present,0.616475,1,1
obs5,proficio,tex,mid,present,0.6334,1,1
obs5,proficio,tex,easy,absent,2.000025,1,0
obs5,proficio,tex,mid,present,1.084265,1,1
obs5,proficio,tex,easy,present,1.13328,1,1
obs5,proficio,tex,hard,present,5.01681,1,1
obs5,proficio,tex,hard,absent,9.73503,1,0
obs5,proficio,tex,mid,absent,7.317335,1,0
obs5,proficio,tex,easy,absent,2.89907,1,0
obs5,proficio,tex,mid,present,0.716015,1,1
obs5,proficio,tex,easy,present,0.59848,1,1
obs5,proficio,tex,easy,present,0.583305,1,1
obs5,proficio,tex,mid,absent,5.948685,1,0
obs5,proficio,tex,hard,absent,13.466095,1,0
obs5,proficio,tex,hard,present,9.398845,0,0
obs5,proficio,tex,mid,present,1.866095,1,1
obs5,proficio,tex,hard,absent,2.401635,1,0
obs5,proficio,tex,hard,present,4.065985,0,0
obs5,proficio,tex,mid,absent,2.350025,1,0
obs5,proficio,tex,mid,present,0.7833,1,1
obs5,proficio,tex,hard,absent,5.350255,1,0
obs5,proficio,tex,easy,present,0.804535,1,1
obs5,proficio,tex,easy,present,0.64968,1,1
obs5,proficio,tex,hard,absent,5.66656,1,0
obs5,proficio,tex,hard,present,0.783565,1,1
obs5,proficio,tex,mid,present,0.966915,1,1
obs5,proficio,tex,mid,present,4.09986,1,1
obs5,proficio,tex,hard,absent,6.766245,1,0
obs5,proficio,tex,mid,present,0.86777,1,1
obs5,proficio,tex,mid,absent,12.033415,1,0
obs5,proficio,tex,easy,absent,2.667015,1,0
obs5,proficio,tex,mid,absent,0.749265,0,1
obs5,proficio,tex,hard,absent,5.06754,1,0
obs5,proficio,tex,hard,present,4.633535,0,0
obs5,proficio,tex,easy,present,0.78279,1,1
obs5,proficio,tex,hard,present,4.24922,0,0
obs5,proficio,tex,mid,absent,2.417315,1,0
obs5,proficio,tex,hard,absent,2.9665,1,0
obs5,proficio,tex,mid,absent,1.89937,1,0
obs5,proficio,tex,hard,present,2.28252,0,0
obs5,proficio,tex,easy,absent,2.166505,1,0
obs5,proficio,tex,mid,absent,2.31663,1,0
obs5,proficio,tex,hard,absent,2.565725,1,0
obs5,proficio,tex,mid,absent,3.34985,1,0
obs5,proficio,tex,mid,present,1.25014,1,1
obs5,proficio,tex,mid,absent,3.150375,1,0
obs5,proficio,tex,mid,present,1.066635,1,1
obs5,proficio,tex,easy,absent,1.56756,1,0
obs5,proficio,tex,easy,present,0.650265,1,1
obs5,proficio,tex,mid,absent,2.54993,1,0
obs5,proficio,tex,mid,absent,3.467005,1,0
obs5,proficio,tex,mid,absent,3.199115,1,0
obs5,proficio,tex,hard,present,0.95119,1,1
obs5,proficio,tex,hard,present,3.600645,0,0
obs5,proficio,conj,mid,present,1.19809,1,1
obs5,proficio,conj,easy,absent,0.86945,1,0
obs5,proficio,conj,mid,present,0.933375,1,1
obs5,proficio,conj,mid,present,1.06608,0,0
obs5,proficio,conj,mid,absent,0.95015,1,0
obs5,proficio,conj,mid,absent,0.86635,1,0
obs5,proficio,conj,mid,absent,1.0386,1,0
obs5,proficio,conj,mid,absent,1.150705,1,0
obs5,proficio,conj,hard,present,1.231925,1,1
obs5,proficio,conj,easy,absent,0.849905,1,0
obs5,proficio,conj,hard,present,1.731705,1,1
obs5,proficio,conj,hard,present,0.8192,1,1
obs5,proficio,conj,hard,present,1.116945,1,1
obs5,proficio,conj,hard,absent,1.63389,1,0
obs5,proficio,conj,mid,present,1.266605,1,1
obs5,proficio,conj,mid,absent,1.0813,1,0
obs5,proficio,conj,easy,absent,1.24923,1,0
obs5,proficio,conj,easy,present,0.766005,1,1
obs5,proficio,conj,mid,present,0.883805,1,1
obs5,proficio,conj,mid,absent,2.213115,1,0
obs5,proficio,conj,hard,absent,1.71772,1,0
obs5,proficio,conj,easy,present,0.66765,1,1
obs5,proficio,conj,mid,present,0.71545,1,1
obs5,proficio,conj,mid,present,0.63293,1,1
obs5,proficio,conj,mid,absent,0.89992,1,0
obs5,proficio,conj,hard,present,0.7665,1,1
obs5,proficio,conj,hard,absent,1.283205,1,0
obs5,proficio,conj,hard,present,0.683545,1,1
obs5,proficio,conj,easy,present,0.980705,1,1
obs5,proficio,conj,easy,present,0.67086,1,1
obs5,proficio,conj,hard,present,0.73277,1,1
obs5,proficio,conj,hard,absent,0.98177,1,0
obs5,proficio,conj,hard,absent,1.2989,1,0
obs5,proficio,conj,hard,present,0.69841,1,1
obs5,proficio,conj,mid,absent,1.7166,1,0
obs5,proficio,conj,easy,absent,0.904575,1,0
obs5,proficio,conj,easy,absent,0.682525,1,0
obs5,proficio,conj,hard,absent,1.76658,1,0
obs5,proficio,conj,mid,present,1.397015,1,1
obs5,proficio,conj,easy,present,1.083225,1,1
obs5,proficio,conj,easy,absent,1.151675,1,0
obs5,proficio,conj,mid,present,0.98448,1,1
obs5,proficio,conj,easy,absent,1.38311,1,0
obs5,proficio,conj,hard,present,1.149685,1,1
obs5,proficio,conj,hard,present,0.686055,1,1
obs5,proficio,conj,mid,present,0.71537,1,1
obs5,proficio,conj,easy,present,0.818045,1,1
obs5,proficio,conj,easy,absent,0.850545,1,0
obs5,proficio,conj,mid,absent,1.216245,1,0
obs5,proficio,conj,mid,present,0.849665,1,1
obs5,proficio,conj,mid,present,0.637355,1,1
obs5,proficio,conj,easy,present,1.213415,1,1
obs5,proficio,conj,hard,absent,1.433055,1,0
obs5,proficio,conj,easy,present,0.699445,1,1
obs5,proficio,conj,hard,absent,1.68298,1,0
obs5,proficio,conj,easy,absent,0.96707,1,0
obs5,proficio,conj,mid,absent,0.816605,1,0
obs5,proficio,conj,easy,present,0.866255,1,1
obs5,proficio,conj,hard,present,0.699345,1,1
obs5,proficio,conj,hard,present,1.16533,0,0
obs5,proficio,conj,hard,absent,2.19954,1,0
obs5,proficio,conj,easy,absent,0.750815,1,0
obs5,proficio,conj,mid,absent,0.73303,1,0
obs5,proficio,conj,mid,present,0.85017,1,1
obs5,proficio,conj,easy,absent,1.01628,1,0
obs5,proficio,conj,hard,absent,1.334995,1,0
obs5,proficio,conj,hard,absent,1.31618,1,0
obs5,proficio,conj,hard,absent,1.03098,1,0
obs5,proficio,conj,hard,absent,2.419645,1,0
obs5,proficio,conj,mid,present,0.650015,1,1
obs5,proficio,conj,mid,present,0.766745,1,1
obs5,proficio,conj,hard,present,0.667695,1,1
obs5,proficio,conj,easy,present,0.78296,1,1
obs5,proficio,conj,easy,present,0.83317,1,1
obs5,proficio,conj,mid,present,0.683065,1,1
obs5,proficio,conj,easy,present,0.66578,1,1
obs5,proficio,conj,easy,present,0.914935,1,1
obs5,proficio,conj,easy,absent,0.883125,1,0
obs5,proficio,conj,mid,absent,0.916445,1,0
obs5,proficio,conj,easy,present,0.85006,0,0
obs5,proficio,conj,mid,absent,1.54838,1,0
obs5,proficio,conj,mid,present,0.66737,1,1
obs5,proficio,conj,easy,present,0.602605,1,1
obs5,proficio,conj,hard,absent,0.648765,1,0
obs5,proficio,conj,easy,present,0.59968,1,1
obs5,proficio,conj,easy,present,0.63292,1,1
obs5,proficio,conj,hard,present,0.64976,1,1
obs5,proficio,conj,easy,absent,0.677985,1,0
obs5,proficio,conj,mid,absent,0.76371,1,0
obs5,proficio,conj,mid,present,1.484215,1,1
obs5,proficio,conj,easy,present,1.56595,1,1
obs5,proficio,conj,mid,absent,0.89961,1,0
obs5,proficio,conj,mid,absent,0.83481,1,0
obs5,proficio,conj,hard,absent,2.08273,1,0
obs5,proficio,conj,easy,present,0.58315,1,1
obs5,proficio,conj,easy,absent,1.034685,1,0
obs5,proficio,conj,hard,absent,0.920365,1,0
obs5,proficio,conj,mid,absent,0.782775,1,0
obs5,proficio,conj,mid,absent,0.74966,1,0
obs5,proficio,conj,hard,present,0.777835,1,1
obs5,proficio,conj,mid,absent,1.049705,1,0
obs5,proficio,conj,easy,present,1.399265,1,1
obs5,proficio,conj,mid,absent,0.850525,1,0
obs5,proficio,conj,mid,absent,1.049215,1,0
obs5,proficio,conj,mid,present,0.93348,1,1
obs5,proficio,conj,easy,absent,0.76521,1,0
obs5,proficio,conj,easy,absent,0.849695,1,0
obs5,proficio,conj,easy,present,1.014595,1,1
obs5,proficio,conj,hard,absent,0.83138,1,0
obs5,proficio,conj,hard,present,0.91643,0,0
obs5,proficio,conj,hard,present,1.282585,1,1
obs5,proficio,conj,easy,absent,0.780585,1,0
obs5,proficio,conj,hard,absent,1.832535,1,0
obs5,proficio,conj,easy,absent,0.849655,1,0
obs5,proficio,conj,hard,present,0.78024,1,1
obs5,proficio,conj,easy,absent,0.649705,1,0
obs5,proficio,conj,easy,present,0.617255,1,1
obs5,proficio,conj,mid,present,0.616675,1,1
obs5,proficio,conj,mid,present,0.78388,0,0
obs5,proficio,conj,hard,present,0.94938,1,1
obs5,proficio,conj,easy,absent,0.733,1,0
obs5,proficio,conj,hard,absent,0.91625,1,0
obs5,proficio,conj,hard,absent,0.817565,1,0
obs5,proficio,conj,mid,present,0.98292,1,1
obs5,proficio,conj,easy,absent,0.94995,1,0
obs5,proficio,conj,hard,present,0.701725,1,1
obs5,proficio,conj,mid,absent,0.76478,1,0
obs5,proficio,conj,easy,absent,0.75177,1,0
obs5,proficio,conj,hard,present,1.233305,1,1
obs5,proficio,conj,mid,absent,1.18199,1,0
obs5,proficio,conj,mid,present,0.749785,1,1
obs5,proficio,conj,hard,present,0.91603,1,1
obs5,proficio,conj,hard,present,0.883035,1,1
obs5,proficio,conj,easy,present,0.58308,1,1
obs5,proficio,conj,hard,absent,0.932635,1,0
obs5,proficio,conj,easy,present,0.6994,0,0
obs5,proficio,conj,mid,present,1.13301,0,0
obs5,proficio,conj,easy,absent,1.381535,1,0
obs5,proficio,conj,hard,absent,1.33422,1,0
obs5,proficio,conj,hard,present,0.667965,1,1
obs5,proficio,conj,mid,absent,1.68317,1,0
obs5,proficio,conj,hard,absent,1.19824,1,0
obs5,proficio,conj,hard,absent,1.295725,1,0
obs5,proficio,conj,hard,present,0.934675,1,1
obs5,proficio,conj,easy,present,0.68305,1,1
obs5,proficio,conj,mid,absent,1.365995,1,0
obs5,proficio,conj,hard,absent,1.01525,1,0
obs5,proficio,conj,easy,absent,0.83217,1,0
obs5,proficio,conj,easy,absent,0.817135,1,0
obs5,proficio,conj,mid,present,1.234425,1,1
obs6,proficio,tex,hard,absent,2.949,1,0
obs6,proficio,tex,mid,absent,2.143,1,0
obs6,proficio,tex,hard,present,2.536,0,0
obs6,proficio,tex,hard,present,3.424,0,0
obs6,proficio,tex,easy,present,0.963,1,1
obs6,proficio,tex,mid,absent,1.811,1,0
obs6,proficio,tex,easy,present,0.686,1,1
obs6,proficio,tex,mid,present,1.097,1,1
obs6,proficio,tex,hard,absent,3.065,1,0
obs6,proficio,tex,easy,absent,1.991,1,0
obs6,proficio,tex,hard,absent,3.635,1,0
obs6,proficio,tex,hard,present,3.377,0,0
obs6,proficio,tex,easy,present,0.764,1,1
obs6,proficio,tex,easy,absent,2.533,1,0
obs6,proficio,tex,mid,present,0.919,1,1
obs6,proficio,tex,hard,absent,5.6,1,0
obs6,proficio,tex,easy,absent,1.622,1,0
obs6,proficio,tex,hard,present,0.751,1,1
obs6,proficio,tex,hard,present,0.92,1,1
obs6,proficio,tex,easy,present,0.731,1,1
obs6,proficio,tex,easy,absent,2.295,1,0
obs6,proficio,tex,easy,present,0.722,1,1
obs6,proficio,tex,hard,absent,1.958,1,0
obs6,proficio,tex,mid,present,0.776,1,1
obs6,proficio,tex,easy,absent,1.831,1,0
obs6,proficio,tex,hard,present,3.157,0,0
obs6,proficio,tex,easy,present,0.739,1,1
obs6,proficio,tex,hard,present,1.439,1,1
obs6,proficio,tex,mid,absent,2,1,0
obs6,proficio,tex,hard,absent,3.981,1,0
obs6,proficio,tex,mid,present,0.915,1,1
obs6,proficio,tex,easy,absent,2.396,1,0
obs6,proficio,tex,mid,present,0.753,1,1
obs6,proficio,tex,hard,present,1.652,1,1
obs6,proficio,tex,hard,present,2.664,0,0
obs6,proficio,tex,easy,present,0.865,1,1
obs6,proficio,tex,easy,present,0.539,1,1
obs6,proficio,tex,mid,present,1.369,1,1
obs6,proficio,tex,hard,absent,3.919,1,0
obs6,proficio,tex,hard,absent,5.34,1,0
obs6,proficio,tex,hard,absent,3.827,1,0
obs6,proficio,tex,mid,absent,3.503,1,0
obs6,proficio,tex,hard,absent,4.624,1,0
obs6,proficio,tex,hard,present,3.886,1,1
obs6,proficio,tex,hard,absent,4.462,1,0
obs6,proficio,tex,hard,present,6.198,0,0
obs6,proficio,tex,easy,present,1.079,1,1
obs6,proficio,tex,mid,absent,3.342,1,0
obs6,proficio,tex,hard,present,5.966,0,0
obs6,proficio,tex,hard,absent,6.313,1,0
obs6,proficio,tex,mid,present,0.841,1,1
obs6,proficio,tex,easy,absent,1.501,1,0
obs6,proficio,tex,mid,absent,0.74,0,1
obs6,proficio,tex,easy,present,0.695,1,1
obs6,proficio,tex,mid,present,1.404,1,1
obs6,proficio,tex,easy,present,0.674,1,1
obs6,proficio,tex,easy,absent,1.127,1,0
obs6,proficio,tex,hard,present,6.827,0,0
obs6,proficio,tex,mid,absent,0.734,0,1
obs6,proficio,tex,easy,absent,2.392,1,0
obs6,proficio,tex,easy,absent,1.686,1,0
obs6,proficio,tex,hard,present,10.429,1,1
obs6,proficio,tex,easy,absent,1.985,1,0
obs6,proficio,tex,easy,present,0.883,1,1
obs6,proficio,tex,hard,present,1.511,1,1
obs6,proficio,tex,mid,present,0.888,1,1
obs6,proficio,tex,mid,absent,5.124,1,0
obs6,proficio,tex,hard,present,10.279,0,0
obs6,proficio,tex,mid,present,4.638,1,1
obs6,proficio,tex,hard,absent,6.677,1,0
obs6,proficio,tex,hard,absent,5.051,1,0
obs6,proficio,tex,easy,absent,1.237,1,0
obs6,proficio,tex,easy,present,0.879,1,1
obs6,proficio,tex,easy,absent,2.242,1,0
obs6,proficio,tex,hard,absent,7.777,1,0
obs6,proficio,tex,easy,absent,1.099,1,0
obs6,proficio,tex,easy,present,0.896,1,1
obs6,proficio,tex,hard,present,1.095,1,1
obs6,proficio,tex,mid,absent,2.949,1,0
obs6,proficio,tex,mid,absent,2.862,1,0
obs6,proficio,tex,hard,absent,7.666,1,0
obs6,proficio,tex,mid,absent,4.06,1,0
obs6,proficio,tex,mid,present,0.683,1,1
obs6,proficio,tex,easy,absent,1.492,1,0
obs6,proficio,tex,mid,absent,3.059,1,0
obs6,proficio,tex,easy,present,0.587,1,1
obs6,proficio,tex,mid,present,0.566,1,1
obs6,proficio,tex,easy,present,0.762,1,1
obs6,proficio,tex,hard,present,3.262,1,1
obs6,proficio,tex,mid,absent,6.79,1,0
obs6,proficio,tex,mid,absent,5.674,1,0
obs6,proficio,tex,hard,present,4.223,1,1
obs6,proficio,tex,easy,present,0.606,1,1
obs6,proficio,tex,mid,absent,8.371,1,0
obs6,proficio,tex,mid,present,1.317,1,1
obs6,proficio,tex,mid,absent,5.324,1,0
obs6,proficio,tex,mid,absent,4.885,1,0
obs6,proficio,tex,mid,present,0.665,1,1
obs6,proficio,tex,easy,present,0.465,1,1
obs6,proficio,tex,easy,present,0.529,1,1
obs6,proficio,tex,easy,absent,1.507,1,0
obs6,proficio,tex,mid,absent,3.008,1,0
obs6,proficio,tex,easy,absent,1.755,1,0
obs6,proficio,tex,mid,present,0.597,1,1
obs6,proficio,tex,easy,absent,1.78,1,0
obs6,proficio,tex,hard,present,3.467,1,1
obs6,proficio,tex,easy,absent,1.254,1,0
obs6,proficio,tex,mid,absent,5.514,1,0
obs6,proficio,tex,easy,present,0.679,1,1
obs6,proficio,tex,easy,absent,1.842,1,0
obs6,proficio,tex,hard,present,10.385,0,0
obs6,proficio,tex,hard,absent,8.576,1,0
obs6,proficio,tex,mid,absent,5.468,1,0
obs6,proficio,tex,mid,absent,5.75,1,0
obs6,proficio,tex,hard,absent,7.717,1,0
obs6,proficio,tex,hard,absent,6.824,1,0
obs6,proficio,tex,hard,absent,8.342,1,0
obs6,proficio,tex,hard,absent,6.575,1,0
obs6,proficio,tex,easy,present,0.731,1,1
obs6,proficio,tex,easy,absent,1.278,1,0
obs6,proficio,tex,hard,absent,6.376,1,0
obs6,proficio,tex,mid,absent,4.904,1,0
obs6,proficio,tex,hard,present,3.148,0,0
obs6,proficio,tex,easy,absent,1.618,1,0
obs6,proficio,tex,mid,present,1.064,1,1
obs6,proficio,tex,easy,present,0.844,1,1
obs6,proficio,tex,hard,absent,8.01,1,0
obs6,proficio,tex,easy,absent,0.896,1,0
obs6,proficio,tex,mid,present,1.389,1,1
obs6,proficio,tex,mid,present,1.004,1,1
obs6,proficio,tex,mid,present,0.966,1,1
obs6,proficio,tex,mid,absent,4.992,1,0
obs6,proficio,tex,easy,present,0.68,1,1
obs6,proficio,tex,mid,present,0.741,1,1
obs6,proficio,tex,easy,absent,2.601,1,0
obs6,proficio,tex,hard,absent,4.308,1,0
obs6,proficio,tex,mid,absent,3.991,1,0
obs6,proficio,tex,mid,present,1.612,1,1
obs6,proficio,tex,hard,present,0.931,1,1
obs6,proficio,tex,mid,present,0.721,1,1
obs6,proficio,tex,hard,present,9.396,0,0
obs6,proficio,tex,mid,present,1.842,1,1
obs6,proficio,tex,mid,present,1.449,1,1
obs6,proficio,tex,mid,present,0.701,1,1
obs6,proficio,tex,easy,present,0.548,1,1
obs6,proficio,tex,mid,absent,9.823,1,0
obs6,proficio,tex,easy,absent,2.237,1,0
obs6,proficio,tex,hard,absent,4.894,1,0
obs6,proficio,tex,hard,present,6.038,0,0
obs6,proficio,tex,easy,present,0.916,1,1
obs6,proficio,ori,hard,absent,32.569,1,0
obs6,proficio,ori,hard,absent,21.927,1,0
obs6,proficio,ori,hard,present,15.37,0,0
obs6,proficio,ori,hard,present,13.974,0,0
obs6,proficio,ori,hard,absent,14.545,1,0
obs6,proficio,ori,hard,absent,14.502,1,0
obs6,proficio,ori,mid,absent,15.875,1,0
obs6,proficio,ori,mid,absent,16.265,1,0
obs6,proficio,ori,easy,present,1.453,1,1
obs6,proficio,ori,easy,present,0.635,1,1
obs6,proficio,ori,easy,present,0.809,1,1
obs6,proficio,ori,easy,absent,4.987,1,0
obs6,proficio,ori,mid,absent,8.236,1,0
obs6,proficio,ori,mid,present,2.549,1,1
obs6,proficio,ori,hard,present,8.68,1,1
obs6,proficio,ori,easy,absent,2.766,1,0
obs6,proficio,ori,mid,present,1.184,1,1
obs6,proficio,ori,hard,absent,21.267,1,0
obs6,proficio,ori,hard,present,1.858,1,1
obs6,proficio,ori,easy,absent,5.427,1,0
obs6,proficio,ori,hard,present,9.95,0,0
obs6,proficio,ori,easy,present,0.78,1,1
obs6,proficio,ori,mid,present,0.791,1,1
obs6,proficio,ori,easy,absent,3.451,1,0
obs6,proficio,ori,hard,absent,8.808,1,0
obs6,proficio,ori,hard,absent,5.186,1,0
obs6,proficio,ori,mid,absent,6.963,1,0
obs6,proficio,ori,easy,absent,4.385,1,0
obs6,proficio,ori,easy,absent,4.875,1,0
obs6,proficio,ori,mid,absent,14.008,1,0
obs6,proficio,ori,hard,absent,11.562,1,0
obs6,proficio,ori,easy,absent,4.262,1,0
obs6,proficio,ori,easy,present,0.878,1,1
obs6,proficio,ori,easy,present,0.525,1,1
obs6,proficio,ori,hard,present,6.207,0,0
obs6,proficio,ori,mid,absent,3.8,1,0
obs6,proficio,ori,easy,present,0.687,1,1
obs6,proficio,ori,mid,absent,4.158,1,0
obs6,proficio,ori,easy,present,0.607,1,1
obs6,proficio,ori,hard,present,4.357,1,1
obs6,proficio,ori,hard,present,11.611,0,0
obs6,proficio,ori,hard,present,9.907,1,1
obs6,proficio,ori,mid,absent,3.393,1,0
obs6,proficio,ori,easy,absent,2.949,1,0
obs6,proficio,ori,easy,present,0.577,1,1
obs6,proficio,ori,easy,present,0.56,1,1
obs6,proficio,ori,hard,present,10.079,0,0
obs6,proficio,ori,mid,present,9.843,0,0
obs6,proficio,ori,mid,present,3.446,1,1
obs6,proficio,ori,hard,present,11.968,0,0
obs6,proficio,ori,hard,present,18.866,0,0
obs6,proficio,ori,easy,absent,3.566,1,0
obs6,proficio,ori,mid,present,1.115,1,1
obs6,proficio,ori,easy,absent,2.308,1,0
obs6,proficio,ori,easy,absent,3.459,1,0
obs6,proficio,ori,easy,absent,4.817,1,0
obs6,proficio,ori,hard,absent,16.598,1,0
obs6,proficio,ori,hard,present,30.348,0,0
obs6,proficio,ori,mid,absent,6.808,1,0
obs6,proficio,ori,easy,present,0.711,1,1
obs6,proficio,ori,easy,present,0.645,1,1
obs6,proficio,ori,easy,present,0.863,1,1
obs6,proficio,ori,easy,present,0.593,1,1
obs6,proficio,ori,hard,absent,3.665,0,1
obs6,proficio,ori,mid,absent,1.459,1,0
obs6,proficio,ori,hard,absent,5.401,0,1
obs6,proficio,ori,easy,present,0.886,1,1
obs6,proficio,ori,easy,present,0.575,1,1
obs6,proficio,ori,easy,present,0.567,1,1
obs6,proficio,ori,mid,present,0.874,1,1
obs6,proficio,ori,mid,present,1.525,1,1
obs6,proficio,ori,hard,absent,4.924,1,0
obs6,proficio,ori,easy,absent,3.154,1,0
obs6,proficio,ori,mid,present,0.659,1,1
obs6,proficio,ori,mid,present,4.379,0,0
obs6,proficio,ori,hard,absent,0.997,0,1
obs6,proficio,ori,mid,absent,2.332,1,0
obs6,proficio,ori,mid,present,2.319,1,1
obs6,proficio,ori,mid,absent,3.681,1,0
obs6,proficio,ori,hard,present,6.834,1,1
obs6,proficio,ori,mid,absent,4.207,1,0
obs6,proficio,ori,easy,present,0.556,1,1
obs6,proficio,ori,hard,absent,5.1,1,0
obs6,proficio,ori,easy,absent,1.301,1,0
obs6,proficio,ori,hard,absent,2.616,1,0
obs6,proficio,ori,mid,absent,3.708,1,0
obs6,proficio,ori,mid,present,2.45,1,1
obs6,proficio,ori,mid,present,3.416,0,0
obs6,proficio,ori,hard,absent,2.627,1,0
obs6,proficio,ori,mid,present,1.741,1,1
obs6,proficio,ori,mid,absent,3.234,1,0
obs6,proficio,ori,hard,present,2.047,1,1
obs6,proficio,ori,mid,present,0.686,1,1
obs6,proficio,ori,easy,absent,3.498,1,0
obs6,proficio,ori,mid,present,2.641,1,1
obs6,proficio,ori,hard,present,1.955,1,1
obs6,proficio,ori,easy,present,0.615,1,1
obs6,proficio,ori,easy,absent,2.835,1,0
obs6,proficio,ori,mid,present,1.579,1,1
obs6,proficio,ori,hard,absent,11.386,1,0
obs6,proficio,ori,easy,present,0.572,1,1
obs6,proficio,ori,easy,absent,2.899,1,0
obs6,proficio,ori,mid,present,0.868,1,1
obs6,proficio,ori,easy,present,0.526,1,1
obs6,proficio,ori,hard,absent,6.234,1,0
obs6,proficio,ori,mid,present,0.759,1,1
obs6,proficio,ori,easy,absent,2.808,1,0
obs6,proficio,ori,hard,present,9.85,0,0
obs6,proficio,ori,mid,absent,9.736,1,0
obs6,proficio,ori,mid,present,8.245,0,0
obs6,proficio,ori,hard,present,5.275,0,0
obs6,proficio,ori,hard,present,0.572,1,1
obs6,proficio,ori,hard,present,1.241,1,1
obs6,proficio,ori,mid,present,0.78,1,1
obs6,proficio,ori,easy,present,0.526,1,1
obs6,proficio,ori,easy,present,0.487,1,1
obs6,proficio,ori,easy,present,0.743,1,1
obs6,proficio,ori,hard,absent,2.994,1,0
obs6,proficio,ori,mid,absent,4.913,1,0
obs6,proficio,ori,mid,absent,5.597,1,0
obs6,proficio,ori,easy,absent,1.817,1,0
obs6,proficio,ori,easy,present,0.608,1,1
obs6,proficio,ori,hard,present,1.001,1,1
obs6,proficio,ori,mid,absent,4.71,1,0
obs6,proficio,ori,hard,present,6.303,0,0
obs6,proficio,ori,easy,absent,1.174,1,0
obs6,proficio,ori,mid,present,0.652,1,1
obs6,proficio,ori,mid,absent,2.299,0,1
obs6,proficio,ori,hard,absent,0.759,0,1
obs6,proficio,ori,hard,absent,2.842,0,1
obs6,proficio,ori,mid,absent,6.429,1,0
obs6,proficio,ori,hard,present,4.486,0,0
obs6,proficio,ori,hard,absent,1.791,1,0
obs6,proficio,ori,mid,present,1.229,1,1
obs6,proficio,ori,easy,absent,2.465,1,0
obs6,proficio,ori,easy,absent,3.425,1,0
obs6,proficio,ori,hard,absent,2.595,0,1
obs6,proficio,ori,mid,absent,1.541,1,0
obs6,proficio,ori,hard,present,5.308,0,0
obs6,proficio,ori,mid,absent,8.66,1,0
obs6,proficio,ori,hard,present,5.249,0,0
obs6,proficio,ori,easy,absent,0.933,1,0
obs6,proficio,ori,mid,present,1.261,1,1
obs6,proficio,ori,mid,absent,3.258,1,0
obs6,proficio,ori,hard,absent,2.725,0,1
obs6,proficio,ori,mid,present,0.958,0,0
obs6,proficio,ori,mid,absent,1.159,1,0
obs6,proficio,ori,easy,absent,1.332,1,0
obs6,proficio,ori,easy,absent,1.412,1,0
obs6,proficio,ori,hard,absent,5.895,1,0
obs6,proficio,conj,hard,present,1.43,1,1
obs6,proficio,conj,hard,present,0.673,1,1
obs6,proficio,conj,hard,present,0.484,1,1
obs6,proficio,conj,mid,absent,0.876,1,0
obs6,proficio,conj,hard,absent,1.042,1,0
obs6,proficio,conj,mid,present,0.79,0,0
obs6,proficio,conj,easy,present,0.837,1,1
obs6,proficio,conj,mid,absent,0.977,1,0
obs6,proficio,conj,mid,present,0.592,1,1
obs6,proficio,conj,easy,present,0.882,0,0
obs6,proficio,conj,hard,absent,1.165,1,0
obs6,proficio,conj,hard,present,2.355,1,1
obs6,proficio,conj,hard,absent,1.327,1,0
obs6,proficio,conj,mid,absent,1.092,1,0
obs6,proficio,conj,hard,present,1.323,1,1
obs6,proficio,conj,hard,absent,0.986,1,0
obs6,proficio,conj,mid,absent,1.193,1,0
obs6,proficio,conj,mid,present,0.894,1,1
obs6,proficio,conj,easy,present,0.5,1,1
obs6,proficio,conj,mid,present,0.596,1,1
obs6,proficio,conj,mid,present,0.516,1,1
obs6,proficio,conj,mid,present,0.623,1,1
obs6,proficio,conj,easy,absent,0.883,1,0
obs6,proficio,conj,hard,present,0.902,1,1
obs6,proficio,conj,hard,absent,1.045,1,0
obs6,proficio,conj,mid,absent,1.072,1,0
obs6,proficio,conj,hard,present,0.834,1,1
obs6,proficio,conj,easy,present,0.97,1,1
obs6,proficio,conj,easy,present,0.534,1,1
obs6,proficio,conj,easy,present,0.517,1,1
obs6,proficio,conj,mid,present,0.788,1,1
obs6,proficio,conj,mid,absent,1.123,1,0
obs6,proficio,conj,easy,absent,0.757,1,0
obs6,proficio,conj,hard,absent,0.968,1,0
obs6,proficio,conj,mid,present,0.958,0,0
obs6,proficio,conj,easy,absent,0.705,1,0
obs6,proficio,conj,easy,present,0.903,1,1
obs6,proficio,conj,hard,present,0.612,1,1
obs6,proficio,conj,mid,absent,0.648,0,1
obs6,proficio,conj,easy,absent,0.778,1,0
obs6,proficio,conj,mid,present,0.923,1,1
obs6,proficio,conj,hard,absent,0.951,0,1
obs6,proficio,conj,mid,absent,0.995,1,0
obs6,proficio,conj,mid,present,1.066,1,1
obs6,proficio,conj,easy,present,0.807,1,1
obs6,proficio,conj,mid,present,0.588,1,1
obs6,proficio,conj,easy,present,1.004,1,1
obs6,proficio,conj,hard,present,0.819,1,1
obs6,proficio,conj,mid,present,0.527,1,1
obs6,proficio,conj,easy,present,0.866,1,1
obs6,proficio,conj,hard,present,1.191,1,1
obs6,proficio,conj,mid,absent,1.038,1,0
obs6,proficio,conj,hard,present,0.722,1,1
obs6,proficio,conj,mid,absent,1.608,1,0
obs6,proficio,conj,easy,present,0.691,1,1
obs6,proficio,conj,hard,present,0.933,1,1
obs6,proficio,conj,hard,absent,1.958,1,0
obs6,proficio,conj,mid,present,0.775,1,1
obs6,proficio,conj,mid,present,0.701,1,1
obs6,proficio,conj,easy,present,0.741,1,1
obs6,proficio,conj,easy,present,0.564,1,1
obs6,proficio,conj,hard,absent,1.337,1,0
obs6,proficio,conj,hard,absent,1.35,1,0
obs6,proficio,conj,mid,present,1.073,1,1
obs6,proficio,conj,hard,absent,1.494,1,0
obs6,proficio,conj,mid,present,1.284,1,1
obs6,proficio,conj,hard,absent,1.534,1,0
obs6,proficio,conj,mid,absent,1.209,1,0
obs6,proficio,conj,easy,present,0.942,1,1
obs6,proficio,conj,easy,absent,0.699,1,0
obs6,proficio,conj,mid,present,0.655,1,1
obs6,proficio,conj,hard,absent,1.406,1,0
obs6,proficio,conj,hard,absent,1.176,1,0
obs6,proficio,conj,hard,absent,1.742,1,0
obs6,proficio,conj,mid,absent,0.857,1,0
obs6,proficio,conj,mid,absent,1.421,1,0
obs6,proficio,conj,hard,absent,1.222,1,0
obs6,proficio,conj,easy,absent,0.856,1,0
obs6,proficio,conj,hard,absent,0.93,1,0
obs6,proficio,conj,hard,present,0.632,1,1
obs6,proficio,conj,easy,present,0.538,1,1
obs6,proficio,conj,hard,present,0.492,1,1
obs6,proficio,conj,hard,absent,1.569,1,0
obs6,proficio,conj,mid,absent,0.933,1,0
obs6,proficio,conj,hard,absent,1.3,1,0
obs6,proficio,conj,hard,present,0.923,1,1
obs6,proficio,conj,easy,present,0.544,1,1
obs6,proficio,conj,easy,absent,0.907,1,0
obs6,proficio,conj,hard,absent,1.575,1,0
obs6,proficio,conj,easy,present,0.705,1,1
obs6,proficio,conj,mid,present,0.917,1,1
obs6,proficio,conj,mid,absent,1.068,1,0
obs6,proficio,conj,easy,absent,0.833,1,0
obs6,proficio,conj,easy,present,0.582,1,1
obs6,proficio,conj,easy,absent,0.869,1,0
obs6,proficio,conj,mid,absent,0.738,1,0
obs6,proficio,conj,easy,present,0.707,1,1
obs6,proficio,conj,hard,present,0.86,1,1
obs6,proficio,conj,mid,present,0.523,1,1
obs6,proficio,conj,mid,absent,0.743,1,0
obs6,proficio,conj,hard,present,0.819,1,1
obs6,proficio,conj,hard,present,1.016,1,1
obs6,proficio,conj,easy,absent,0.723,1,0
obs6,proficio,conj,easy,absent,0.738,1,0
obs6,proficio,conj,hard,present,0.612,1,1
obs6,proficio,conj,easy,absent,1.11,1,0
obs6,proficio,conj,easy,absent,0.662,1,0
obs6,proficio,conj,hard,absent,0.733,1,0
obs6,proficio,conj,mid,present,0.847,0,0
obs6,proficio,conj,easy,absent,0.742,1,0
obs6,proficio,conj,hard,present,0.592,1,1
obs6,proficio,conj,mid,present,0.673,1,1
obs6,proficio,conj,mid,absent,0.7,1,0
obs6,proficio,conj,mid,absent,0.633,1,0
obs6,proficio,conj,easy,absent,0.591,1,0
obs6,proficio,conj,easy,present,0.657,1,1
obs6,proficio,conj,mid,absent,1.045,1,0
obs6,proficio,conj,easy,absent,0.641,1,0
obs6,proficio,conj,mid,present,0.65,1,1
obs6,proficio,conj,hard,present,1.141,0,0
obs6,proficio,conj,easy,absent,0.665,1,0
obs6,proficio,conj,easy,present,0.637,0,0
obs6,proficio,conj,hard,present,1.156,1,1
obs6,proficio,conj,easy,absent,0.724,1,0
obs6,proficio,conj,easy,absent,0.885,1,0
obs6,proficio,conj,hard,absent,0.807,1,0
obs6,proficio,conj,hard,present,0.655,1,1
obs6,proficio,conj,easy,present,0.72,1,1
obs6,proficio,conj,easy,absent,0.666,1,0
obs6,proficio,conj,easy,absent,1.268,1,0
obs6,proficio,conj,mid,absent,0.791,1,0
obs6,proficio,conj,mid,absent,0.532,1,0
obs6,proficio,conj,hard,present,0.677,1,1
obs6,proficio,conj,mid,absent,1.818,1,0
obs6,proficio,conj,mid,present,0.649,1,1
obs6,proficio,conj,hard,absent,1.307,1,0
obs6,proficio,conj,hard,present,0.651,1,1
obs6,proficio,conj,easy,absent,0.626,1,0
obs6,proficio,conj,mid,absent,0.852,0,1
obs6,proficio,conj,hard,absent,0.767,1,0
obs6,proficio,conj,mid,absent,0.575,1,0
obs6,proficio,conj,easy,absent,0.522,1,0
obs6,proficio,conj,easy,absent,0.582,1,0
obs6,proficio,conj,easy,present,0.537,1,1
obs6,proficio,conj,mid,present,0.492,1,1
obs6,proficio,conj,easy,absent,0.745,1,0
obs6,proficio,conj,easy,present,0.806,1,1
obs6,proficio,conj,mid,present,0.862,0,0
obs6,proficio,conj,easy,present,0.692,1,1
obs6,proficio,conj,hard,absent,0.799,1,0
obs7,proficio,tex,hard,absent,6.7673,1,0
obs7,proficio,tex,mid,present,2.9612,1,1
obs7,proficio,tex,mid,present,1.7037,1,1
obs7,proficio,tex,hard,absent,5.2776,1,0
obs7,proficio,tex,hard,present,4.4367,1,1
obs7,proficio,tex,hard,present,1.2394,1,1
obs7,proficio,tex,hard,absent,10.5945,1,0
obs7,proficio,tex,mid,absent,8.9253,1,0
obs7,proficio,tex,easy,present,1.0336,1,1
obs7,proficio,tex,hard,absent,1.6915,1,0
obs7,proficio,tex,easy,present,1.0208,1,1
obs7,proficio,tex,hard,present,2.8678,0,0
obs7,proficio,tex,mid,present,4.4785,1,1
obs7,proficio,tex,mid,present,1.342,1,1
obs7,proficio,tex,easy,present,1.8198,1,1
obs7,proficio,tex,easy,present,1.3108,1,1
obs7,proficio,tex,easy,absent,7.992,1,0
obs7,proficio,tex,mid,absent,6.2159,1,0
obs7,proficio,tex,mid,present,1.5692,1,1
obs7,proficio,tex,hard,absent,3.5166,1,0
obs7,proficio,tex,mid,absent,3.884,1,0
obs7,proficio,tex,easy,absent,4.461,1,0
obs7,proficio,tex,easy,absent,1.2185,1,0
obs7,proficio,tex,hard,absent,4.2848,1,0
obs7,proficio,tex,hard,absent,4.0281,1,0
obs7,proficio,tex,hard,absent,4.7019,1,0
obs7,proficio,tex,easy,absent,5.8161,1,0
obs7,proficio,tex,mid,absent,5.8306,1,0
obs7,proficio,tex,mid,absent,5.779,1,0
obs7,proficio,tex,hard,absent,4.6569,1,0
obs7,proficio,tex,mid,present,1.2386,1,1
obs7,proficio,tex,easy,present,1.02,1,1
obs7,proficio,tex,hard,absent,3.6372,1,0
obs7,proficio,tex,mid,present,2.6718,1,1
obs7,proficio,tex,easy,absent,5.1763,1,0
obs7,proficio,tex,mid,absent,3.0894,1,0
obs7,proficio,tex,mid,absent,1.8695,1,0
obs7,proficio,tex,easy,absent,2.6807,1,0
obs7,proficio,tex,hard,absent,5.9732,1,0
obs7,proficio,tex,hard,present,2.1195,1,1
obs7,proficio,tex,easy,present,1.0718,1,1
obs7,proficio,tex,easy,present,1.2061,1,1
obs7,proficio,tex,mid,absent,2.4367,1,0
obs7,proficio,tex,mid,present,1.9892,1,1
obs7,proficio,tex,easy,absent,2.7847,1,0
obs7,proficio,tex,easy,present,1.8256,1,1
obs7,proficio,tex,hard,absent,4.3388,1,0
obs7,proficio,tex,easy,present,1.0857,1,1
obs7,proficio,tex,easy,present,0.8841,1,1
obs7,proficio,tex,mid,absent,2.3947,1,0
obs7,proficio,tex,mid,absent,4.7609,1,0
obs7,proficio,tex,mid,present,1.3464,1,1
obs7,proficio,tex,easy,present,1.6793,1,1
obs7,proficio,tex,easy,present,1.3127,1,1
obs7,proficio,tex,hard,present,1.4023,0,0
obs7,proficio,tex,easy,absent,5.2407,1,0
obs7,proficio,tex,mid,absent,4.1827,1,0
obs7,proficio,tex,mid,present,1.3852,1,1
obs7,proficio,tex,hard,present,1.4182,1,1
obs7,proficio,tex,hard,absent,3.3735,1,0
obs7,proficio,tex,easy,absent,3.065,1,0
obs7,proficio,tex,mid,present,1.5994,1,1
obs7,proficio,tex,easy,absent,4.8661,1,0
obs7,proficio,tex,hard,present,3.018,0,0
obs7,proficio,tex,mid,present,1.4021,1,1
obs7,proficio,tex,easy,present,0.9971,1,1
obs7,proficio,tex,hard,present,7.0843,0,0
obs7,proficio,tex,easy,present,1.0798,1,1
obs7,proficio,tex,easy,present,1.2562,1,1
obs7,proficio,tex,hard,present,1.2675,1,1
obs7,proficio,tex,mid,absent,8.6111,1,0
obs7,proficio,tex,hard,present,2.2824,0,0
obs7,proficio,tex,hard,absent,3.8619,1,0
obs7,proficio,tex,easy,absent,4.2227,0,1
obs7,proficio,tex,easy,absent,3.9035,1,0
obs7,proficio,tex,hard,present,1.5598,1,1
obs7,proficio,tex,hard,present,3.1914,0,0
obs7,proficio,tex,mid,absent,1.1269,0,1
obs7,proficio,tex,mid,present,4.2243,1,1
obs7,proficio,tex,mid,present,3.2157,1,1
obs7,proficio,tex,hard,absent,5.2534,1,0
obs7,proficio,tex,easy,absent,6.8814,1,0
obs7,proficio,tex,easy,absent,2.6536,1,0
obs7,proficio,tex,mid,present,1.1046,1,1
obs7,proficio,tex,hard,absent,4.6352,1,0
obs7,proficio,tex,hard,present,2.1413,1,1
obs7,proficio,tex,easy,absent,3.9965,1,0
obs7,proficio,tex,mid,present,1.1688,1,1
obs7,proficio,tex,mid,absent,2.0182,1,0
obs7,proficio,tex,easy,absent,2.2305,1,0
obs7,proficio,tex,easy,present,1.0409,1,1
obs7,proficio,tex,mid,present,1.2162,1,1
obs7,proficio,tex,hard,present,2.2785,0,0
obs7,proficio,tex,mid,present,2.0056,1,1
obs7,proficio,tex,hard,absent,1.8575,1,0
obs7,proficio,tex,mid,absent,4.9801,1,0
obs7,proficio,tex,hard,present,3.0674,0,0
obs7,proficio,tex,easy,absent,6.1474,1,0
obs7,proficio,tex,mid,absent,5.3661,1,0
obs7,proficio,tex,mid,absent,3.2319,1,0
obs7,proficio,tex,hard,present,3.1016,0,0
obs7,proficio,tex,easy,absent,6.7655,1,0
obs7,proficio,tex,hard,present,3.4996,0,0
obs7,proficio,tex,hard,present,5.6801,1,1
obs7,proficio,tex,mid,present,1.2318,1,1
obs7,proficio,tex,hard,absent,8.7122,1,0
obs7,proficio,tex,mid,absent,3.1608,1,0
obs7,proficio,tex,hard,present,2.7279,1,1
obs7,proficio,tex,mid,present,2.8498,1,1
obs7,proficio,tex,easy,present,1.1603,1,1
obs7,proficio,tex,easy,absent,2.7646,1,0
obs7,proficio,tex,mid,absent,3.8239,1,0
obs7,proficio,tex,hard,absent,4.3871,1,0
