key_resp_6.keys,key_resp_6.rt,key_resp_7.keys,key_resp_7.rt,key_resp_8.keys,key_resp_8.rt,key_resp_10.keys,key_resp_10.rt,key_resp_9.keys,key_resp_9.rt,key_resp_14.keys,key_resp_14.rt,key_resp_3.keys,key_resp_3.rt,key_resp_5.keys,key_resp_5.rt,key_resp.keys,key_resp.corr,key_resp.rt,key_resp_12.keys,key_resp_12.rt,practice.thisRepN,practice.thisTrialN,practice.thisN,practice.thisIndex,practice.ran,ImageFile,targPres,correctAns,difficulty,targetName,participant,age,sex,date,expName,psychopyVersion,OS,frameRate,key_resp_13.keys,key_resp_13.rt,key_resp_4.keys,key_resp_4.rt,trials.thisRepN,trials.thisTrialN,trials.thisN,trials.thisIndex,trials.ran,trials_2.thisRepN,trials_2.thisTrialN,trials_2.thisN,trials_2.thisIndex,trials_2.ran,condsFile,targName,instructionText,stimExample,posit,size,stimSize,practiceFile,tarPos,numDist,key_resp_15.keys,key_resp_15.rt
space,12.322435,space,402.609035,space,35.62837,space,94.835775,space,13.86398,space,17.635705,space,15.655435,space,14.876135,a,0,2.7064,space,9.388755,0,0,0,1,1,tex_easy_TP/1.7_r=150_phi=315_seed=3.png,1,p,easy,texture,5d9338fc2f873000165f8e95,30,female,2021-05-03_11h24.25.540,search_v5,2021.1.2,Win32,60.09976561,,,,,,,,,,,,,,,,,,,,,,,,,,
,,,,,,,,,,,,,,,,p,0,2.23127,space,7.49044,0,1,1,6,1,tex_mid_TA/1.65_r=TA_seed=2.png,0,a,mid,texture,5d9338fc2f873000165f8e95,30,female,2021-05-03_11h24.25.540,search_v5,2021.1.2,Win32,60.09976561,,,,,,,,,,,,,,,,,,,,,,,,,,
,,,,,,,,,,,,,,,,p,1,1.312825,space,5.67574,0,2,2,4,1,tex_mid_TP/1.65_r=100_phi=225_seed=2.png,1,p,mid,texture,5d9338fc2f873000165f8e95,30,female,2021-05-03_11h24.25.540,search_v5,2021.1.2,Win32,60.09976561,,,,,,,,,,,,,,,,,,,,,,,,,,
,,,,,,,,,,,,,,,,p,1,2.39644,space,3.318355,0,3,3,3,1,tex_hard_TP/1.6_r=100_phi=270_seed=1.png,1,p,hard,texture,5d9338fc2f873000165f8e95,30,female,2021-05-03_11h24.25.540,search_v5,2021.1.2,Win32,60.09976561,,,,,,,,,,,,,,,,,,,,,,,,,,
,,,,,,,,,,,,,,,,a,0,2.36616,space,2.605295,0,4,4,2,1,tex_hard_TP/1.6_r=100_phi=0_seed=1.png,1,p,hard,texture,5d9338fc2f873000165f8e95,30,female,2021-05-03_11h24.25.540,search_v5,2021.1.2,Win32,60.09976561,,,,,,,,,,,,,,,,,,,,,,,,,,
,,,,,,,,,,,,,,,,p,1,1.275065,space,1.68067,0,5,5,5,1,tex_mid_TP/1.65_r=100_phi=270_seed=2.png,1,p,mid,texture,5d9338fc2f873000165f8e95,30,female,2021-05-03_11h24.25.540,search_v5,2021.1.2,Win32,60.09976561,,,,,,,,,,,,,,,,,,,,,,,,,,
,,,,,,,,,,,,,,,,p,0,2.335425,space,1.635825,0,6,6,7,1,tex_mid_TA/1.65_r=TA_seed=2.png,0,a,mid,texture,5d9338fc2f873000165f8e95,30,female,2021-05-03_11h24.25.540,search_v5,2021.1.2,Win32,60.09976561,,,,,,,,,,,,,,,,,,,,,,,,,,
,,,,,,,,,,,,,,,,p,0,2.056305,space,0.882655,0,7,7,8,1,tex_easy_TA/1.7_r=TA_seed=3.png,0,a,easy,texture,5d9338fc2f873000165f8e95,30,female,2021-05-03_11h24.25.540,search_v5,2021.1.2,Win32,60.09976561,,,,,,,,,,,,,,,,,,,,,,,,,,
,,,,,,,,,,,,,,,,a,1,1.961535,space,1.238565,0,8,8,11,1,tex_hard_TA/1.6_r=TA_seed=1.png,0,a,hard,texture,5d9338fc2f873000165f8e95,30,female,2021-05-03_11h24.25.540,search_v5,2021.1.2,Win32,60.09976561,,,,,,,,,,,,,,,,,,,,,,,,,,
,,,,,,,,,,,,,,,,p,1,0.997165,space,0.601125,0,9,9,0,1,tex_easy_TP/1.7_r=150_phi=225_seed=3.png,1,p,easy,texture,5d9338fc2f873000165f8e95,30,female,2021-05-03_11h24.25.540,search_v5,2021.1.2,Win32,60.09976561,,,,,,,,,,,,,,,,,,,,,,,,,,
,,,,,,,,,,,,,,,,p,0,1.91047,space,1.05891,0,10,10,10,1,tex_hard_TA/1.6_r=TA_seed=1.png,0,a,hard,texture,5d9338fc2f873000165f8e95,30,female,2021-05-03_11h24.25.540,search_v5,2021.1.2,Win32,60.09976561,,,,,,,,,,,,,,,,,,,,,,,,,,
,,,,,,,,,,,,,,,,a,1,2.16887,space,1.482285,0,11,11,9,1,tex_easy_TA/1.7_r=TA_seed=3.png,0,a,easy,texture,5d9338fc2f873000165f8e95,30,female,2021-05-03_11h24.25.540,search_v5,2021.1.2,Win32,60.09976561,,,,,,,,,,,,,,,,,,,,,,,,,,
,,,,,,,,,,,,,,,,p,1,1.2588,,,,,,,,tex_easy_TP/1.7_r=350_phi=225_seed=3.png,1,p,easy,texture,5d9338fc2f873000165f8e95,30,female,2021-05-03_11h24.25.540,search_v5,2021.1.2,Win32,60.09976561,space,3.38887,space,0.2168,0,0,0,25,1,,,,,,,,,,,,,,,,,
,,,,,,,,,,,,,,,,p,1,0.679215,,,,,,,,tex_easy_TP/1.7_r=200_phi=225_seed=3.png,1,p,easy,texture,5d9338fc2f873000165f8e95,30,female,2021-05-03_11h24.25.540,search_v5,2021.1.2,Win32,60.09976561,,,space,0.224805,0,1,1,14,1,,,,,,,,,,,,,,,,,
,,,,,,,,,,,,,,,,p,1,0.6429,,,,,,,,tex_hard_TP/1.6_r=200_phi=225_seed=1.png,1,p,hard,texture,5d9338fc2f873000165f8e95,30,female,2021-05-03_11h24.25.540,search_v5,2021.1.2,Win32,60.09976561,,,space,0.138945,0,2,2,39,1,,,,,,,,,,,,,,,,,
,,,,,,,,,,,,,,,,a,1,1.09875,,,,,,,,tex_mid_TA/1.65_r=TA_seed=2.png,0,a,mid,texture,5d9338fc2f873000165f8e95,30,female,2021-05-03_11h24.25.540,search_v5,2021.1.2,Win32,60.09976561,,,space,1.1203,0,3,3,102,1,,,,,,,,,,,,,,,,,
,,,,,,,,,,,,,,,,p,1,0.937525,,,,,,,,tex_easy_TP/1.7_r=450_phi=135_seed=3.png,1,p,easy,texture,5d9338fc2f873000165f8e95,30,female,2021-05-03_11h24.25.540,search_v5,2021.1.2,Win32,60.09976561,,,space,0.15182,0,4,4,32,1,,,,,,,,,,,,,,,,,
,,,,,,,,,,,,,,,,p,0,1.219535,,,,,,,,tex_mid_TA/1.65_r=TA_seed=2.png,0,a,mid,texture,5d9338fc2f873000165f8e95,30,female,2021-05-03_11h24.25.540,search_v5,2021.1.2,Win32,60.09976561,,,space,2.459955,0,5,5,101,1,,,,,,,,,,,,,,,,,
,,,,,,,,,,,,,,,,a,0,1.192425,,,,,,,,tex_hard_TP/1.6_r=450_phi=135_seed=1.png,1,p,hard,texture,5d9338fc2f873000165f8e95,30,female,2021-05-03_11h24.25.540,search_v5,2021.1.2,Win32,60.09976561,,,space,2.269625,0,6,6,52,1,,,,,,,,,,,,,,,,,
,,,,,,,,,,,,,,,,a,1,1.693705,,,,,,,,tex_mid_TA/1.65_r=TA_seed=2.png,0,a,mid,texture,5d9338fc2f873000165f8e95,30,female,2021-05-03_11h24.25.540,search_v5,2021.1.2,Win32,60.09976561,,,space,1.41513,0,7,7,103,1,,,,,,,,,,,,,,,,,
,,,,,,,,,,,,,,,,p,1,1.26773,,,,,,,,tex_mid_TP/1.65_r=300_phi=90_seed=2.png,1,p,mid,texture,5d9338fc2f873000165f8e95,30,female,2021-05-03_11h24.25.540,search_v5,2021.1.2,Win32,60.09976561,,,space,0.564405,0,8,8,69,1,,,,,,,,,,,,,,,,,
,,,,,,,,,,,,,,,,a,0,2.2289,,,,,,,,tex_hard_TP/1.6_r=250_phi=315_seed=1.png,1,p,hard,texture,5d9338fc2f873000165f8e95,30,female,2021-05-03_11h24.25.540,search_v5,2021.1.2,Win32,60.09976561,,,space,0.470225,0,9,9,43,1,,,,,,,,,,,,,,,,,
,,,,,,,,,,,,,,,,p,0,1.69149,,,,,,,,tex_hard_TA/1.6_r=TA_seed=1.png,0,a,hard,texture,5d9338fc2f873000165f8e95,30,female,2021-05-03_11h24.25.540,search_v5,2021.1.2,Win32,60.09976561,,,space,0.052355,0,10,10,138,1,,,,,,,,,,,,,,,,,
,,,,,,,,,,,,,,,,p,1,0.982155,,,,,,,,tex_mid_TP/1.65_r=300_phi=225_seed=2.png,1,p,mid,texture,5d9338fc2f873000165f8e95,30,female,2021-05-03_11h24.25.540,search_v5,2021.1.2,Win32,60.09976561,,,space,0.32573,0,11,11,67,1,,,,,,,,,,,,,,,,,
,,,,,,,,,,,,,,,,a,1,1.19591,,,,,,,,tex_mid_TA/1.65_r=TA_seed=2.png,0,a,mid,texture,5d9338fc2f873000165f8e95,30,female,2021-05-03_11h24.25.540,search_v5,2021.1.2,Win32,60.09976561,,,space,0.78748,0,12,12,7,1,,,,,,,,,,,,,,,,,
,,,,,,,,,,,,,,,,p,0,1.177865,,,,,,,,tex_easy_TA/1.7_r=TA_seed=3.png,0,a,easy,texture,5d9338fc2f873000165f8e95,30,female,2021-05-03_11h24.25.540,search_v5,2021.1.2,Win32,60.09976561,,,space,3.87841,0,13,13,107,1,,,,,,,,,,,,,,,,,
,,,,,,,,,,,,,,,,p,0,1.224905,,,,,,,,tex_hard_TA/1.6_r=TA_seed=1.png,0,a,hard,texture,5d9338fc2f873000165f8e95,30,female,2021-05-03_11h24.25.540,search_v5,2021.1.2,Win32,60.09976561,,,space,2.654835,0,14,14,141,1,,,,,,,,,,,,,,,,,
,,,,,,,,,,,,,,,,p,1,1.866915,,,,,,,,tex_hard_TP/1.6_r=50_phi=135_seed=1.png,1,p,hard,texture,5d9338fc2f873000165f8e95,30,female,2021-05-03_11h24.25.540,search_v5,2021.1.2,Win32,60.09976561,,,space,0.147855,0,15,15,55,1,,,,,,,,,,,,,,,,,
,,,,,,,,,,,,,,,,p,1,1.275625,,,,,,,,tex_mid_TP/1.65_r=50_phi=45_seed=2.png,1,p,mid,texture,5d9338fc2f873000165f8e95,30,female,2021-05-03_11h24.25.540,search_v5,2021.1.2,Win32,60.09976561,,,space,0.155605,0,16,16,80,1,,,,,,,,,,,,,,,,,
,,,,,,,,,,,,,,,,p,1,0.862065,,,,,,,,tex_mid_TP/1.65_r=250_phi=180_seed=2.png,1,p,mid,texture,5d9338fc2f873000165f8e95,30,female,2021-05-03_11h24.25.540,search_v5,2021.1.2,Win32,60.09976561,,,space,0.14047,0,17,17,63,1,,,,,,,,,,,,,,,,,
,,,,,,,,,,,,,,,,a,1,1.523825,,,,,,,,tex_hard_TA/1.6_r=TA_seed=1.png,0,a,hard,texture,5d9338fc2f873000165f8e95,30,female,2021-05-03_11h24.25.540,search_v5,2021.1.2,Win32,60.09976561,,,space,0.719035,0,18,18,131,1,,,,,,,,,,,,,,,,,
,,,,,,,,,,,,,,,,a,1,1.422035,,,,,,,,tex_hard_TA/1.6_r=TA_seed=1.png,0,a,hard,texture,5d9338fc2f873000165f8e95,30,female,2021-05-03_11h24.25.540,search_v5,2021.1.2,Win32,60.09976561,,,space,0.509365,0,19,19,143,1,,,,,,,,,,,,,,,,,
,,,,,,,,,,,,,,,,p,0,1.38179,,,,,,,,tex_hard_TA/1.6_r=TA_seed=1.png,0,a,hard,texture,5d9338fc2f873000165f8e95,30,female,2021-05-03_11h24.25.540,search_v5,2021.1.2,Win32,60.09976561,,,space,0.53991,0,20,20,146,1,,,,,,,,,,,,,,,,,
,,,,,,,,,,,,,,,,a,1,1.370705,,,,,,,,tex_easy_TA/1.7_r=TA_seed=3.png,0,a,easy,texture,5d9338fc2f873000165f8e95,30,female,2021-05-03_11h24.25.540,search_v5,2021.1.2,Win32,60.09976561,,,space,0.406255,0,21,21,110,1,,,,,,,,,,,,,,,,,
,,,,,,,,,,,,,,,,a,1,1.533055,,,,,,,,tex_easy_TA/1.7_r=TA_seed=3.png,0,a,easy,texture,5d9338fc2f873000165f8e95,30,female,2021-05-03_11h24.25.540,search_v5,2021.1.2,Win32,60.09976561,,,space,0.376725,0,22,22,108,1,,,,,,,,,,,,,,,,,
,,,,,,,,,,,,,,,,a,1,1.624385,,,,,,,,tex_easy_TA/1.7_r=TA_seed=3.png,0,a,easy,texture,5d9338fc2f873000165f8e95,30,female,2021-05-03_11h24.25.540,search_v5,2021.1.2,Win32,60.09976561,,,space,0.375025,0,23,23,112,1,,,,,,,,,,,,,,,,,
,,,,,,,,,,,,,,,,p,1,1.399345,,,,,,,,tex_mid_TP/1.65_r=400_phi=315_seed=2.png,1,p,mid,texture,5d9338fc2f873000165f8e95,30,female,2021-05-03_11h24.25.540,search_v5,2021.1.2,Win32,60.09976561,,,space,0.265685,0,24,24,73,1,,,,,,,,,,,,,,,,,
,,,,,,,,,,,,,,,,p,0,1.998915,,,,,,,,tex_hard_TA/1.6_r=TA_seed=1.png,0,a,hard,texture,5d9338fc2f873000165f8e95,30,female,2021-05-03_11h24.25.540,search_v5,2021.1.2,Win32,60.09976561,,,space,2.121585,0,25,25,136,1,,,,,,,,,,,,,,,,,
,,,,,,,,,,,,,,,,p,0,1.763285,,,,,,,,tex_hard_TA/1.6_r=TA_seed=1.png,0,a,hard,texture,5d9338fc2f873000165f8e95,30,female,2021-05-03_11h24.25.540,search_v5,2021.1.2,Win32,60.09976561,,,space,0.067225,0,26,26,130,1,,,,,,,,,,,,,,,,,
,,,,,,,,,,,,,,,,a,0,1.483865,,,,,,,,tex_hard_TP/1.6_r=100_phi=90_seed=1.png,1,p,hard,texture,5d9338fc2f873000165f8e95,30,female,2021-05-03_11h24.25.540,search_v5,2021.1.2,Win32,60.09976561,,,space,1.101365,0,27,27,35,1,,,,,,,,,,,,,,,,,
,,,,,,,,,,,,,,,,a,1,1.85604,,,,,,,,tex_easy_TA/1.7_r=TA_seed=3.png,0,a,easy,texture,5d9338fc2f873000165f8e95,30,female,2021-05-03_11h24.25.540,search_v5,2021.1.2,Win32,60.09976561,,,space,0.482965,0,28,28,111,1,,,,,,,,,,,,,,,,,
,,,,,,,,,,,,,,,,a,1,1.748825,,,,,,,,tex_hard_TA/1.6_r=TA_seed=1.png,0,a,hard,texture,5d9338fc2f873000165f8e95,30,female,2021-05-03_11h24.25.540,search_v5,2021.1.2,Win32,60.09976561,,,space,0.424735,0,29,29,135,1,,,,,,,,,,,,,,,,,
,,,,,,,,,,,,,,,,a,1,1.40928,,,,,,,,tex_easy_TA/1.7_r=TA_seed=3.png,0,a,easy,texture,5d9338fc2f873000165f8e95,30,female,2021-05-03_11h24.25.540,search_v5,2021.1.2,Win32,60.09976561,,,space,0.343295,0,30,30,123,1,,,,,,,,,,,,,,,,,
,,,,,,,,,,,,,,,,a,1,1.63144,,,,,,,,tex_mid_TA/1.65_r=TA_seed=2.png,0,a,mid,texture,5d9338fc2f873000165f8e95,30,female,2021-05-03_11h24.25.540,search_v5,2021.1.2,Win32,60.09976561,,,space,0.43597,0,31,31,82,1,,,,,,,,,,,,,,,,,
,,,,,,,,,,,,,,,,a,0,1.970595,,,,,,,,tex_hard_TP/1.6_r=200_phi=315_seed=1.png,1,p,hard,texture,5d9338fc2f873000165f8e95,30,female,2021-05-03_11h24.25.540,search_v5,2021.1.2,Win32,60.09976561,,,space,2.72035,0,32,32,40,1,,,,,,,,,,,,,,,,,
,,,,,,,,,,,,,,,,p,0,1.501755,,,,,,,,tex_hard_TA/1.6_r=TA_seed=1.png,0,a,hard,texture,5d9338fc2f873000165f8e95,30,female,2021-05-03_11h24.25.540,search_v5,2021.1.2,Win32,60.09976561,,,space,5.005965,0,33,33,10,1,,,,,,,,,,,,,,,,,
,,,,,,,,,,,,,,,,a,1,1.32337,,,,,,,,tex_easy_TA/1.7_r=TA_seed=3.png,0,a,easy,texture,5d9338fc2f873000165f8e95,30,female,2021-05-03_11h24.25.540,search_v5,2021.1.2,Win32,60.09976561,,,space,0.668305,0,34,34,8,1,,,,,,,,,,,,,,,,,
,,,,,,,,,,,,,,,,p,0,1.817085,,,,,,,,tex_hard_TA/1.6_r=TA_seed=1.png,0,a,hard,texture,5d9338fc2f873000165f8e95,30,female,2021-05-03_11h24.25.540,search_v5,2021.1.2,Win32,60.09976561,,,space,1.217695,0,35,35,148,1,,,,,,,,,,,,,,,,,
,,,,,,,,,,,,,,,,a,1,2.12352,,,,,,,,tex_easy_TA/1.7_r=TA_seed=3.png,0,a,easy,texture,5d9338fc2f873000165f8e95,30,female,2021-05-03_11h24.25.540,search_v5,2021.1.2,Win32,60.09976561,,,space,1.48776,0,36,36,105,1,,,,,,,,,,,,,,,,,
,,,,,,,,,,,,,,,,a,1,1.90317,,,,,,,,tex_hard_TA/1.6_r=TA_seed=1.png,0,a,hard,texture,5d9338fc2f873000165f8e95,30,female,2021-05-03_11h24.25.540,search_v5,2021.1.2,Win32,60.09976561,,,space,1.0015,0,37,37,137,1,,,,,,,,,,,,,,,,,
,,,,,,,,,,,,,,,,p,1,0.98258,,,,,,,,tex_mid_TP/1.65_r=200_phi=225_seed=2.png,1,p,mid,texture,5d9338fc2f873000165f8e95,30,female,2021-05-03_11h24.25.540,search_v5,2021.1.2,Win32,60.09976561,,,space,0.91793,0,38,38,60,1,,,,,,,,,,,,,,,,,
,,,,,,,,,,,,,,,,p,1,0.950285,,,,,,,,tex_easy_TP/1.7_r=250_phi=225_seed=3.png,1,p,easy,texture,5d9338fc2f873000165f8e95,30,female,2021-05-03_11h24.25.540,search_v5,2021.1.2,Win32,60.09976561,,,space,0.656125,0,39,39,18,1,,,,,,,,,,,,,,,,,
,,,,,,,,,,,,,,,,a,1,1.99504,,,,,,,,tex_mid_TA/1.65_r=TA_seed=2.png,0,a,mid,texture,5d9338fc2f873000165f8e95,30,female,2021-05-03_11h24.25.540,search_v5,2021.1.2,Win32,60.09976561,,,space,1.267335,0,40,40,94,1,,,,,,,,,,,,,,,,,
,,,,,,,,,,,,,,,,p,1,1.38291,,,,,,,,tex_mid_TP/1.65_r=350_phi=90_seed=2.png,1,p,mid,texture,5d9338fc2f873000165f8e95,30,female,2021-05-03_11h24.25.540,search_v5,2021.1.2,Win32,60.09976561,,,space,0.70052,0,41,41,71,1,,,,,,,,,,,,,,,,,
,,,,,,,,,,,,,,,,a,0,2.03033,,,,,,,,tex_easy_TP/1.7_r=400_phi=135_seed=3.png,1,p,easy,texture,5d9338fc2f873000165f8e95,30,female,2021-05-03_11h24.25.540,search_v5,2021.1.2,Win32,60.09976561,,,space,1.19331,0,42,42,28,1,,,,,,,,,,,,,,,,,
,,,,,,,,,,,,,,,,a,1,2.38032,,,,,,,,tex_easy_TA/1.7_r=TA_seed=3.png,0,a,easy,texture,5d9338fc2f873000165f8e95,30,female,2021-05-03_11h24.25.540,search_v5,2021.1.2,Win32,60.09976561,,,space,1.00044,0,43,43,121,1,,,,,,,,,,,,,,,,,
,,,,,,,,,,,,,,,,a,1,1.647235,,,,,,,,tex_easy_TA/1.7_r=TA_seed=3.png,0,a,easy,texture,5d9338fc2f873000165f8e95,30,female,2021-05-03_11h24.25.540,search_v5,2021.1.2,Win32,60.09976561,,,space,1.05379,0,44,44,122,1,,,,,,,,,,,,,,,,,
,,,,,,,,,,,,,,,,a,0,2.35064,,,,,,,,tex_hard_TP/1.6_r=300_phi=225_seed=1.png,1,p,hard,texture,5d9338fc2f873000165f8e95,30,female,2021-05-03_11h24.25.540,search_v5,2021.1.2,Win32,60.09976561,,,space,2.9798,0,45,45,44,1,,,,,,,,,,,,,,,,,
,,,,,,,,,,,,,,,,a,1,2.114365,,,,,,,,tex_mid_TA/1.65_r=TA_seed=2.png,0,a,mid,texture,5d9338fc2f873000165f8e95,30,female,2021-05-03_11h24.25.540,search_v5,2021.1.2,Win32,60.09976561,,,space,0.86524,0,46,46,89,1,,,,,,,,,,,,,,,,,
,,,,,,,,,,,,,,,,p,1,2.137555,,,,,,,,tex_easy_TP/1.7_r=350_phi=135_seed=3.png,1,p,easy,texture,5d9338fc2f873000165f8e95,30,female,2021-05-03_11h24.25.540,search_v5,2021.1.2,Win32,60.09976561,,,space,2.35345,0,47,47,24,1,,,,,,,,,,,,,,,,,
,,,,,,,,,,,,,,,,p,1,2.754105,,,,,,,,tex_mid_TP/1.65_r=400_phi=45_seed=2.png,1,p,mid,texture,5d9338fc2f873000165f8e95,30,female,2021-05-03_11h24.25.540,search_v5,2021.1.2,Win32,60.09976561,,,space,0.659965,0,48,48,74,1,,,,,,,,,,,,,,,,,
,,,,,,,,,,,,,,,,a,1,2.215855,,,,,,,,tex_mid_TA/1.65_r=TA_seed=2.png,0,a,mid,texture,5d9338fc2f873000165f8e95,30,female,2021-05-03_11h24.25.540,search_v5,2021.1.2,Win32,60.09976561,,,space,0.66657,0,49,49,90,1,,,,,,,,,,,,,,,,,
,,,,,,,,,,,,,,,,p,1,0.922615,,,,,,,,tex_mid_TP/1.65_r=100_phi=45_seed=2.png,1,p,mid,texture,5d9338fc2f873000165f8e95,30,female,2021-05-03_11h24.25.540,search_v5,2021.1.2,Win32,60.09976561,,,space,0.432545,0,50,50,58,1,,,,,,,,,,,,,,,,,
,,,,,,,,,,,,,,,,a,1,3.246995,,,,,,,,tex_mid_TA/1.65_r=TA_seed=2.png,0,a,mid,texture,5d9338fc2f873000165f8e95,30,female,2021-05-03_11h24.25.540,search_v5,2021.1.2,Win32,60.09976561,,,space,0.618335,0,51,51,81,1,,,,,,,,,,,,,,,,,
,,,,,,,,,,,,,,,,p,0,2.135015,,,,,,,,tex_easy_TA/1.7_r=TA_seed=3.png,0,a,easy,texture,5d9338fc2f873000165f8e95,30,female,2021-05-03_11h24.25.540,search_v5,2021.1.2,Win32,60.09976561,,,space,3.041245,0,52,52,118,1,,,,,,,,,,,,,,,,,
,,,,,,,,,,,,,,,,p,1,0.998585,,,,,,,,tex_mid_TP/1.65_r=100_phi=225_seed=2.png,1,p,mid,texture,5d9338fc2f873000165f8e95,30,female,2021-05-03_11h24.25.540,search_v5,2021.1.2,Win32,60.09976561,,,space,0.334555,0,53,53,4,1,,,,,,,,,,,,,,,,,
,,,,,,,,,,,,,,,,p,1,1.444645,,,,,,,,tex_easy_TP/1.7_r=250_phi=135_seed=3.png,1,p,easy,texture,5d9338fc2f873000165f8e95,30,female,2021-05-03_11h24.25.540,search_v5,2021.1.2,Win32,60.09976561,,,space,0.33421,0,54,54,17,1,,,,,,,,,,,,,,,,,
,,,,,,,,,,,,,,,,p,1,1.78866,,,,,,,,tex_mid_TP/1.65_r=350_phi=0_seed=2.png,1,p,mid,texture,5d9338fc2f873000165f8e95,30,female,2021-05-03_11h24.25.540,search_v5,2021.1.2,Win32,60.09976561,,,space,0.36772,0,55,55,70,1,,,,,,,,,,,,,,,,,
,,,,,,,,,,,,,,,,p,1,1.164495,,,,,,,,tex_mid_TP/1.65_r=450_phi=0_seed=2.png,1,p,mid,texture,5d9338fc2f873000165f8e95,30,female,2021-05-03_11h24.25.540,search_v5,2021.1.2,Win32,60.09976561,,,space,0.341655,0,56,56,75,1,,,,,,,,,,,,,,,,,
,,,,,,,,,,,,,,,,a,1,3.31417,,,,,,,,tex_easy_TA/1.7_r=TA_seed=3.png,0,a,easy,texture,5d9338fc2f873000165f8e95,30,female,2021-05-03_11h24.25.540,search_v5,2021.1.2,Win32,60.09976561,,,space,0.917675,0,57,57,104,1,,,,,,,,,,,,,,,,,
,,,,,,,,,,,,,,,,p,1,0.90075,,,,,,,,tex_easy_TP/1.7_r=300_phi=315_seed=3.png,1,p,easy,texture,5d9338fc2f873000165f8e95,30,female,2021-05-03_11h24.25.540,search_v5,2021.1.2,Win32,60.09976561,,,space,0.38801,0,58,58,23,1,,,,,,,,,,,,,,,,,
,,,,,,,,,,,,,,,,a,1,3.580905,,,,,,,,tex_mid_TA/1.65_r=TA_seed=2.png,0,a,mid,texture,5d9338fc2f873000165f8e95,30,female,2021-05-03_11h24.25.540,search_v5,2021.1.2,Win32,60.09976561,,,space,0.55181,0,59,59,93,1,,,,,,,,,,,,,,,,,
,,,,,,,,,,,,,,,,a,0,4.46394,,,,,,,,tex_mid_TP/1.65_r=450_phi=90_seed=2.png,1,p,mid,texture,5d9338fc2f873000165f8e95,30,female,2021-05-03_11h24.25.540,search_v5,2021.1.2,Win32,60.09976561,,,space,0.7393,0,60,60,77,1,,,,,,,,,,,,,,,,,
,,,,,,,,,,,,,,,,p,1,1.16541,,,,,,,,tex_easy_TP/1.7_r=350_phi=315_seed=3.png,1,p,easy,texture,5d9338fc2f873000165f8e95,30,female,2021-05-03_11h24.25.540,search_v5,2021.1.2,Win32,60.09976561,,,space,0.30012,0,61,61,26,1,,,,,,,,,,,,,,,,,
,,,,,,,,,,,,,,,,a,1,2.82706,,,,,,,,tex_easy_TA/1.7_r=TA_seed=3.png,0,a,easy,texture,5d9338fc2f873000165f8e95,30,female,2021-05-03_11h24.25.540,search_v5,2021.1.2,Win32,60.09976561,,,space,0.431815,0,62,62,9,1,,,,,,,,,,,,,,,,,
,,,,,,,,,,,,,,,,p,1,1.79885,,,,,,,,tex_hard_TP/1.6_r=50_phi=315_seed=1.png,1,p,hard,texture,5d9338fc2f873000165f8e95,30,female,2021-05-03_11h24.25.540,search_v5,2021.1.2,Win32,60.09976561,,,space,0.35099,0,63,63,57,1,,,,,,,,,,,,,,,,,
,,,,,,,,,,,,,,,,a,0,3.191195,,,,,,,,tex_mid_TP/1.65_r=300_phi=135_seed=2.png,1,p,mid,texture,5d9338fc2f873000165f8e95,30,female,2021-05-03_11h24.25.540,search_v5,2021.1.2,Win32,60.09976561,,,space,2.108595,0,64,64,66,1,,,,,,,,,,,,,,,,,
,,,,,,,,,,,,,,,,p,0,2.16204,,,,,,,,tex_mid_TA/1.65_r=TA_seed=2.png,0,a,mid,texture,5d9338fc2f873000165f8e95,30,female,2021-05-03_11h24.25.540,search_v5,2021.1.2,Win32,60.09976561,,,space,0.834,0,65,65,99,1,,,,,,,,,,,,,,,,,
,,,,,,,,,,,,,,,,a,0,3.141845,,,,,,,,tex_hard_TP/1.6_r=150_phi=135_seed=1.png,1,p,hard,texture,5d9338fc2f873000165f8e95,30,female,2021-05-03_11h24.25.540,search_v5,2021.1.2,Win32,60.09976561,,,space,0.08543,0,66,66,36,1,,,,,,,,,,,,,,,,,
,,,,,,,,,,,,,,,,p,1,3.35648,,,,,,,,tex_hard_TP/1.6_r=250_phi=225_seed=1.png,1,p,hard,texture,5d9338fc2f873000165f8e95,30,female,2021-05-03_11h24.25.540,search_v5,2021.1.2,Win32,60.09976561,,,space,2.52262,0,67,67,42,1,,,,,,,,,,,,,,,,,
,,,,,,,,,,,,,,,,p,0,4.6484,,,,,,,,tex_hard_TA/1.6_r=TA_seed=1.png,0,a,hard,texture,5d9338fc2f873000165f8e95,30,female,2021-05-03_11h24.25.540,search_v5,2021.1.2,Win32,60.09976561,,,space,1.70364,0,68,68,144,1,,,,,,,,,,,,,,,,,
,,,,,,,,,,,,,,,,a,1,2.691835,,,,,,,,tex_mid_TA/1.65_r=TA_seed=2.png,0,a,mid,texture,5d9338fc2f873000165f8e95,30,female,2021-05-03_11h24.25.540,search_v5,2021.1.2,Win32,60.09976561,,,space,1.080315,0,69,69,92,1,,,,,,,,,,,,,,,,,
,,,,,,,,,,,,,,,,p,1,1.30137,,,,,,,,tex_hard_TP/1.6_r=50_phi=225_seed=1.png,1,p,hard,texture,5d9338fc2f873000165f8e95,30,female,2021-05-03_11h24.25.540,search_v5,2021.1.2,Win32,60.09976561,,,space,0.91843,0,70,70,56,1,,,,,,,,,,,,,,,,,
,,,,,,,,,,,,,,,,a,1,3.84272,,,,,,,,tex_hard_TA/1.6_r=TA_seed=1.png,0,a,hard,texture,5d9338fc2f873000165f8e95,30,female,2021-05-03_11h24.25.540,search_v5,2021.1.2,Win32,60.09976561,,,space,1.034725,0,71,71,134,1,,,,,,,,,,,,,,,,,
,,,,,,,,,,,,,,,,p,1,1.365,,,,,,,,tex_mid_TP/1.65_r=250_phi=225_seed=2.png,1,p,mid,texture,5d9338fc2f873000165f8e95,30,female,2021-05-03_11h24.25.540,search_v5,2021.1.2,Win32,60.09976561,,,space,0.80171,0,72,72,64,1,,,,,,,,,,,,,,,,,
,,,,,,,,,,,,,,,,a,1,4.594555,,,,,,,,tex_easy_TA/1.7_r=TA_seed=3.png,0,a,easy,texture,5d9338fc2f873000165f8e95,30,female,2021-05-03_11h24.25.540,search_v5,2021.1.2,Win32,60.09976561,,,space,0.802055,0,73,73,120,1,,,,,,,,,,,,,,,,,
,,,,,,,,,,,,,,,,p,1,2.34113,,,,,,,,tex_easy_TP/1.7_r=400_phi=90_seed=3.png,1,p,easy,texture,5d9338fc2f873000165f8e95,30,female,2021-05-03_11h24.25.540,search_v5,2021.1.2,Win32,60.09976561,,,space,0.71963,0,74,74,31,1,,,,,,,,,,,,,,,,,
,,,,,,,,,,,,,,,,p,1,3.367965,,,,,,,,tex_mid_TP/1.65_r=250_phi=45_seed=2.png,1,p,mid,texture,5d9338fc2f873000165f8e95,30,female,2021-05-03_11h24.25.540,search_v5,2021.1.2,Win32,60.09976561,,,space,0.69007,0,75,75,65,1,,,,,,,,,,,,,,,,,
,,,,,,,,,,,,,,,,a,1,5.32738,,,,,,,,tex_mid_TA/1.65_r=TA_seed=2.png,0,a,mid,texture,5d9338fc2f873000165f8e95,30,female,2021-05-03_11h24.25.540,search_v5,2021.1.2,Win32,60.09976561,,,space,0.639625,0,76,76,83,1,,,,,,,,,,,,,,,,,
,,,,,,,,,,,,,,,,p,1,1.601035,,,,,,,,tex_mid_TP/1.65_r=50_phi=315_seed=2.png,1,p,mid,texture,5d9338fc2f873000165f8e95,30,female,2021-05-03_11h24.25.540,search_v5,2021.1.2,Win32,60.09976561,,,space,0.46828,0,77,77,79,1,,,,,,,,,,,,,,,,,
,,,,,,,,,,,,,,,,a,1,5.24017,,,,,,,,tex_mid_TA/1.65_r=TA_seed=2.png,0,a,mid,texture,5d9338fc2f873000165f8e95,30,female,2021-05-03_11h24.25.540,search_v5,2021.1.2,Win32,60.09976561,,,space,0.543575,0,78,78,100,1,,,,,,,,,,,,,,,,,
,,,,,,,,,,,,,,,,p,0,4.806635,,,,,,,,tex_easy_TA/1.7_r=TA_seed=3.png,0,a,easy,texture,5d9338fc2f873000165f8e95,30,female,2021-05-03_11h24.25.540,search_v5,2021.1.2,Win32,60.09976561,,,space,2.82094,0,79,79,114,1,,,,,,,,,,,,,,,,,
,,,,,,,,,,,,,,,,a,1,4.011095,,,,,,,,tex_easy_TA/1.7_r=TA_seed=3.png,0,a,easy,texture,5d9338fc2f873000165f8e95,30,female,2021-05-03_11h24.25.540,search_v5,2021.1.2,Win32,60.09976561,,,space,1.598335,0,80,80,113,1,,,,,,,,,,,,,,,,,
,,,,,,,,,,,,,,,,p,1,1.645625,,,,,,,,tex_hard_TP/1.6_r=350_phi=90_seed=1.png,1,p,hard,texture,5d9338fc2f873000165f8e95,30,female,2021-05-03_11h24.25.540,search_v5,2021.1.2,Win32,60.09976561,,,space,1.156385,0,81,81,48,1,,,,,,,,,,,,,,,,,
,,,,,,,,,,,,,,,,p,1,1.13494,,,,,,,,tex_easy_TP/1.7_r=200_phi=90_seed=3.png,1,p,easy,texture,5d9338fc2f873000165f8e95,30,female,2021-05-03_11h24.25.540,search_v5,2021.1.2,Win32,60.09976561,,,space,0.702555,0,82,82,16,1,,,,,,,,,,,,,,,,,
,,,,,,,,,,,,,,,,p,1,1.001425,,,,,,,,tex_easy_TP/1.7_r=200_phi=135_seed=3.png,1,p,easy,texture,5d9338fc2f873000165f8e95,30,female,2021-05-03_11h24.25.540,search_v5,2021.1.2,Win32,60.09976561,,,space,0.709305,0,83,83,13,1,,,,,,,,,,,,,,,,,
,,,,,,,,,,,,,,,,p,1,1.20067,,,,,,,,tex_easy_TP/1.7_r=300_phi=135_seed=3.png,1,p,easy,texture,5d9338fc2f873000165f8e95,30,female,2021-05-03_11h24.25.540,search_v5,2021.1.2,Win32,60.09976561,,,space,0.635555,0,84,84,21,1,,,,,,,,,,,,,,,,,
,,,,,,,,,,,,,,,,a,1,4.60295,,,,,,,,tex_easy_TA/1.7_r=TA_seed=3.png,0,a,easy,texture,5d9338fc2f873000165f8e95,30,female,2021-05-03_11h24.25.540,search_v5,2021.1.2,Win32,60.09976561,,,space,1.33578,0,85,85,109,1,,,,,,,,,,,,,,,,,
,,,,,,,,,,,,,,,,a,1,4.313975,,,,,,,,tex_easy_TA/1.7_r=TA_seed=3.png,0,a,easy,texture,5d9338fc2f873000165f8e95,30,female,2021-05-03_11h24.25.540,search_v5,2021.1.2,Win32,60.09976561,,,space,0.63973,0,86,86,126,1,,,,,,,,,,,,,,,,,
,,,,,,,,,,,,,,,,p,1,1.36295,,,,,,,,tex_hard_TP/1.6_r=200_phi=135_seed=1.png,1,p,hard,texture,5d9338fc2f873000165f8e95,30,female,2021-05-03_11h24.25.540,search_v5,2021.1.2,Win32,60.09976561,,,space,0.435075,0,87,87,38,1,,,,,,,,,,,,,,,,,
,,,,,,,,,,,,,,,,p,1,1.289435,,,,,,,,tex_easy_TP/1.7_r=400_phi=225_seed=3.png,1,p,easy,texture,5d9338fc2f873000165f8e95,30,female,2021-05-03_11h24.25.540,search_v5,2021.1.2,Win32,60.09976561,,,space,0.41757,0,88,88,29,1,,,,,,,,,,,,,,,,,
,,,,,,,,,,,,,,,,p,1,1.022875,,,,,,,,tex_easy_TP/1.7_r=300_phi=225_seed=3.png,1,p,easy,texture,5d9338fc2f873000165f8e95,30,female,2021-05-03_11h24.25.540,search_v5,2021.1.2,Win32,60.09976561,,,space,0.501445,0,89,89,22,1,,,,,,,,,,,,,,,,,
,,,,,,,,,,,,,,,,a,1,4.23866,,,,,,,,tex_mid_TA/1.65_r=TA_seed=2.png,0,a,mid,texture,5d9338fc2f873000165f8e95,30,female,2021-05-03_11h24.25.540,search_v5,2021.1.2,Win32,60.09976561,,,space,0.650885,0,90,90,85,1,,,,,,,,,,,,,,,,,
,,,,,,,,,,,,,,,,p,1,1.483295,,,,,,,,tex_easy_TP/1.7_r=250_phi=315_seed=3.png,1,p,easy,texture,5d9338fc2f873000165f8e95,30,female,2021-05-03_11h24.25.540,search_v5,2021.1.2,Win32,60.09976561,,,space,0.3905,0,91,91,19,1,,,,,,,,,,,,,,,,,
,,,,,,,,,,,,,,,,a,1,4.20794,,,,,,,,tex_easy_TA/1.7_r=TA_seed=3.png,0,a,easy,texture,5d9338fc2f873000165f8e95,30,female,2021-05-03_11h24.25.540,search_v5,2021.1.2,Win32,60.09976561,,,space,0.458485,0,92,92,116,1,,,,,,,,,,,,,,,,,
,,,,,,,,,,,,,,,,p,1,1.234755,,,,,,,,tex_mid_TP/1.65_r=50_phi=270_seed=2.png,1,p,mid,texture,5d9338fc2f873000165f8e95,30,female,2021-05-03_11h24.25.540,search_v5,2021.1.2,Win32,60.09976561,,,space,0.317235,0,93,93,78,1,,,,,,,,,,,,,,,,,
,,,,,,,,,,,,,,,,a,0,3.5486,,,,,,,,tex_hard_TP/1.6_r=450_phi=90_seed=1.png,1,p,hard,texture,5d9338fc2f873000165f8e95,30,female,2021-05-03_11h24.25.540,search_v5,2021.1.2,Win32,60.09976561,,,space,2.857135,0,94,94,54,1,,,,,,,,,,,,,,,,,
,,,,,,,,,,,,,,,,a,1,4.67562,,,,,,,,tex_easy_TA/1.7_r=TA_seed=3.png,0,a,easy,texture,5d9338fc2f873000165f8e95,30,female,2021-05-03_11h24.25.540,search_v5,2021.1.2,Win32,60.09976561,,,space,0.547445,0,95,95,124,1,,,,,,,,,,,,,,,,,
,,,,,,,,,,,,,,,,a,1,4.407485,,,,,,,,tex_hard_TA/1.6_r=TA_seed=1.png,0,a,hard,texture,5d9338fc2f873000165f8e95,30,female,2021-05-03_11h24.25.540,search_v5,2021.1.2,Win32,60.09976561,,,space,0.549585,0,96,96,140,1,,,,,,,,,,,,,,,,,
,,,,,,,,,,,,,,,,p,1,1.18036,,,,,,,,tex_easy_TP/1.7_r=250_phi=90_seed=3.png,1,p,easy,texture,5d9338fc2f873000165f8e95,30,female,2021-05-03_11h24.25.540,search_v5,2021.1.2,Win32,60.09976561,,,space,0.32398,0,97,97,20,1,,,,,,,,,,,,,,,,,
,,,,,,,,,,,,,,,,p,1,4.03407,,,,,,,,tex_hard_TP/1.6_r=150_phi=90_seed=1.png,1,p,hard,texture,5d9338fc2f873000165f8e95,30,female,2021-05-03_11h24.25.540,search_v5,2021.1.2,Win32,60.09976561,,,space,0.4552,0,98,98,37,1,,,,,,,,,,,,,,,,,
,,,,,,,,,,,,,,,,a,0,5.557505,,,,,,,,tex_hard_TP/1.6_r=400_phi=225_seed=1.png,1,p,hard,texture,5d9338fc2f873000165f8e95,30,female,2021-05-03_11h24.25.540,search_v5,2021.1.2,Win32,60.09976561,,,space,1.353565,0,99,99,49,1,,,,,,,,,,,,,,,,,
,,,,,,,,,,,,,,,,p,1,1.116135,,,,,,,,tex_easy_TP/1.7_r=150_phi=225_seed=3.png,1,p,easy,texture,5d9338fc2f873000165f8e95,30,female,2021-05-03_11h24.25.540,search_v5,2021.1.2,Win32,60.09976561,,,space,0.30415,0,100,100,0,1,,,,,,,,,,,,,,,,,
,,,,,,,,,,,,,,,,a,1,3.992215,,,,,,,,tex_hard_TA/1.6_r=TA_seed=1.png,0,a,hard,texture,5d9338fc2f873000165f8e95,30,female,2021-05-03_11h24.25.540,search_v5,2021.1.2,Win32,60.09976561,,,space,0.500245,0,101,101,139,1,,,,,,,,,,,,,,,,,
,,,,,,,,,,,,,,,,a,1,2.93062,,,,,,,,tex_hard_TA/1.6_r=TA_seed=1.png,0,a,hard,texture,5d9338fc2f873000165f8e95,30,female,2021-05-03_11h24.25.540,search_v5,2021.1.2,Win32,60.09976561,,,space,0.3698,0,102,102,127,1,,,,,,,,,,,,,,,,,
,,,,,,,,,,,,,,,,p,1,0.937805,,,,,,,,tex_easy_TP/1.7_r=350_phi=90_seed=3.png,1,p,easy,texture,5d9338fc2f873000165f8e95,30,female,2021-05-03_11h24.25.540,search_v5,2021.1.2,Win32,60.09976561,,,space,0.340455,0,103,103,27,1,,,,,,,,,,,,,,,,,
,,,,,,,,,,,,,,,,p,1,0.738945,,,,,,,,tex_mid_TP/1.65_r=200_phi=270_seed=2.png,1,p,mid,texture,5d9338fc2f873000165f8e95,30,female,2021-05-03_11h24.25.540,search_v5,2021.1.2,Win32,60.09976561,,,space,0.349245,0,104,104,61,1,,,,,,,,,,,,,,,,,
,,,,,,,,,,,,,,,,a,1,5.539785,,,,,,,,tex_easy_TA/1.7_r=TA_seed=3.png,0,a,easy,texture,5d9338fc2f873000165f8e95,30,female,2021-05-03_11h24.25.540,search_v5,2021.1.2,Win32,60.09976561,,,space,0.652,0,105,105,119,1,,,,,,,,,,,,,,,,,
,,,,,,,,,,,,,,,,p,1,1.066865,,,,,,,,tex_easy_TP/1.7_r=450_phi=225_seed=3.png,1,p,easy,texture,5d9338fc2f873000165f8e95,30,female,2021-05-03_11h24.25.540,search_v5,2021.1.2,Win32,60.09976561,,,space,0.333765,0,106,106,33,1,,,,,,,,,,,,,,,,,
,,,,,,,,,,,,,,,,p,1,1.638915,,,,,,,,tex_easy_TP/1.7_r=400_phi=315_seed=3.png,1,p,easy,texture,5d9338fc2f873000165f8e95,30,female,2021-05-03_11h24.25.540,search_v5,2021.1.2,Win32,60.09976561,,,space,0.350495,0,107,107,30,1,,,,,,,,,,,,,,,,,
,,,,,,,,,,,,,,,,a,1,3.124465,,,,,,,,tex_easy_TA/1.7_r=TA_seed=3.png,0,a,easy,texture,5d9338fc2f873000165f8e95,30,female,2021-05-03_11h24.25.540,search_v5,2021.1.2,Win32,60.09976561,,,space,0.457035,0,108,108,125,1,,,,,,,,,,,,,,,,,
,,,,,,,,,,,,,,,,p,1,2.819995,,,,,,,,tex_mid_TP/1.65_r=450_phi=135_seed=2.png,1,p,mid,texture,5d9338fc2f873000165f8e95,30,female,2021-05-03_11h24.25.540,search_v5,2021.1.2,Win32,60.09976561,,,space,0.351055,0,109,109,76,1,,,,,,,,,,,,,,,,,
,,,,,,,,,,,,,,,,p,1,1.762745,,,,,,,,tex_mid_TP/1.65_r=100_phi=270_seed=2.png,1,p,mid,texture,5d9338fc2f873000165f8e95,30,female,2021-05-03_11h24.25.540,search_v5,2021.1.2,Win32,60.09976561,,,space,0.349005,0,110,110,5,1,,,,,,,,,,,,,,,,,
,,,,,,,,,,,,,,,,a,1,5.24915,,,,,,,,tex_hard_TA/1.6_r=TA_seed=1.png,0,a,hard,texture,5d9338fc2f873000165f8e95,30,female,2021-05-03_11h24.25.540,search_v5,2021.1.2,Win32,60.09976561,,,space,0.52271,0,111,111,149,1,,,,,,,,,,,,,,,,,
,,,,,,,,,,,,,,,,a,0,4.30554,,,,,,,,tex_hard_TP/1.6_r=100_phi=270_seed=1.png,1,p,hard,texture,5d9338fc2f873000165f8e95,30,female,2021-05-03_11h24.25.540,search_v5,2021.1.2,Win32,60.09976561,,,space,1.91059,0,112,112,3,1,,,,,,,,,,,,,,,,,
,,,,,,,,,,,,,,,,p,1,1.4815,,,,,,,,tex_mid_TP/1.65_r=150_phi=45_seed=2.png,1,p,mid,texture,5d9338fc2f873000165f8e95,30,female,2021-05-03_11h24.25.540,search_v5,2021.1.2,Win32,60.09976561,,,space,0.23405,0,113,113,59,1,,,,,,,,,,,,,,,,,
,,,,,,,,,,,,,,,,a,1,5.641945,,,,,,,,tex_hard_TA/1.6_r=TA_seed=1.png,0,a,hard,texture,5d9338fc2f873000165f8e95,30,female,2021-05-03_11h24.25.540,search_v5,2021.1.2,Win32,60.09976561,,,space,0.459315,0,114,114,129,1,,,,,,,,,,,,,,,,,
,,,,,,,,,,,,,,,,p,1,2.623775,,,,,,,,tex_mid_TP/1.65_r=400_phi=0_seed=2.png,1,p,mid,texture,5d9338fc2f873000165f8e95,30,female,2021-05-03_11h24.25.540,search_v5,2021.1.2,Win32,60.09976561,,,space,0.759805,0,115,115,72,1,,,,,,,,,,,,,,,,,
,,,,,,,,,,,,,,,,p,1,0.952625,,,,,,,,tex_easy_TP/1.7_r=200_phi=315_seed=3.png,1,p,easy,texture,5d9338fc2f873000165f8e95,30,female,2021-05-03_11h24.25.540,search_v5,2021.1.2,Win32,60.09976561,,,space,0.350975,0,116,116,15,1,,,,,,,,,,,,,,,,,
,,,,,,,,,,,,,,,,a,1,3.42333,,,,,,,,tex_easy_TA/1.7_r=TA_seed=3.png,0,a,easy,texture,5d9338fc2f873000165f8e95,30,female,2021-05-03_11h24.25.540,search_v5,2021.1.2,Win32,60.09976561,,,space,0.448395,0,117,117,106,1,,,,,,,,,,,,,,,,,
,,,,,,,,,,,,,,,,a,1,6.33447,,,,,,,,tex_mid_TA/1.65_r=TA_seed=2.png,0,a,mid,texture,5d9338fc2f873000165f8e95,30,female,2021-05-03_11h24.25.540,search_v5,2021.1.2,Win32,60.09976561,,,space,2.52944,0,118,118,84,1,,,,,,,,,,,,,,,,,
,,,,,,,,,,,,,,,,a,1,4.393835,,,,,,,,tex_hard_TA/1.6_r=TA_seed=1.png,0,a,hard,texture,5d9338fc2f873000165f8e95,30,female,2021-05-03_11h24.25.540,search_v5,2021.1.2,Win32,60.09976561,,,space,0.43607,0,119,119,128,1,,,,,,,,,,,,,,,,,
,,,,,,,,,,,,,,,,a,1,4.615695,,,,,,,,tex_hard_TA/1.6_r=TA_seed=1.png,0,a,hard,texture,5d9338fc2f873000165f8e95,30,female,2021-05-03_11h24.25.540,search_v5,2021.1.2,Win32,60.09976561,,,space,0.50099,0,120,120,145,1,,,,,,,,,,,,,,,,,
,,,,,,,,,,,,,,,,a,1,3.88987,,,,,,,,tex_mid_TA/1.65_r=TA_seed=2.png,0,a,mid,texture,5d9338fc2f873000165f8e95,30,female,2021-05-03_11h24.25.540,search_v5,2021.1.2,Win32,60.09976561,,,space,0.46454,0,121,121,91,1,,,,,,,,,,,,,,,,,
,,,,,,,,,,,,,,,,a,1,3.28158,,,,,,,,tex_mid_TA/1.65_r=TA_seed=2.png,0,a,mid,texture,5d9338fc2f873000165f8e95,30,female,2021-05-03_11h24.25.540,search_v5,2021.1.2,Win32,60.09976561,,,space,0.43424,0,122,122,87,1,,,,,,,,,,,,,,,,,
,,,,,,,,,,,,,,,,p,1,1.34756,,,,,,,,tex_easy_TP/1.7_r=150_phi=315_seed=3.png,1,p,easy,texture,5d9338fc2f873000165f8e95,30,female,2021-05-03_11h24.25.540,search_v5,2021.1.2,Win32,60.09976561,,,space,0.418655,0,123,123,1,1,,,,,,,,,,,,,,,,,
,,,,,,,,,,,,,,,,a,1,5.04929,,,,,,,,tex_mid_TA/1.65_r=TA_seed=2.png,0,a,mid,texture,5d9338fc2f873000165f8e95,30,female,2021-05-03_11h24.25.540,search_v5,2021.1.2,Win32,60.09976561,,,space,0.43436,0,124,124,97,1,,,,,,,,,,,,,,,,,
,,,,,,,,,,,,,,,,a,0,3.93037,,,,,,,,tex_hard_TP/1.6_r=350_phi=315_seed=1.png,1,p,hard,texture,5d9338fc2f873000165f8e95,30,female,2021-05-03_11h24.25.540,search_v5,2021.1.2,Win32,60.09976561,,,space,2.31036,0,125,125,47,1,,,,,,,,,,,,,,,,,
,,,,,,,,,,,,,,,,p,1,4.001045,,,,,,,,tex_hard_TP/1.6_r=300_phi=90_seed=1.png,1,p,hard,texture,5d9338fc2f873000165f8e95,30,female,2021-05-03_11h24.25.540,search_v5,2021.1.2,Win32,60.09976561,,,space,0.23775,0,126,126,46,1,,,,,,,,,,,,,,,,,
,,,,,,,,,,,,,,,,a,0,3.66341,,,,,,,,tex_hard_TP/1.6_r=450_phi=315_seed=1.png,1,p,hard,texture,5d9338fc2f873000165f8e95,30,female,2021-05-03_11h24.25.540,search_v5,2021.1.2,Win32,60.09976561,,,space,1.606435,0,127,127,53,1,,,,,,,,,,,,,,,,,
,,,,,,,,,,,,,,,,a,1,4.05878,,,,,,,,tex_mid_TA/1.65_r=TA_seed=2.png,0,a,mid,texture,5d9338fc2f873000165f8e95,30,female,2021-05-03_11h24.25.540,search_v5,2021.1.2,Win32,60.09976561,,,space,1.021775,0,128,128,86,1,,,,,,,,,,,,,,,,,
,,,,,,,,,,,,,,,,a,1,3.73852,,,,,,,,tex_easy_TA/1.7_r=TA_seed=3.png,0,a,easy,texture,5d9338fc2f873000165f8e95,30,female,2021-05-03_11h24.25.540,search_v5,2021.1.2,Win32,60.09976561,,,space,0.93404,0,129,129,117,1,,,,,,,,,,,,,,,,,
,,,,,,,,,,,,,,,,p,1,2.46742,,,,,,,,tex_hard_TP/1.6_r=100_phi=0_seed=1.png,1,p,hard,texture,5d9338fc2f873000165f8e95,30,female,2021-05-03_11h24.25.540,search_v5,2021.1.2,Win32,60.09976561,,,space,0.399125,0,130,130,2,1,,,,,,,,,,,,,,,,,
,,,,,,,,,,,,,,,,p,1,1.026715,,,,,,,,tex_easy_TP/1.7_r=150_phi=90_seed=3.png,1,p,easy,texture,5d9338fc2f873000165f8e95,30,female,2021-05-03_11h24.25.540,search_v5,2021.1.2,Win32,60.09976561,,,space,0.32219,0,131,131,12,1,,,,,,,,,,,,,,,,,
,,,,,,,,,,,,,,,,a,1,4.730915,,,,,,,,tex_hard_TA/1.6_r=TA_seed=1.png,0,a,hard,texture,5d9338fc2f873000165f8e95,30,female,2021-05-03_11h24.25.540,search_v5,2021.1.2,Win32,60.09976561,,,space,0.3683,0,132,132,147,1,,,,,,,,,,,,,,,,,
,,,,,,,,,,,,,,,,a,1,4.3291,,,,,,,,tex_hard_TA/1.6_r=TA_seed=1.png,0,a,hard,texture,5d9338fc2f873000165f8e95,30,female,2021-05-03_11h24.25.540,search_v5,2021.1.2,Win32,60.09976561,,,space,0.43328,0,133,133,132,1,,,,,,,,,,,,,,,,,
,,,,,,,,,,,,,,,,a,0,3.23021,,,,,,,,tex_hard_TP/1.6_r=300_phi=315_seed=1.png,1,p,hard,texture,5d9338fc2f873000165f8e95,30,female,2021-05-03_11h24.25.540,search_v5,2021.1.2,Win32,60.09976561,,,space,0.60117,0,134,134,45,1,,,,,,,,,,,,,,,,,
,,,,,,,,,,,,,,,,a,1,3.82405,,,,,,,,tex_hard_TA/1.6_r=TA_seed=1.png,0,a,hard,texture,5d9338fc2f873000165f8e95,30,female,2021-05-03_11h24.25.540,search_v5,2021.1.2,Win32,60.09976561,,,space,0.37404,0,135,135,133,1,,,,,,,,,,,,,,,,,
,,,,,,,,,,,,,,,,a,0,2.388225,,,,,,,,tex_hard_TP/1.6_r=250_phi=135_seed=1.png,1,p,hard,texture,5d9338fc2f873000165f8e95,30,female,2021-05-03_11h24.25.540,search_v5,2021.1.2,Win32,60.09976561,,,space,3.302565,0,136,136,41,1,,,,,,,,,,,,,,,,,
,,,,,,,,,,,,,,,,p,1,1.43637,,,,,,,,tex_mid_TP/1.65_r=200_phi=45_seed=2.png,1,p,mid,texture,5d9338fc2f873000165f8e95,30,female,2021-05-03_11h24.25.540,search_v5,2021.1.2,Win32,60.09976561,,,space,0.41732,0,137,137,62,1,,,,,,,,,,,,,,,,,
,,,,,,,,,,,,,,,,a,1,6.20572,,,,,,,,tex_mid_TA/1.65_r=TA_seed=2.png,0,a,mid,texture,5d9338fc2f873000165f8e95,30,female,2021-05-03_11h24.25.540,search_v5,2021.1.2,Win32,60.09976561,,,space,0.550975,0,138,138,6,1,,,,,,,,,,,,,,,,,
,,,,,,,,,,,,,,,,p,1,3.29665,,,,,,,,tex_hard_TP/1.6_r=400_phi=315_seed=1.png,1,p,hard,texture,5d9338fc2f873000165f8e95,30,female,2021-05-03_11h24.25.540,search_v5,2021.1.2,Win32,60.09976561,,,space,0.4848,0,139,139,50,1,,,,,,,,,,,,,,,,,
,,,,,,,,,,,,,,,,p,1,1.930835,,,,,,,,tex_easy_TP/1.7_r=450_phi=315_seed=3.png,1,p,easy,texture,5d9338fc2f873000165f8e95,30,female,2021-05-03_11h24.25.540,search_v5,2021.1.2,Win32,60.09976561,,,space,0.358265,0,140,140,34,1,,,,,,,,,,,,,,,,,
,,,,,,,,,,,,,,,,a,1,4.382345,,,,,,,,tex_mid_TA/1.65_r=TA_seed=2.png,0,a,mid,texture,5d9338fc2f873000165f8e95,30,female,2021-05-03_11h24.25.540,search_v5,2021.1.2,Win32,60.09976561,,,space,0.440005,0,141,141,96,1,,,,,,,,,,,,,,,,,
,,,,,,,,,,,,,,,,a,1,4.465965,,,,,,,,tex_mid_TA/1.65_r=TA_seed=2.png,0,a,mid,texture,5d9338fc2f873000165f8e95,30,female,2021-05-03_11h24.25.540,search_v5,2021.1.2,Win32,60.09976561,,,space,0.38198,0,142,142,95,1,,,,,,,,,,,,,,,,,
,,,,,,,,,,,,,,,,a,1,4.06881,,,,,,,,tex_hard_TA/1.6_r=TA_seed=1.png,0,a,hard,texture,5d9338fc2f873000165f8e95,30,female,2021-05-03_11h24.25.540,search_v5,2021.1.2,Win32,60.09976561,,,space,0.42042,0,143,143,11,1,,,,,,,,,,,,,,,,,
,,,,,,,,,,,,,,,,p,1,3.812325,,,,,,,,tex_hard_TP/1.6_r=400_phi=90_seed=1.png,1,p,hard,texture,5d9338fc2f873000165f8e95,30,female,2021-05-03_11h24.25.540,search_v5,2021.1.2,Win32,60.09976561,,,space,0.285815,0,144,144,51,1,,,,,,,,,,,,,,,,,
,,,,,,,,,,,,,,,,a,1,5.028025,,,,,,,,tex_easy_TA/1.7_r=TA_seed=3.png,0,a,easy,texture,5d9338fc2f873000165f8e95,30,female,2021-05-03_11h24.25.540,search_v5,2021.1.2,Win32,60.09976561,,,space,0.535215,0,145,145,115,1,,,,,,,,,,,,,,,,,
,,,,,,,,,,,,,,,,p,1,1.062075,,,,,,,,tex_mid_TP/1.65_r=300_phi=315_seed=2.png,1,p,mid,texture,5d9338fc2f873000165f8e95,30,female,2021-05-03_11h24.25.540,search_v5,2021.1.2,Win32,60.09976561,,,space,0.333955,0,146,146,68,1,,,,,,,,,,,,,,,,,
,,,,,,,,,,,,,,,,a,1,4.010985,,,,,,,,tex_mid_TA/1.65_r=TA_seed=2.png,0,a,mid,texture,5d9338fc2f873000165f8e95,30,female,2021-05-03_11h24.25.540,search_v5,2021.1.2,Win32,60.09976561,,,space,0.42268,0,147,147,98,1,,,,,,,,,,,,,,,,,
,,,,,,,,,,,,,,,,a,1,4.63212,,,,,,,,tex_mid_TA/1.65_r=TA_seed=2.png,0,a,mid,texture,5d9338fc2f873000165f8e95,30,female,2021-05-03_11h24.25.540,search_v5,2021.1.2,Win32,60.09976561,,,space,0.361025,0,148,148,88,1,,,,,,,,,,,,,,,,,
,,,,,,,,,,,,,,,,a,1,5.17577,,,,,,,,tex_hard_TA/1.6_r=TA_seed=1.png,0,a,hard,texture,5d9338fc2f873000165f8e95,30,female,2021-05-03_11h24.25.540,search_v5,2021.1.2,Win32,60.09976561,,,space,0.408535,0,149,149,142,1,,,,,,,,,,,,,,,,,
,,,,,,,,,,,,,,,,,,,,,,,,,,,,,,,5d9338fc2f873000165f8e95,30,female,2021-05-03_11h24.25.540,search_v5,2021.1.2,Win32,60.09976561,,,,,,,,,,0,0,0,1,1,condText.xlsx,texture,Look for a circular shape and indicate if it is present or absent in the array. If it is present press 'p' and if absent press 'a'. Press SPACE to start.,texture_example.jpg,,,,egText.xlsx,,,,
,,,,,,,,,,,,space,35.327445,space,11.722565,a,0,3.57745,space,1.44919,0,0,0,10,1,line_mid_TP/9_2_1.1424_none_right_col_20_row_1.jpg,1,p,mid,line,5d9338fc2f873000165f8e95,30,female,2021-05-03_11h24.25.540,search_v5,2021.1.2,Win32,60.09976561,,,,,,,,,,,,,,,,,,,,,,,,,,
,,,,,,,,,,,,,,,,p,0,2.566375,space,0.767905,0,1,1,5,1,line_hard_TA/11_3_NaN_none_absent.jpg,0,a,hard,line,5d9338fc2f873000165f8e95,30,female,2021-05-03_11h24.25.540,search_v5,2021.1.2,Win32,60.09976561,,,,,,,,,,,,,,,,,,,,,,,,,,
,,,,,,,,,,,,,,,,p,1,1.18984,space,0.533495,0,2,2,2,1,line_easy_TP/10_2_0.5236_all_right_col_18_row_7.jpg,1,p,easy,line,5d9338fc2f873000165f8e95,30,female,2021-05-03_11h24.25.540,search_v5,2021.1.2,Win32,60.09976561,,,,,,,,,,,,,,,,,,,,,,,,,,
,,,,,,,,,,,,,,,,a,0,3.106505,space,0.62214,0,3,3,7,1,line_hard_TP/11_4_2.0944_none_right_col_18_row_11.jpg,1,p,hard,line,5d9338fc2f873000165f8e95,30,female,2021-05-03_11h24.25.540,search_v5,2021.1.2,Win32,60.09976561,,,,,,,,,,,,,,,,,,,,,,,,,,
,,,,,,,,,,,,,,,,p,0,5.048915,space,0.4973,0,4,4,9,1,line_mid_TA/10_2_NaN_none_absent.jpg,0,a,mid,line,5d9338fc2f873000165f8e95,30,female,2021-05-03_11h24.25.540,search_v5,2021.1.2,Win32,60.09976561,,,,,,,,,,,,,,,,,,,,,,,,,,
,,,,,,,,,,,,,,,,a,1,4.34847,space,0.93357,0,5,5,8,1,line_mid_TA/10_1_NaN_none_absent.jpg,0,a,mid,line,5d9338fc2f873000165f8e95,30,female,2021-05-03_11h24.25.540,search_v5,2021.1.2,Win32,60.09976561,,,,,,,,,,,,,,,,,,,,,,,,,,
,,,,,,,,,,,,,,,,p,1,1.55086,space,0.49939,0,6,6,11,1,line_mid_TP/9_3_1.1424_none_left_col_10_row_8.jpg,1,p,mid,line,5d9338fc2f873000165f8e95,30,female,2021-05-03_11h24.25.540,search_v5,2021.1.2,Win32,60.09976561,,,,,,,,,,,,,,,,,,,,,,,,,,
,,,,,,,,,,,,,,,,a,1,3.243325,space,0.63378,0,7,7,1,1,line_easy_TA/11_1_NaN_all_absent.jpg,0,a,easy,line,5d9338fc2f873000165f8e95,30,female,2021-05-03_11h24.25.540,search_v5,2021.1.2,Win32,60.09976561,,,,,,,,,,,,,,,,,,,,,,,,,,
,,,,,,,,,,,,,,,,p,1,3.9373,space,0.773865,0,8,8,6,1,line_hard_TP/10_1_2.0944_none_left_col_10_row_11.jpg,1,p,hard,line,5d9338fc2f873000165f8e95,30,female,2021-05-03_11h24.25.540,search_v5,2021.1.2,Win32,60.09976561,,,,,,,,,,,,,,,,,,,,,,,,,,
,,,,,,,,,,,,,,,,a,1,4.171795,space,0.77675,0,9,9,4,1,line_hard_TA/10_4_NaN_none_absent.jpg,0,a,hard,line,5d9338fc2f873000165f8e95,30,female,2021-05-03_11h24.25.540,search_v5,2021.1.2,Win32,60.09976561,,,,,,,,,,,,,,,,,,,,,,,,,,
,,,,,,,,,,,,,,,,a,1,3.682545,space,0.489575,0,10,10,0,1,line_easy_TA/10_3_NaN_all_absent.jpg,0,a,easy,line,5d9338fc2f873000165f8e95,30,female,2021-05-03_11h24.25.540,search_v5,2021.1.2,Win32,60.09976561,,,,,,,,,,,,,,,,,,,,,,,,,,
,,,,,,,,,,,,,,,,p,1,0.743775,space,0.40081,0,11,11,3,1,line_easy_TP/11_2_0.5236_all_right_col_14_row_9.jpg,1,p,easy,line,5d9338fc2f873000165f8e95,30,female,2021-05-03_11h24.25.540,search_v5,2021.1.2,Win32,60.09976561,,,,,,,,,,,,,,,,,,,,,,,,,,
,,,,,,,,,,,,,,,,a,1,3.06411,,,,,,,,line_easy_TA/16_3_NaN_all_absent.jpg,0,a,easy,line,5d9338fc2f873000165f8e95,30,female,2021-05-03_11h24.25.540,search_v5,2021.1.2,Win32,60.09976561,space,3.43899,space,0.534475,0,0,0,16,1,,,,,,,,,,,,,,,,,
,,,,,,,,,,,,,,,,p,0,3.454755,,,,,,,,line_mid_TA/8_2_NaN_all_absent.jpg,0,a,mid,line,5d9338fc2f873000165f8e95,30,female,2021-05-03_11h24.25.540,search_v5,2021.1.2,Win32,60.09976561,,,space,0.90121,0,1,1,123,1,,,,,,,,,,,,,,,,,
,,,,,,,,,,,,,,,,p,0,1.96432,,,,,,,,line_hard_TA/13_1_NaN_none_absent.jpg,0,a,hard,line,5d9338fc2f873000165f8e95,30,female,2021-05-03_11h24.25.540,search_v5,2021.1.2,Win32,60.09976561,,,space,0.53603,0,2,2,58,1,,,,,,,,,,,,,,,,,
,,,,,,,,,,,,,,,,p,1,1.204645,,,,,,,,line_easy_TP/12_1_0.5236_all_right_col_15_row_4.jpg,1,p,easy,line,5d9338fc2f873000165f8e95,30,female,2021-05-03_11h24.25.540,search_v5,2021.1.2,Win32,60.09976561,,,space,0.316715,0,3,3,35,1,,,,,,,,,,,,,,,,,
,,,,,,,,,,,,,,,,a,0,3.930865,,,,,,,,line_mid_TP/2_1_1.7453_all_right_col_14_row_16.jpg,1,p,mid,line,5d9338fc2f873000165f8e95,30,female,2021-05-03_11h24.25.540,search_v5,2021.1.2,Win32,60.09976561,,,space,1.487075,0,4,4,131,1,,,,,,,,,,,,,,,,,
,,,,,,,,,,,,,,,,a,1,3.699045,,,,,,,,line_easy_TA/9_1_NaN_all_absent.jpg,0,a,easy,line,5d9338fc2f873000165f8e95,30,female,2021-05-03_11h24.25.540,search_v5,2021.1.2,Win32,60.09976561,,,space,0.86683,0,5,5,34,1,,,,,,,,,,,,,,,,,
,,,,,,,,,,,,,,,,p,1,2.692255,,,,,,,,line_mid_TP/3_1_1.1424_none_left_col_10_row_2.jpg,1,p,mid,line,5d9338fc2f873000165f8e95,30,female,2021-05-03_11h24.25.540,search_v5,2021.1.2,Win32,60.09976561,,,space,0.574775,0,6,6,134,1,,,,,,,,,,,,,,,,,
,,,,,,,,,,,,,,,,a,1,4.7044,,,,,,,,line_mid_TA/10_4_NaN_all_absent.jpg,0,a,mid,line,5d9338fc2f873000165f8e95,30,female,2021-05-03_11h24.25.540,search_v5,2021.1.2,Win32,60.09976561,,,space,0.70714,0,7,7,104,1,,,,,,,,,,,,,,,,,
,,,,,,,,,,,,,,,,a,1,5.95331,,,,,,,,line_mid_TA/11_3_NaN_all_absent.jpg,0,a,mid,line,5d9338fc2f873000165f8e95,30,female,2021-05-03_11h24.25.540,search_v5,2021.1.2,Win32,60.09976561,,,space,0.553635,0,8,8,107,1,,,,,,,,,,,,,,,,,
,,,,,,,,,,,,,,,,p,1,0.800705,,,,,,,,line_easy_TP/2_0_0.5236_all_right_col_16_row_4.jpg,1,p,easy,line,5d9338fc2f873000165f8e95,30,female,2021-05-03_11h24.25.540,search_v5,2021.1.2,Win32,60.09976561,,,space,0.41783,0,9,9,47,1,,,,,,,,,,,,,,,,,
,,,,,,,,,,,,,,,,p,0,5.112565,,,,,,,,line_hard_TA/4_0_NaN_none_absent.jpg,0,a,hard,line,5d9338fc2f873000165f8e95,30,female,2021-05-03_11h24.25.540,search_v5,2021.1.2,Win32,60.09976561,,,space,1.96251,0,10,10,77,1,,,,,,,,,,,,,,,,,
,,,,,,,,,,,,,,,,p,1,1.194685,,,,,,,,line_mid_TP/4_4_1.1424_none_left_col_3_row_10.jpg,1,p,mid,line,5d9338fc2f873000165f8e95,30,female,2021-05-03_11h24.25.540,search_v5,2021.1.2,Win32,60.09976561,,,space,0.355255,0,11,11,137,1,,,,,,,,,,,,,,,,,
,,,,,,,,,,,,,,,,p,1,1.532725,,,,,,,,line_hard_TP/5_0_2.0944_none_right_col_17_row_1.jpg,1,p,hard,line,5d9338fc2f873000165f8e95,30,female,2021-05-03_11h24.25.540,search_v5,2021.1.2,Win32,60.09976561,,,space,0.5182,0,12,12,97,1,,,,,,,,,,,,,,,,,
,,,,,,,,,,,,,,,,p,1,0.699955,,,,,,,,line_easy_TP/7_2_0.5236_all_right_col_14_row_5.jpg,1,p,easy,line,5d9338fc2f873000165f8e95,30,female,2021-05-03_11h24.25.540,search_v5,2021.1.2,Win32,60.09976561,,,space,0.36521,0,13,13,53,1,,,,,,,,,,,,,,,,,
,,,,,,,,,,,,,,,,a,1,5.18402,,,,,,,,line_mid_TA/7_1_NaN_all_absent.jpg,0,a,mid,line,5d9338fc2f873000165f8e95,30,female,2021-05-03_11h24.25.540,search_v5,2021.1.2,Win32,60.09976561,,,space,0.40629,0,14,14,122,1,,,,,,,,,,,,,,,,,
,,,,,,,,,,,,,,,,p,1,1.526635,,,,,,,,line_easy_TP/1_0_0.5236_all_left_col_2_row_16.jpg,1,p,easy,line,5d9338fc2f873000165f8e95,30,female,2021-05-03_11h24.25.540,search_v5,2021.1.2,Win32,60.09976561,,,space,0.418525,0,15,15,43,1,,,,,,,,,,,,,,,,,
,,,,,,,,,,,,,,,,a,1,3.466785,,,,,,,,line_easy_TA/1_2_NaN_all_absent.jpg,0,a,easy,line,5d9338fc2f873000165f8e95,30,female,2021-05-03_11h24.25.540,search_v5,2021.1.2,Win32,60.09976561,,,space,0.5345,0,16,16,19,1,,,,,,,,,,,,,,,,,
,,,,,,,,,,,,,,,,a,1,4.526905,,,,,,,,line_mid_TA/9_4_NaN_none_absent.jpg,0,a,mid,line,5d9338fc2f873000165f8e95,30,female,2021-05-03_11h24.25.540,search_v5,2021.1.2,Win32,60.09976561,,,space,0.634945,0,17,17,126,1,,,,,,,,,,,,,,,,,
,,,,,,,,,,,,,,,,p,1,4.788125,,,,,,,,line_hard_TP/17_1_2.0944_none_right_col_18_row_9.jpg,1,p,hard,line,5d9338fc2f873000165f8e95,30,female,2021-05-03_11h24.25.540,search_v5,2021.1.2,Win32,60.09976561,,,space,0.41944,0,18,18,85,1,,,,,,,,,,,,,,,,,
,,,,,,,,,,,,,,,,a,0,4.50019,,,,,,,,line_hard_TP/10_1_2.0944_none_left_col_10_row_11.jpg,1,p,hard,line,5d9338fc2f873000165f8e95,30,female,2021-05-03_11h24.25.540,search_v5,2021.1.2,Win32,60.09976561,,,space,0.11764,0,19,19,6,1,,,,,,,,,,,,,,,,,
,,,,,,,,,,,,,,,,p,0,2.26393,,,,,,,,line_hard_TA/6_1_NaN_none_absent.jpg,0,a,hard,line,5d9338fc2f873000165f8e95,30,female,2021-05-03_11h24.25.540,search_v5,2021.1.2,Win32,60.09976561,,,space,0.40866,0,20,20,80,1,,,,,,,,,,,,,,,,,
,,,,,,,,,,,,,,,,a,1,3.439695,,,,,,,,line_hard_TA/5_3_NaN_none_absent.jpg,0,a,hard,line,5d9338fc2f873000165f8e95,30,female,2021-05-03_11h24.25.540,search_v5,2021.1.2,Win32,60.09976561,,,space,0.41629,0,21,21,79,1,,,,,,,,,,,,,,,,,
,,,,,,,,,,,,,,,,p,1,0.709825,,,,,,,,line_easy_TP/10_2_0.5236_all_right_col_18_row_7.jpg,1,p,easy,line,5d9338fc2f873000165f8e95,30,female,2021-05-03_11h24.25.540,search_v5,2021.1.2,Win32,60.09976561,,,space,0.319055,0,22,22,2,1,,,,,,,,,,,,,,,,,
,,,,,,,,,,,,,,,,a,1,4.671235,,,,,,,,line_hard_TA/10_4_NaN_none_absent.jpg,0,a,hard,line,5d9338fc2f873000165f8e95,30,female,2021-05-03_11h24.25.540,search_v5,2021.1.2,Win32,60.09976561,,,space,0.46857,0,23,23,4,1,,,,,,,,,,,,,,,,,
,,,,,,,,,,,,,,,,a,1,3.46009,,,,,,,,line_easy_TA/10_3_NaN_all_absent.jpg,0,a,easy,line,5d9338fc2f873000165f8e95,30,female,2021-05-03_11h24.25.540,search_v5,2021.1.2,Win32,60.09976561,,,space,0.373605,0,24,24,0,1,,,,,,,,,,,,,,,,,
,,,,,,,,,,,,,,,,a,1,5.75463,,,,,,,,line_mid_TA/1_2_NaN_all_absent.jpg,0,a,mid,line,5d9338fc2f873000165f8e95,30,female,2021-05-03_11h24.25.540,search_v5,2021.1.2,Win32,60.09976561,,,space,0.48476,0,25,25,110,1,,,,,,,,,,,,,,,,,
,,,,,,,,,,,,,,,,a,1,3.642485,,,,,,,,line_easy_TA/3_4_NaN_all_absent.jpg,0,a,easy,line,5d9338fc2f873000165f8e95,30,female,2021-05-03_11h24.25.540,search_v5,2021.1.2,Win32,60.09976561,,,space,0.5151,0,26,26,27,1,,,,,,,,,,,,,,,,,
,,,,,,,,,,,,,,,,p,1,6.503525,,,,,,,,line_hard_TP/2_2_2.0944_none_right_col_19_row_11.jpg,1,p,hard,line,5d9338fc2f873000165f8e95,30,female,2021-05-03_11h24.25.540,search_v5,2021.1.2,Win32,60.09976561,,,space,0.531875,0,27,27,96,1,,,,,,,,,,,,,,,,,
,,,,,,,,,,,,,,,,a,1,5.43639,,,,,,,,line_easy_TA/5_2_NaN_all_absent.jpg,0,a,easy,line,5d9338fc2f873000165f8e95,30,female,2021-05-03_11h24.25.540,search_v5,2021.1.2,Win32,60.09976561,,,space,0.51661,0,28,28,30,1,,,,,,,,,,,,,,,,,
,,,,,,,,,,,,,,,,a,1,7.12478,,,,,,,,line_mid_TA/11_4_NaN_all_absent.jpg,0,a,mid,line,5d9338fc2f873000165f8e95,30,female,2021-05-03_11h24.25.540,search_v5,2021.1.2,Win32,60.09976561,,,space,0.7682,0,29,29,108,1,,,,,,,,,,,,,,,,,
,,,,,,,,,,,,,,,,a,1,3.482575,,,,,,,,line_easy_TA/23_4_NaN_all_absent.jpg,0,a,easy,line,5d9338fc2f873000165f8e95,30,female,2021-05-03_11h24.25.540,search_v5,2021.1.2,Win32,60.09976561,,,space,0.508485,0,30,30,22,1,,,,,,,,,,,,,,,,,
,,,,,,,,,,,,,,,,p,0,5.811095,,,,,,,,line_hard_TA/1_4_NaN_none_absent.jpg,0,a,hard,line,5d9338fc2f873000165f8e95,30,female,2021-05-03_11h24.25.540,search_v5,2021.1.2,Win32,60.09976561,,,space,0.399755,0,31,31,67,1,,,,,,,,,,,,,,,,,
,,,,,,,,,,,,,,,,a,1,4.827305,,,,,,,,line_hard_TA/22_4_NaN_none_absent.jpg,0,a,hard,line,5d9338fc2f873000165f8e95,30,female,2021-05-03_11h24.25.540,search_v5,2021.1.2,Win32,60.09976561,,,space,0.539745,0,32,32,72,1,,,,,,,,,,,,,,,,,
,,,,,,,,,,,,,,,,p,1,0.83084,,,,,,,,line_easy_TP/4_1_0.5236_all_left_col_6_row_4.jpg,1,p,easy,line,5d9338fc2f873000165f8e95,30,female,2021-05-03_11h24.25.540,search_v5,2021.1.2,Win32,60.09976561,,,space,0.324425,0,33,33,49,1,,,,,,,,,,,,,,,,,
,,,,,,,,,,,,,,,,p,1,0.851325,,,,,,,,line_easy_TP/19_1_0.5236_all_left_col_6_row_1.jpg,1,p,easy,line,5d9338fc2f873000165f8e95,30,female,2021-05-03_11h24.25.540,search_v5,2021.1.2,Win32,60.09976561,,,space,0.373215,0,34,34,41,1,,,,,,,,,,,,,,,,,
,,,,,,,,,,,,,,,,p,1,0.66537,,,,,,,,line_easy_TP/9_4_0.5236_all_right_col_16_row_3.jpg,1,p,easy,line,5d9338fc2f873000165f8e95,30,female,2021-05-03_11h24.25.540,search_v5,2021.1.2,Win32,60.09976561,,,space,0.3845,0,35,35,57,1,,,,,,,,,,,,,,,,,
,,,,,,,,,,,,,,,,a,1,4.712355,,,,,,,,line_easy_TA/7_3_NaN_all_absent.jpg,0,a,easy,line,5d9338fc2f873000165f8e95,30,female,2021-05-03_11h24.25.540,search_v5,2021.1.2,Win32,60.09976561,,,space,0.40565,0,36,36,33,1,,,,,,,,,,,,,,,,,
,,,,,,,,,,,,,,,,p,1,7.08319,,,,,,,,line_hard_TP/14_1_2.0944_none_right_col_15_row_6.jpg,1,p,hard,line,5d9338fc2f873000165f8e95,30,female,2021-05-03_11h24.25.540,search_v5,2021.1.2,Win32,60.09976561,,,space,0.43503,0,37,37,83,1,,,,,,,,,,,,,,,,,
,,,,,,,,,,,,,,,,p,1,0.66192,,,,,,,,line_easy_TP/1_1_0.5236_all_left_col_8_row_5.jpg,1,p,easy,line,5d9338fc2f873000165f8e95,30,female,2021-05-03_11h24.25.540,search_v5,2021.1.2,Win32,60.09976561,,,space,0.34778,0,38,38,44,1,,,,,,,,,,,,,,,,,
,,,,,,,,,,,,,,,,p,1,1.09119,,,,,,,,line_easy_TP/14_4_0.5236_all_left_col_10_row_13.jpg,1,p,easy,line,5d9338fc2f873000165f8e95,30,female,2021-05-03_11h24.25.540,search_v5,2021.1.2,Win32,60.09976561,,,space,0.35003,0,39,39,38,1,,,,,,,,,,,,,,,,,
,,,,,,,,,,,,,,,,a,1,3.58466,,,,,,,,line_easy_TA/16_2_NaN_all_absent.jpg,0,a,easy,line,5d9338fc2f873000165f8e95,30,female,2021-05-03_11h24.25.540,search_v5,2021.1.2,Win32,60.09976561,,,space,0.422835,0,40,40,15,1,,,,,,,,,,,,,,,,,
,,,,,,,,,,,,,,,,a,0,4.282855,,,,,,,,line_hard_TP/19_4_2.0944_none_right_col_16_row_3.jpg,1,p,hard,line,5d9338fc2f873000165f8e95,30,female,2021-05-03_11h24.25.540,search_v5,2021.1.2,Win32,60.09976561,,,space,1.151135,0,41,41,89,1,,,,,,,,,,,,,,,,,
,,,,,,,,,,,,,,,,p,1,1.20944,,,,,,,,line_mid_TP/2_4_1.1424_none_right_col_18_row_13.jpg,1,p,mid,line,5d9338fc2f873000165f8e95,30,female,2021-05-03_11h24.25.540,search_v5,2021.1.2,Win32,60.09976561,,,space,0.333155,0,42,42,133,1,,,,,,,,,,,,,,,,,
,,,,,,,,,,,,,,,,a,1,4.00713,,,,,,,,line_easy_TA/2_3_NaN_all_absent.jpg,0,a,easy,line,5d9338fc2f873000165f8e95,30,female,2021-05-03_11h24.25.540,search_v5,2021.1.2,Win32,60.09976561,,,space,0.800805,0,43,43,23,1,,,,,,,,,,,,,,,,,
,,,,,,,,,,,,,,,,p,0,5.68004,,,,,,,,line_hard_TA/3_2_NaN_none_absent.jpg,0,a,hard,line,5d9338fc2f873000165f8e95,30,female,2021-05-03_11h24.25.540,search_v5,2021.1.2,Win32,60.09976561,,,space,1.919115,0,44,44,76,1,,,,,,,,,,,,,,,,,
,,,,,,,,,,,,,,,,a,1,6.19253,,,,,,,,line_mid_TA/4_2_NaN_all_absent.jpg,0,a,mid,line,5d9338fc2f873000165f8e95,30,female,2021-05-03_11h24.25.540,search_v5,2021.1.2,Win32,60.09976561,,,space,0.45937,0,45,45,118,1,,,,,,,,,,,,,,,,,
,,,,,,,,,,,,,,,,a,0,5.097695,,,,,,,,line_hard_TP/12_4_2.0944_none_right_col_17_row_12.jpg,1,p,hard,line,5d9338fc2f873000165f8e95,30,female,2021-05-03_11h24.25.540,search_v5,2021.1.2,Win32,60.09976561,,,space,0.293435,0,46,46,82,1,,,,,,,,,,,,,,,,,
,,,,,,,,,,,,,,,,p,1,5.251915,,,,,,,,line_hard_TP/6_2_2.0944_none_left_col_10_row_2.jpg,1,p,hard,line,5d9338fc2f873000165f8e95,30,female,2021-05-03_11h24.25.540,search_v5,2021.1.2,Win32,60.09976561,,,space,1.33466,0,47,47,99,1,,,,,,,,,,,,,,,,,
,,,,,,,,,,,,,,,,p,1,1.03364,,,,,,,,line_easy_TP/6_3_0.5236_all_left_col_10_row_2.jpg,1,p,easy,line,5d9338fc2f873000165f8e95,30,female,2021-05-03_11h24.25.540,search_v5,2021.1.2,Win32,60.09976561,,,space,0.31766,0,48,48,51,1,,,,,,,,,,,,,,,,,
,,,,,,,,,,,,,,,,p,0,1.39964,,,,,,,,line_hard_TA/22_3_NaN_none_absent.jpg,0,a,hard,line,5d9338fc2f873000165f8e95,30,female,2021-05-03_11h24.25.540,search_v5,2021.1.2,Win32,60.09976561,,,space,0.70091,0,49,49,71,1,,,,,,,,,,,,,,,,,
,,,,,,,,,,,,,,,,p,1,3.255245,,,,,,,,line_mid_TP/1_4_1.1424_none_left_col_7_row_9.jpg,1,p,mid,line,5d9338fc2f873000165f8e95,30,female,2021-05-03_11h24.25.540,search_v5,2021.1.2,Win32,60.09976561,,,space,0.450045,0,50,50,129,1,,,,,,,,,,,,,,,,,
,,,,,,,,,,,,,,,,a,1,6.77771,,,,,,,,line_hard_TA/23_1_NaN_none_absent.jpg,0,a,hard,line,5d9338fc2f873000165f8e95,30,female,2021-05-03_11h24.25.540,search_v5,2021.1.2,Win32,60.09976561,,,space,0.40492,0,51,51,73,1,,,,,,,,,,,,,,,,,
,,,,,,,,,,,,,,,,a,1,4.61432,,,,,,,,line_easy_TA/5_4_NaN_all_absent.jpg,0,a,easy,line,5d9338fc2f873000165f8e95,30,female,2021-05-03_11h24.25.540,search_v5,2021.1.2,Win32,60.09976561,,,space,0.30345,0,52,52,31,1,,,,,,,,,,,,,,,,,
,,,,,,,,,,,,,,,,p,1,0.928225,,,,,,,,line_easy_TP/18_2_0.5236_all_right_col_15_row_1.jpg,1,p,easy,line,5d9338fc2f873000165f8e95,30,female,2021-05-03_11h24.25.540,search_v5,2021.1.2,Win32,60.09976561,,,space,0.235375,0,53,53,39,1,,,,,,,,,,,,,,,,,
,,,,,,,,,,,,,,,,p,0,3.200065,,,,,,,,line_hard_TA/20_1_NaN_none_absent.jpg,0,a,hard,line,5d9338fc2f873000165f8e95,30,female,2021-05-03_11h24.25.540,search_v5,2021.1.2,Win32,60.09976561,,,space,0.334705,0,54,54,68,1,,,,,,,,,,,,,,,,,
,,,,,,,,,,,,,,,,p,0,1.87014,,,,,,,,line_hard_TA/1_3_NaN_none_absent.jpg,0,a,hard,line,5d9338fc2f873000165f8e95,30,female,2021-05-03_11h24.25.540,search_v5,2021.1.2,Win32,60.09976561,,,space,1.00423,0,55,55,66,1,,,,,,,,,,,,,,,,,
,,,,,,,,,,,,,,,,a,0,5.14611,,,,,,,,line_mid_TP/4_3_1.7453_all_left_col_9_row_4.jpg,1,p,mid,line,5d9338fc2f873000165f8e95,30,female,2021-05-03_11h24.25.540,search_v5,2021.1.2,Win32,60.09976561,,,space,0.23987,0,56,56,136,1,,,,,,,,,,,,,,,,,
,,,,,,,,,,,,,,,,a,1,3.7807,,,,,,,,line_easy_TA/12_3_NaN_all_absent.jpg,0,a,easy,line,5d9338fc2f873000165f8e95,30,female,2021-05-03_11h24.25.540,search_v5,2021.1.2,Win32,60.09976561,,,space,0.488645,0,57,57,12,1,,,,,,,,,,,,,,,,,
,,,,,,,,,,,,,,,,p,1,0.98731,,,,,,,,line_easy_TP/5_1_0.5236_all_left_col_5_row_3.jpg,1,p,easy,line,5d9338fc2f873000165f8e95,30,female,2021-05-03_11h24.25.540,search_v5,2021.1.2,Win32,60.09976561,,,space,0.258885,0,58,58,50,1,,,,,,,,,,,,,,,,,
,,,,,,,,,,,,,,,,a,1,6.65375,,,,,,,,line_mid_TA/2_2_NaN_none_absent.jpg,0,a,mid,line,5d9338fc2f873000165f8e95,30,female,2021-05-03_11h24.25.540,search_v5,2021.1.2,Win32,60.09976561,,,space,0.400645,0,59,59,112,1,,,,,,,,,,,,,,,,,
,,,,,,,,,,,,,,,,a,1,3.615665,,,,,,,,line_easy_TA/4_3_NaN_all_absent.jpg,0,a,easy,line,5d9338fc2f873000165f8e95,30,female,2021-05-03_11h24.25.540,search_v5,2021.1.2,Win32,60.09976561,,,space,1.17412,0,60,60,28,1,,,,,,,,,,,,,,,,,
,,,,,,,,,,,,,,,,p,1,4.886355,,,,,,,,line_hard_TP/24_2_2.0944_none_left_col_9_row_8.jpg,1,p,hard,line,5d9338fc2f873000165f8e95,30,female,2021-05-03_11h24.25.540,search_v5,2021.1.2,Win32,60.09976561,,,space,0.334085,0,61,61,94,1,,,,,,,,,,,,,,,,,
,,,,,,,,,,,,,,,,p,1,3.387195,,,,,,,,line_mid_TP/6_4_1.7453_all_left_col_6_row_5.jpg,1,p,mid,line,5d9338fc2f873000165f8e95,30,female,2021-05-03_11h24.25.540,search_v5,2021.1.2,Win32,60.09976561,,,space,0.285625,0,62,62,144,1,,,,,,,,,,,,,,,,,
,,,,,,,,,,,,,,,,p,1,1.295835,,,,,,,,line_mid_TP/4_1_1.7453_all_left_col_4_row_6.jpg,1,p,mid,line,5d9338fc2f873000165f8e95,30,female,2021-05-03_11h24.25.540,search_v5,2021.1.2,Win32,60.09976561,,,space,0.33465,0,63,63,135,1,,,,,,,,,,,,,,,,,
,,,,,,,,,,,,,,,,a,1,6.26626,,,,,,,,line_mid_TA/3_3_NaN_all_absent.jpg,0,a,mid,line,5d9338fc2f873000165f8e95,30,female,2021-05-03_11h24.25.540,search_v5,2021.1.2,Win32,60.09976561,,,space,0.367675,0,64,64,115,1,,,,,,,,,,,,,,,,,
,,,,,,,,,,,,,,,,a,1,8.61394,,,,,,,,line_hard_TA/16_4_NaN_none_absent.jpg,0,a,hard,line,5d9338fc2f873000165f8e95,30,female,2021-05-03_11h24.25.540,search_v5,2021.1.2,Win32,60.09976561,,,space,0.72041,0,65,65,64,1,,,,,,,,,,,,,,,,,
,,,,,,,,,,,,,,,,p,1,0.92318,,,,,,,,line_easy_TP/7_4_0.5236_all_left_col_6_row_11.jpg,1,p,easy,line,5d9338fc2f873000165f8e95,30,female,2021-05-03_11h24.25.540,search_v5,2021.1.2,Win32,60.09976561,,,space,0.319375,0,66,66,54,1,,,,,,,,,,,,,,,,,
,,,,,,,,,,,,,,,,p,1,0.874175,,,,,,,,line_mid_TP/5_0_1.1424_none_left_col_7_row_16.jpg,1,p,mid,line,5d9338fc2f873000165f8e95,30,female,2021-05-03_11h24.25.540,search_v5,2021.1.2,Win32,60.09976561,,,space,0.3222,0,67,67,138,1,,,,,,,,,,,,,,,,,
,,,,,,,,,,,,,,,,a,0,8.03336,,,,,,,,line_hard_TP/14_3_2.0944_none_right_col_19_row_11.jpg,1,p,hard,line,5d9338fc2f873000165f8e95,30,female,2021-05-03_11h24.25.540,search_v5,2021.1.2,Win32,60.09976561,,,space,2.997485,0,68,68,84,1,,,,,,,,,,,,,,,,,
,,,,,,,,,,,,,,,,p,1,1.09349,,,,,,,,line_easy_TP/11_2_0.5236_all_right_col_14_row_9.jpg,1,p,easy,line,5d9338fc2f873000165f8e95,30,female,2021-05-03_11h24.25.540,search_v5,2021.1.2,Win32,60.09976561,,,space,0.283455,0,69,69,3,1,,,,,,,,,,,,,,,,,
,,,,,,,,,,,,,,,,a,0,5.23223,,,,,,,,line_mid_TP/7_2_1.7453_all_right_col_16_row_5.jpg,1,p,mid,line,5d9338fc2f873000165f8e95,30,female,2021-05-03_11h24.25.540,search_v5,2021.1.2,Win32,60.09976561,,,space,0.366085,0,70,70,145,1,,,,,,,,,,,,,,,,,
,,,,,,,,,,,,,,,,p,1,3.847915,,,,,,,,line_hard_TP/20_4_2.0944_none_left_col_9_row_16.jpg,1,p,hard,line,5d9338fc2f873000165f8e95,30,female,2021-05-03_11h24.25.540,search_v5,2021.1.2,Win32,60.09976561,,,space,2.050805,0,71,71,91,1,,,,,,,,,,,,,,,,,
,,,,,,,,,,,,,,,,a,1,5.278405,,,,,,,,line_mid_TA/6_1_NaN_none_absent.jpg,0,a,mid,line,5d9338fc2f873000165f8e95,30,female,2021-05-03_11h24.25.540,search_v5,2021.1.2,Win32,60.09976561,,,space,0.482155,0,72,72,121,1,,,,,,,,,,,,,,,,,
,,,,,,,,,,,,,,,,a,1,3.30054,,,,,,,,line_easy_TA/4_4_NaN_all_absent.jpg,0,a,easy,line,5d9338fc2f873000165f8e95,30,female,2021-05-03_11h24.25.540,search_v5,2021.1.2,Win32,60.09976561,,,space,0.469665,0,73,73,29,1,,,,,,,,,,,,,,,,,
,,,,,,,,,,,,,,,,p,0,5.316835,,,,,,,,line_hard_TA/20_2_NaN_none_absent.jpg,0,a,hard,line,5d9338fc2f873000165f8e95,30,female,2021-05-03_11h24.25.540,search_v5,2021.1.2,Win32,60.09976561,,,space,0.138095,0,74,74,69,1,,,,,,,,,,,,,,,,,
,,,,,,,,,,,,,,,,p,0,7.364105,,,,,,,,line_hard_TA/15_4_NaN_none_absent.jpg,0,a,hard,line,5d9338fc2f873000165f8e95,30,female,2021-05-03_11h24.25.540,search_v5,2021.1.2,Win32,60.09976561,,,space,0.42243,0,75,75,63,1,,,,,,,,,,,,,,,,,
,,,,,,,,,,,,,,,,a,1,7.19489,,,,,,,,line_mid_TA/10_2_NaN_none_absent.jpg,0,a,mid,line,5d9338fc2f873000165f8e95,30,female,2021-05-03_11h24.25.540,search_v5,2021.1.2,Win32,60.09976561,,,space,1.434865,0,76,76,9,1,,,,,,,,,,,,,,,,,
,,,,,,,,,,,,,,,,p,1,3.18126,,,,,,,,line_mid_TP/2_0_1.7453_all_left_col_8_row_12.jpg,1,p,mid,line,5d9338fc2f873000165f8e95,30,female,2021-05-03_11h24.25.540,search_v5,2021.1.2,Win32,60.09976561,,,space,0.32595,0,77,77,130,1,,,,,,,,,,,,,,,,,
,,,,,,,,,,,,,,,,a,1,3.963985,,,,,,,,line_easy_TA/16_1_NaN_all_absent.jpg,0,a,easy,line,5d9338fc2f873000165f8e95,30,female,2021-05-03_11h24.25.540,search_v5,2021.1.2,Win32,60.09976561,,,space,0.466375,0,78,78,14,1,,,,,,,,,,,,,,,,,
,,,,,,,,,,,,,,,,a,1,7.620015,,,,,,,,line_mid_TA/3_0_NaN_all_absent.jpg,0,a,mid,line,5d9338fc2f873000165f8e95,30,female,2021-05-03_11h24.25.540,search_v5,2021.1.2,Win32,60.09976561,,,space,0.48551,0,79,79,113,1,,,,,,,,,,,,,,,,,
,,,,,,,,,,,,,,,,a,1,2.967295,,,,,,,,line_easy_TA/2_4_NaN_all_absent.jpg,0,a,easy,line,5d9338fc2f873000165f8e95,30,female,2021-05-03_11h24.25.540,search_v5,2021.1.2,Win32,60.09976561,,,space,0.417675,0,80,80,24,1,,,,,,,,,,,,,,,,,
,,,,,,,,,,,,,,,,a,1,8.518005,,,,,,,,line_hard_TA/13_2_NaN_none_absent.jpg,0,a,hard,line,5d9338fc2f873000165f8e95,30,female,2021-05-03_11h24.25.540,search_v5,2021.1.2,Win32,60.09976561,,,space,0.50704,0,81,81,59,1,,,,,,,,,,,,,,,,,
,,,,,,,,,,,,,,,,p,1,1.1875,,,,,,,,line_mid_TP/6_2_1.1424_none_left_col_2_row_6.jpg,1,p,mid,line,5d9338fc2f873000165f8e95,30,female,2021-05-03_11h24.25.540,search_v5,2021.1.2,Win32,60.09976561,,,space,0.334325,0,82,82,142,1,,,,,,,,,,,,,,,,,
,,,,,,,,,,,,,,,,a,1,6.97321,,,,,,,,line_mid_TA/11_2_NaN_all_absent.jpg,0,a,mid,line,5d9338fc2f873000165f8e95,30,female,2021-05-03_11h24.25.540,search_v5,2021.1.2,Win32,60.09976561,,,space,0.46824,0,83,83,106,1,,,,,,,,,,,,,,,,,
,,,,,,,,,,,,,,,,p,1,0.893775,,,,,,,,line_easy_TP/8_1_0.5236_all_right_col_14_row_4.jpg,1,p,easy,line,5d9338fc2f873000165f8e95,30,female,2021-05-03_11h24.25.540,search_v5,2021.1.2,Win32,60.09976561,,,space,0.3171,0,84,84,55,1,,,,,,,,,,,,,,,,,
,,,,,,,,,,,,,,,,a,1,4.799415,,,,,,,,line_easy_TA/11_1_NaN_all_absent.jpg,0,a,easy,line,5d9338fc2f873000165f8e95,30,female,2021-05-03_11h24.25.540,search_v5,2021.1.2,Win32,60.09976561,,,space,0.4344,0,85,85,1,1,,,,,,,,,,,,,,,,,
,,,,,,,,,,,,,,,,p,0,9.13032,,,,,,,,line_hard_TA/23_2_NaN_none_absent.jpg,0,a,hard,line,5d9338fc2f873000165f8e95,30,female,2021-05-03_11h24.25.540,search_v5,2021.1.2,Win32,60.09976561,,,space,2.284825,0,86,86,74,1,,,,,,,,,,,,,,,,,
,,,,,,,,,,,,,,,,p,1,1.047265,,,,,,,,line_mid_TP/6_0_1.1424_none_left_col_8_row_9.jpg,1,p,mid,line,5d9338fc2f873000165f8e95,30,female,2021-05-03_11h24.25.540,search_v5,2021.1.2,Win32,60.09976561,,,space,0.22981,0,87,87,141,1,,,,,,,,,,,,,,,,,
,,,,,,,,,,,,,,,,p,1,2.74375,,,,,,,,line_mid_TP/9_1_1.7453_all_left_col_4_row_15.jpg,1,p,mid,line,5d9338fc2f873000165f8e95,30,female,2021-05-03_11h24.25.540,search_v5,2021.1.2,Win32,60.09976561,,,space,0.385055,0,88,88,149,1,,,,,,,,,,,,,,,,,
,,,,,,,,,,,,,,,,a,0,6.202205,,,,,,,,line_hard_TP/6_0_2.0944_none_right_col_18_row_7.jpg,1,p,hard,line,5d9338fc2f873000165f8e95,30,female,2021-05-03_11h24.25.540,search_v5,2021.1.2,Win32,60.09976561,,,space,0.27167,0,89,89,98,1,,,,,,,,,,,,,,,,,
,,,,,,,,,,,,,,,,a,1,6.823975,,,,,,,,line_mid_TA/11_1_NaN_none_absent.jpg,0,a,mid,line,5d9338fc2f873000165f8e95,30,female,2021-05-03_11h24.25.540,search_v5,2021.1.2,Win32,60.09976561,,,space,0.431795,0,90,90,105,1,,,,,,,,,,,,,,,,,
,,,,,,,,,,,,,,,,p,1,4.446375,,,,,,,,line_hard_TP/24_1_2.0944_none_right_col_16_row_6.jpg,1,p,hard,line,5d9338fc2f873000165f8e95,30,female,2021-05-03_11h24.25.540,search_v5,2021.1.2,Win32,60.09976561,,,space,0.38468,0,91,91,93,1,,,,,,,,,,,,,,,,,
,,,,,,,,,,,,,,,,a,1,3.417895,,,,,,,,line_easy_TA/3_1_NaN_all_absent.jpg,0,a,easy,line,5d9338fc2f873000165f8e95,30,female,2021-05-03_11h24.25.540,search_v5,2021.1.2,Win32,60.09976561,,,space,0.407575,0,92,92,26,1,,,,,,,,,,,,,,,,,
,,,,,,,,,,,,,,,,a,1,4.665815,,,,,,,,line_easy_TA/15_2_NaN_all_absent.jpg,0,a,easy,line,5d9338fc2f873000165f8e95,30,female,2021-05-03_11h24.25.540,search_v5,2021.1.2,Win32,60.09976561,,,space,0.521065,0,93,93,13,1,,,,,,,,,,,,,,,,,
,,,,,,,,,,,,,,,,p,1,0.67821,,,,,,,,line_easy_TP/8_4_0.5236_all_left_col_2_row_6.jpg,1,p,easy,line,5d9338fc2f873000165f8e95,30,female,2021-05-03_11h24.25.540,search_v5,2021.1.2,Win32,60.09976561,,,space,0.266875,0,94,94,56,1,,,,,,,,,,,,,,,,,
,,,,,,,,,,,,,,,,p,1,1.55092,,,,,,,,line_mid_TP/7_3_1.7453_all_right_col_15_row_2.jpg,1,p,mid,line,5d9338fc2f873000165f8e95,30,female,2021-05-03_11h24.25.540,search_v5,2021.1.2,Win32,60.09976561,,,space,0.308025,0,95,95,146,1,,,,,,,,,,,,,,,,,
,,,,,,,,,,,,,,,,a,1,5.531995,,,,,,,,line_mid_TA/8_3_NaN_all_absent.jpg,0,a,mid,line,5d9338fc2f873000165f8e95,30,female,2021-05-03_11h24.25.540,search_v5,2021.1.2,Win32,60.09976561,,,space,0.43571,0,96,96,124,1,,,,,,,,,,,,,,,,,
,,,,,,,,,,,,,,,,p,1,0.660815,,,,,,,,line_easy_TP/13_3_0.5236_all_left_col_4_row_12.jpg,1,p,easy,line,5d9338fc2f873000165f8e95,30,female,2021-05-03_11h24.25.540,search_v5,2021.1.2,Win32,60.09976561,,,space,0.290025,0,97,97,36,1,,,,,,,,,,,,,,,,,
,,,,,,,,,,,,,,,,a,1,6.917985,,,,,,,,line_hard_TA/11_3_NaN_none_absent.jpg,0,a,hard,line,5d9338fc2f873000165f8e95,30,female,2021-05-03_11h24.25.540,search_v5,2021.1.2,Win32,60.09976561,,,space,0.367645,0,98,98,5,1,,,,,,,,,,,,,,,,,
,,,,,,,,,,,,,,,,p,0,6.216335,,,,,,,,line_hard_TA/22_1_NaN_none_absent.jpg,0,a,hard,line,5d9338fc2f873000165f8e95,30,female,2021-05-03_11h24.25.540,search_v5,2021.1.2,Win32,60.09976561,,,space,0.78474,0,99,99,70,1,,,,,,,,,,,,,,,,,
,,,,,,,,,,,,,,,,a,1,3.18602,,,,,,,,line_easy_TA/3_0_NaN_all_absent.jpg,0,a,easy,line,5d9338fc2f873000165f8e95,30,female,2021-05-03_11h24.25.540,search_v5,2021.1.2,Win32,60.09976561,,,space,1.45512,0,100,100,25,1,,,,,,,,,,,,,,,,,
,,,,,,,,,,,,,,,,p,1,0.744615,,,,,,,,line_mid_TP/5_2_1.1424_none_right_col_17_row_9.jpg,1,p,mid,line,5d9338fc2f873000165f8e95,30,female,2021-05-03_11h24.25.540,search_v5,2021.1.2,Win32,60.09976561,,,space,0.3174,0,101,101,140,1,,,,,,,,,,,,,,,,,
,,,,,,,,,,,,,,,,a,1,9.52505,,,,,,,,line_hard_TA/4_2_NaN_none_absent.jpg,0,a,hard,line,5d9338fc2f873000165f8e95,30,female,2021-05-03_11h24.25.540,search_v5,2021.1.2,Win32,60.09976561,,,space,0.467675,0,102,102,78,1,,,,,,,,,,,,,,,,,
,,,,,,,,,,,,,,,,p,1,0.77858,,,,,,,,line_easy_TP/22_2_0.5236_all_left_col_10_row_14.jpg,1,p,easy,line,5d9338fc2f873000165f8e95,30,female,2021-05-03_11h24.25.540,search_v5,2021.1.2,Win32,60.09976561,,,space,0.286455,0,103,103,46,1,,,,,,,,,,,,,,,,,
,,,,,,,,,,,,,,,,a,1,9.05413,,,,,,,,line_mid_TA/3_4_NaN_none_absent.jpg,0,a,mid,line,5d9338fc2f873000165f8e95,30,female,2021-05-03_11h24.25.540,search_v5,2021.1.2,Win32,60.09976561,,,space,0.408915,0,104,104,116,1,,,,,,,,,,,,,,,,,
,,,,,,,,,,,,,,,,a,1,6.829115,,,,,,,,line_mid_TA/12_1_NaN_all_absent.jpg,0,a,mid,line,5d9338fc2f873000165f8e95,30,female,2021-05-03_11h24.25.540,search_v5,2021.1.2,Win32,60.09976561,,,space,0.50675,0,105,105,109,1,,,,,,,,,,,,,,,,,
,,,,,,,,,,,,,,,,p,1,0.64466,,,,,,,,line_easy_TP/13_4_0.5236_all_right_col_13_row_13.jpg,1,p,easy,line,5d9338fc2f873000165f8e95,30,female,2021-05-03_11h24.25.540,search_v5,2021.1.2,Win32,60.09976561,,,space,0.272015,0,106,106,37,1,,,,,,,,,,,,,,,,,
,,,,,,,,,,,,,,,,p,1,2.166655,,,,,,,,line_mid_TP/2_3_1.1424_none_right_col_21_row_15.jpg,1,p,mid,line,5d9338fc2f873000165f8e95,30,female,2021-05-03_11h24.25.540,search_v5,2021.1.2,Win32,60.09976561,,,space,0.33845,0,107,107,132,1,,,,,,,,,,,,,,,,,
,,,,,,,,,,,,,,,,a,1,2.301355,,,,,,,,line_easy_TA/17_2_NaN_all_absent.jpg,0,a,easy,line,5d9338fc2f873000165f8e95,30,female,2021-05-03_11h24.25.540,search_v5,2021.1.2,Win32,60.09976561,,,space,0.350985,0,108,108,17,1,,,,,,,,,,,,,,,,,
,,,,,,,,,,,,,,,,p,1,0.59313,,,,,,,,line_mid_TP/9_2_1.1424_none_right_col_20_row_1.jpg,1,p,mid,line,5d9338fc2f873000165f8e95,30,female,2021-05-03_11h24.25.540,search_v5,2021.1.2,Win32,60.09976561,,,space,0.25451,0,109,109,10,1,,,,,,,,,,,,,,,,,
,,,,,,,,,,,,,,,,p,1,0.904525,,,,,,,,line_mid_TP/5_1_1.1424_none_right_col_20_row_16.jpg,1,p,mid,line,5d9338fc2f873000165f8e95,30,female,2021-05-03_11h24.25.540,search_v5,2021.1.2,Win32,60.09976561,,,space,0.300975,0,110,110,139,1,,,,,,,,,,,,,,,,,
,,,,,,,,,,,,,,,,p,1,0.599235,,,,,,,,line_easy_TP/19_3_0.5236_all_right_col_17_row_3.jpg,1,p,easy,line,5d9338fc2f873000165f8e95,30,female,2021-05-03_11h24.25.540,search_v5,2021.1.2,Win32,60.09976561,,,space,0.19396,0,111,111,42,1,,,,,,,,,,,,,,,,,
,,,,,,,,,,,,,,,,p,1,0.66085,,,,,,,,line_easy_TP/21_2_0.5236_all_right_col_16_row_1.jpg,1,p,easy,line,5d9338fc2f873000165f8e95,30,female,2021-05-03_11h24.25.540,search_v5,2021.1.2,Win32,60.09976561,,,space,0.38847,0,112,112,45,1,,,,,,,,,,,,,,,,,
,,,,,,,,,,,,,,,,a,1,2.500285,,,,,,,,line_easy_TA/7_1_NaN_all_absent.jpg,0,a,easy,line,5d9338fc2f873000165f8e95,30,female,2021-05-03_11h24.25.540,search_v5,2021.1.2,Win32,60.09976561,,,space,0.68466,0,113,113,32,1,,,,,,,,,,,,,,,,,
,,,,,,,,,,,,,,,,a,1,5.635155,,,,,,,,line_mid_TA/3_2_NaN_none_absent.jpg,0,a,mid,line,5d9338fc2f873000165f8e95,30,female,2021-05-03_11h24.25.540,search_v5,2021.1.2,Win32,60.09976561,,,space,0.33888,0,114,114,114,1,,,,,,,,,,,,,,,,,
,,,,,,,,,,,,,,,,a,1,5.56679,,,,,,,,line_mid_TA/1_3_NaN_all_absent.jpg,0,a,mid,line,5d9338fc2f873000165f8e95,30,female,2021-05-03_11h24.25.540,search_v5,2021.1.2,Win32,60.09976561,,,space,0.32331,0,115,115,111,1,,,,,,,,,,,,,,,,,
,,,,,,,,,,,,,,,,a,0,4.337105,,,,,,,,line_hard_TP/21_3_2.0944_none_right_col_15_row_13.jpg,1,p,hard,line,5d9338fc2f873000165f8e95,30,female,2021-05-03_11h24.25.540,search_v5,2021.1.2,Win32,60.09976561,,,space,0.018405,0,116,116,92,1,,,,,,,,,,,,,,,,,
,,,,,,,,,,,,,,,,a,1,2.612515,,,,,,,,line_easy_TA/21_1_NaN_all_absent.jpg,0,a,easy,line,5d9338fc2f873000165f8e95,30,female,2021-05-03_11h24.25.540,search_v5,2021.1.2,Win32,60.09976561,,,space,0.399855,0,117,117,20,1,,,,,,,,,,,,,,,,,
,,,,,,,,,,,,,,,,a,1,4.00999,,,,,,,,line_mid_TA/5_4_NaN_none_absent.jpg,0,a,mid,line,5d9338fc2f873000165f8e95,30,female,2021-05-03_11h24.25.540,search_v5,2021.1.2,Win32,60.09976561,,,space,0.484755,0,118,118,120,1,,,,,,,,,,,,,,,,,
,,,,,,,,,,,,,,,,p,1,4.05049,,,,,,,,line_hard_TP/11_4_2.0944_none_right_col_18_row_11.jpg,1,p,hard,line,5d9338fc2f873000165f8e95,30,female,2021-05-03_11h24.25.540,search_v5,2021.1.2,Win32,60.09976561,,,space,0.26735,0,119,119,7,1,,,,,,,,,,,,,,,,,
,,,,,,,,,,,,,,,,a,1,7.830495,,,,,,,,line_mid_TA/8_4_NaN_all_absent.jpg,0,a,mid,line,5d9338fc2f873000165f8e95,30,female,2021-05-03_11h24.25.540,search_v5,2021.1.2,Win32,60.09976561,,,space,0.557935,0,120,120,125,1,,,,,,,,,,,,,,,,,
,,,,,,,,,,,,,,,,p,0,1.10045,,,,,,,,line_hard_TA/15_1_NaN_none_absent.jpg,0,a,hard,line,5d9338fc2f873000165f8e95,30,female,2021-05-03_11h24.25.540,search_v5,2021.1.2,Win32,60.09976561,,,space,0.634765,0,121,121,61,1,,,,,,,,,,,,,,,,,
,,,,,,,,,,,,,,,,p,1,1.325245,,,,,,,,line_mid_TP/1_1_1.1424_none_right_col_21_row_2.jpg,1,p,mid,line,5d9338fc2f873000165f8e95,30,female,2021-05-03_11h24.25.540,search_v5,2021.1.2,Win32,60.09976561,,,space,0.17974,0,122,122,128,1,,,,,,,,,,,,,,,,,
,,,,,,,,,,,,,,,,p,1,0.88294,,,,,,,,line_mid_TP/9_3_1.1424_none_left_col_10_row_8.jpg,1,p,mid,line,5d9338fc2f873000165f8e95,30,female,2021-05-03_11h24.25.540,search_v5,2021.1.2,Win32,60.09976561,,,space,0.157965,0,123,123,11,1,,,,,,,,,,,,,,,,,
,,,,,,,,,,,,,,,,a,1,3.283765,,,,,,,,line_easy_TA/19_2_NaN_all_absent.jpg,0,a,easy,line,5d9338fc2f873000165f8e95,30,female,2021-05-03_11h24.25.540,search_v5,2021.1.2,Win32,60.09976561,,,space,0.292875,0,124,124,18,1,,,,,,,,,,,,,,,,,
,,,,,,,,,,,,,,,,p,1,0.532915,,,,,,,,line_easy_TP/18_3_0.5236_all_right_col_20_row_10.jpg,1,p,easy,line,5d9338fc2f873000165f8e95,30,female,2021-05-03_11h24.25.540,search_v5,2021.1.2,Win32,60.09976561,,,space,0.192505,0,125,125,40,1,,,,,,,,,,,,,,,,,
,,,,,,,,,,,,,,,,a,0,2.51254,,,,,,,,line_hard_TP/18_4_2.0944_none_left_col_4_row_9.jpg,1,p,hard,line,5d9338fc2f873000165f8e95,30,female,2021-05-03_11h24.25.540,search_v5,2021.1.2,Win32,60.09976561,,,space,0.195215,0,126,126,88,1,,,,,,,,,,,,,,,,,
,,,,,,,,,,,,,,,,p,1,0.89524,,,,,,,,line_easy_TP/3_3_0.5236_all_right_col_15_row_10.jpg,1,p,easy,line,5d9338fc2f873000165f8e95,30,female,2021-05-03_11h24.25.540,search_v5,2021.1.2,Win32,60.09976561,,,space,0.17832,0,127,127,48,1,,,,,,,,,,,,,,,,,
,,,,,,,,,,,,,,,,a,0,3.335015,,,,,,,,line_hard_TP/9_3_2.0944_none_right_col_16_row_16.jpg,1,p,hard,line,5d9338fc2f873000165f8e95,30,female,2021-05-03_11h24.25.540,search_v5,2021.1.2,Win32,60.09976561,,,space,0.952105,0,128,128,103,1,,,,,,,,,,,,,,,,,
,,,,,,,,,,,,,,,,a,1,2.381895,,,,,,,,line_mid_TA/4_0_NaN_none_absent.jpg,0,a,mid,line,5d9338fc2f873000165f8e95,30,female,2021-05-03_11h24.25.540,search_v5,2021.1.2,Win32,60.09976561,,,space,0.64916,0,129,129,117,1,,,,,,,,,,,,,,,,,
,,,,,,,,,,,,,,,,p,1,1.094205,,,,,,,,line_mid_TP/7_4_1.7453_all_right_col_17_row_6.jpg,1,p,mid,line,5d9338fc2f873000165f8e95,30,female,2021-05-03_11h24.25.540,search_v5,2021.1.2,Win32,60.09976561,,,space,0.18396,0,130,130,147,1,,,,,,,,,,,,,,,,,
,,,,,,,,,,,,,,,,p,0,2.211325,,,,,,,,line_hard_TA/14_2_NaN_none_absent.jpg,0,a,hard,line,5d9338fc2f873000165f8e95,30,female,2021-05-03_11h24.25.540,search_v5,2021.1.2,Win32,60.09976561,,,space,0.851205,0,131,131,60,1,,,,,,,,,,,,,,,,,
,,,,,,,,,,,,,,,,p,1,1.27465,,,,,,,,line_mid_TP/6_3_1.7453_all_right_col_13_row_7.jpg,1,p,mid,line,5d9338fc2f873000165f8e95,30,female,2021-05-03_11h24.25.540,search_v5,2021.1.2,Win32,60.09976561,,,space,0.16572,0,132,132,143,1,,,,,,,,,,,,,,,,,
,,,,,,,,,,,,,,,,a,1,2.02458,,,,,,,,line_hard_TA/17_4_NaN_none_absent.jpg,0,a,hard,line,5d9338fc2f873000165f8e95,30,female,2021-05-03_11h24.25.540,search_v5,2021.1.2,Win32,60.09976561,,,space,0.33699,0,133,133,65,1,,,,,,,,,,,,,,,,,
,,,,,,,,,,,,,,,,p,1,0.814255,,,,,,,,line_mid_TP/8_1_1.1424_none_left_col_6_row_14.jpg,1,p,mid,line,5d9338fc2f873000165f8e95,30,female,2021-05-03_11h24.25.540,search_v5,2021.1.2,Win32,60.09976561,,,space,0.20091,0,134,134,148,1,,,,,,,,,,,,,,,,,
,,,,,,,,,,,,,,,,p,1,1.152475,,,,,,,,line_hard_TP/8_2_2.0944_none_left_col_4_row_12.jpg,1,p,hard,line,5d9338fc2f873000165f8e95,30,female,2021-05-03_11h24.25.540,search_v5,2021.1.2,Win32,60.09976561,,,space,0.17452,0,135,135,100,1,,,,,,,,,,,,,,,,,
,,,,,,,,,,,,,,,,p,1,0.94711,,,,,,,,line_hard_TP/20_3_2.0944_none_left_col_7_row_13.jpg,1,p,hard,line,5d9338fc2f873000165f8e95,30,female,2021-05-03_11h24.25.540,search_v5,2021.1.2,Win32,60.09976561,,,space,0.17084,0,136,136,90,1,,,,,,,,,,,,,,,,,
,,,,,,,,,,,,,,,,a,1,3.707005,,,,,,,,line_mid_TA/5_3_NaN_none_absent.jpg,0,a,mid,line,5d9338fc2f873000165f8e95,30,female,2021-05-03_11h24.25.540,search_v5,2021.1.2,Win32,60.09976561,,,space,0.267965,0,137,137,119,1,,,,,,,,,,,,,,,,,
,,,,,,,,,,,,,,,,p,1,1.010565,,,,,,,,line_hard_TP/12_2_2.0944_none_right_col_13_row_8.jpg,1,p,hard,line,5d9338fc2f873000165f8e95,30,female,2021-05-03_11h24.25.540,search_v5,2021.1.2,Win32,60.09976561,,,space,0.183575,0,138,138,81,1,,,,,,,,,,,,,,,,,
,,,,,,,,,,,,,,,,a,1,6.169985,,,,,,,,line_hard_TA/15_3_NaN_none_absent.jpg,0,a,hard,line,5d9338fc2f873000165f8e95,30,female,2021-05-03_11h24.25.540,search_v5,2021.1.2,Win32,60.09976561,,,space,0.343195,0,139,139,62,1,,,,,,,,,,,,,,,,,
,,,,,,,,,,,,,,,,a,1,4.946415,,,,,,,,line_mid_TA/10_1_NaN_none_absent.jpg,0,a,mid,line,5d9338fc2f873000165f8e95,30,female,2021-05-03_11h24.25.540,search_v5,2021.1.2,Win32,60.09976561,,,space,0.669955,0,140,140,8,1,,,,,,,,,,,,,,,,,
,,,,,,,,,,,,,,,,p,1,0.50708,,,,,,,,line_easy_TP/6_4_0.5236_all_right_col_18_row_7.jpg,1,p,easy,line,5d9338fc2f873000165f8e95,30,female,2021-05-03_11h24.25.540,search_v5,2021.1.2,Win32,60.09976561,,,space,0.201605,0,141,141,52,1,,,,,,,,,,,,,,,,,
,,,,,,,,,,,,,,,,a,0,10.21257,,,,,,,,line_hard_TP/17_3_2.0944_none_right_col_17_row_12.jpg,1,p,hard,line,5d9338fc2f873000165f8e95,30,female,2021-05-03_11h24.25.540,search_v5,2021.1.2,Win32,60.09976561,,,space,0.2651,0,142,142,86,1,,,,,,,,,,,,,,,,,
,,,,,,,,,,,,,,,,p,0,1.384135,,,,,,,,line_hard_TA/24_3_NaN_none_absent.jpg,0,a,hard,line,5d9338fc2f873000165f8e95,30,female,2021-05-03_11h24.25.540,search_v5,2021.1.2,Win32,60.09976561,,,space,0.20554,0,143,143,75,1,,,,,,,,,,,,,,,,,
,,,,,,,,,,,,,,,,a,0,4.229645,,,,,,,,line_hard_TP/8_3_2.0944_none_left_col_8_row_2.jpg,1,p,hard,line,5d9338fc2f873000165f8e95,30,female,2021-05-03_11h24.25.540,search_v5,2021.1.2,Win32,60.09976561,,,space,0.18462,0,144,144,101,1,,,,,,,,,,,,,,,,,
,,,,,,,,,,,,,,,,p,1,3.13343,,,,,,,,line_hard_TP/2_1_2.0944_none_right_col_16_row_14.jpg,1,p,hard,line,5d9338fc2f873000165f8e95,30,female,2021-05-03_11h24.25.540,search_v5,2021.1.2,Win32,60.09976561,,,space,0.340635,0,145,145,95,1,,,,,,,,,,,,,,,,,
,,,,,,,,,,,,,,,,a,1,1.978735,,,,,,,,line_easy_TA/21_4_NaN_all_absent.jpg,0,a,easy,line,5d9338fc2f873000165f8e95,30,female,2021-05-03_11h24.25.540,search_v5,2021.1.2,Win32,60.09976561,,,space,0.334005,0,146,146,21,1,,,,,,,,,,,,,,,,,
,,,,,,,,,,,,,,,,a,0,3.399875,,,,,,,,line_mid_TP/1_0_1.7453_all_right_col_13_row_9.jpg,1,p,mid,line,5d9338fc2f873000165f8e95,30,female,2021-05-03_11h24.25.540,search_v5,2021.1.2,Win32,60.09976561,,,space,0.4367,0,147,147,127,1,,,,,,,,,,,,,,,,,
,,,,,,,,,,,,,,,,p,1,2.6843,,,,,,,,line_hard_TP/9_2_2.0944_none_right_col_21_row_2.jpg,1,p,hard,line,5d9338fc2f873000165f8e95,30,female,2021-05-03_11h24.25.540,search_v5,2021.1.2,Win32,60.09976561,,,space,0.170275,0,148,148,102,1,,,,,,,,,,,,,,,,,
,,,,,,,,,,,,,,,,p,1,3.563575,,,,,,,,line_hard_TP/18_1_2.0944_none_left_col_4_row_3.jpg,1,p,hard,line,5d9338fc2f873000165f8e95,30,female,2021-05-03_11h24.25.540,search_v5,2021.1.2,Win32,60.09976561,,,space,0.152635,0,149,149,87,1,,,,,,,,,,,,,,,,,
,,,,,,,,,,,,,,,,,,,,,,,,,,,,,,,5d9338fc2f873000165f8e95,30,female,2021-05-03_11h24.25.540,search_v5,2021.1.2,Win32,60.09976561,,,,,,,,,,0,1,1,2,1,condLine.xlsx,lines,Look for a line tilted 45 degrees to the right (target) and indicate if it is present or absent in the array. If the target is present press 'p' and if absent press 'a'. Press SPACE to start.,line_segment_example.jpg,,,,egLine.xlsx,,,,
,,,,,,,,,,,,space,5.33614,space,13.328645,a,1,1.402945,space,0.934445,0,0,0,11,1,0_targ_16_dist_green/trial2.png,0,a,hard,greenverival,5d9338fc2f873000165f8e95,30,female,2021-05-03_11h24.25.540,search_v5,2021.1.2,Win32,60.09976561,,,,,,,,,,,,,,,,,,,,,,,,16,,
,,,,,,,,,,,,,,,,a,1,1.09287,space,0.350375,0,1,1,9,1,0_targ_10_dist_green/trial2.png,0,a,mid,greenverival,5d9338fc2f873000165f8e95,30,female,2021-05-03_11h24.25.540,search_v5,2021.1.2,Win32,60.09976561,,,,,,,,,,,,,,,,,,,,,,,,10,,
,,,,,,,,,,,,,,,,a,1,0.86329,space,0.284205,0,2,2,7,1,0_targ_4_dist_green/trial2.png,0,a,easy,greenverival,5d9338fc2f873000165f8e95,30,female,2021-05-03_11h24.25.540,search_v5,2021.1.2,Win32,60.09976561,,,,,,,,,,,,,,,,,,,,,,,,4,,
,,,,,,,,,,,,,,,,p,1,0.96398,space,0.18404,0,3,3,2,1,9_dist_green/trial1.png,1,p,mid,greenverival,5d9338fc2f873000165f8e95,30,female,2021-05-03_11h24.25.540,search_v5,2021.1.2,Win32,60.09976561,,,,,,,,,,,,,,,,,,,,,,,,9,,
,,,,,,,,,,,,,,,,p,1,0.67314,space,0.13406,0,4,4,4,1,15_dist_green/trial1.png,1,p,hard,greenverival,5d9338fc2f873000165f8e95,30,female,2021-05-03_11h24.25.540,search_v5,2021.1.2,Win32,60.09976561,,,,,,,,,,,,,,,,,,,,,,,,15,,
,,,,,,,,,,,,,,,,p,1,0.61065,space,0.115395,0,5,5,1,1,3_dist_green/trial2.png,1,p,easy,greenverival,5d9338fc2f873000165f8e95,30,female,2021-05-03_11h24.25.540,search_v5,2021.1.2,Win32,60.09976561,,,,,,,,,,,,,,,,,,,,,,,,3,,
,,,,,,,,,,,,,,,,p,1,0.676165,space,0.190555,0,6,6,5,1,15_dist_green/trial2.png,1,p,hard,greenverival,5d9338fc2f873000165f8e95,30,female,2021-05-03_11h24.25.540,search_v5,2021.1.2,Win32,60.09976561,,,,,,,,,,,,,,,,,,,,,,,,15,,
,,,,,,,,,,,,,,,,p,1,0.493975,space,0.13973,0,7,7,3,1,9_dist_green/trial2.png,1,p,mid,greenverival,5d9338fc2f873000165f8e95,30,female,2021-05-03_11h24.25.540,search_v5,2021.1.2,Win32,60.09976561,,,,,,,,,,,,,,,,,,,,,,,,9,,
,,,,,,,,,,,,,,,,p,1,0.663135,space,0.117985,0,8,8,0,1,3_dist_green/trial1.png,1,p,easy,greenverival,5d9338fc2f873000165f8e95,30,female,2021-05-03_11h24.25.540,search_v5,2021.1.2,Win32,60.09976561,,,,,,,,,,,,,,,,,,,,,,,,3,,
,,,,,,,,,,,,,,,,a,1,0.69516,space,0.23453,0,9,9,6,1,0_targ_4_dist_green/trial1.png,0,a,easy,greenverival,5d9338fc2f873000165f8e95,30,female,2021-05-03_11h24.25.540,search_v5,2021.1.2,Win32,60.09976561,,,,,,,,,,,,,,,,,,,,,,,,4,,
,,,,,,,,,,,,,,,,a,1,0.985785,space,0.15218,0,10,10,8,1,0_targ_10_dist_green/trial1.png,0,a,mid,greenverival,5d9338fc2f873000165f8e95,30,female,2021-05-03_11h24.25.540,search_v5,2021.1.2,Win32,60.09976561,,,,,,,,,,,,,,,,,,,,,,,,10,,
,,,,,,,,,,,,,,,,a,1,1.415055,space,0.107385,0,11,11,10,1,0_targ_16_dist_green/trial1.png,0,a,hard,greenverival,5d9338fc2f873000165f8e95,30,female,2021-05-03_11h24.25.540,search_v5,2021.1.2,Win32,60.09976561,,,,,,,,,,,,,,,,,,,,,,,,16,,
,,,,,,,,,,,,,,,,a,1,1.429885,,,,,,,,0_targ_16_dist_green/trial16.png,0,a,hard,greenverival,5d9338fc2f873000165f8e95,30,female,2021-05-03_11h24.25.540,search_v5,2021.1.2,Win32,60.09976561,space,3.135,space,0.684985,0,0,0,140,1,,,,,,,,,,,,,,,16,,
,,,,,,,,,,,,,,,,a,1,1.291485,,,,,,,,0_targ_10_dist_green/trial12.png,0,a,mid,greenverival,5d9338fc2f873000165f8e95,30,female,2021-05-03_11h24.25.540,search_v5,2021.1.2,Win32,60.09976561,,,space,0.38407,0,1,1,113,1,,,,,,,,,,,,,,,10,,
,,,,,,,,,,,,,,,,p,1,0.713095,,,,,,,,15_dist_green/trial14.png,1,p,hard,greenverival,5d9338fc2f873000165f8e95,30,female,2021-05-03_11h24.25.540,search_v5,2021.1.2,Win32,60.09976561,,,space,0.13424,0,2,2,69,1,,,,,,,,,,,,,,,15,,
,,,,,,,,,,,,,,,,a,1,0.87818,,,,,,,,0_targ_4_dist_green/trial23.png,0,a,easy,greenverival,5d9338fc2f873000165f8e95,30,female,2021-05-03_11h24.25.540,search_v5,2021.1.2,Win32,60.09976561,,,space,0.13388,0,3,3,101,1,,,,,,,,,,,,,,,4,,
,,,,,,,,,,,,,,,,a,1,0.88922,,,,,,,,0_targ_4_dist_green/trial2.png,0,a,easy,greenverival,5d9338fc2f873000165f8e95,30,female,2021-05-03_11h24.25.540,search_v5,2021.1.2,Win32,60.09976561,,,space,0.100885,0,4,4,7,1,,,,,,,,,,,,,,,4,,
,,,,,,,,,,,,,,,,a,1,0.79187,,,,,,,,0_targ_4_dist_green/trial1.png,0,a,easy,greenverival,5d9338fc2f873000165f8e95,30,female,2021-05-03_11h24.25.540,search_v5,2021.1.2,Win32,60.09976561,,,space,0.30046,0,5,5,6,1,,,,,,,,,,,,,,,4,,
,,,,,,,,,,,,,,,,a,0,0.57198,,,,,,,,3_dist_green/trial1.png,1,p,easy,greenverival,5d9338fc2f873000165f8e95,30,female,2021-05-03_11h24.25.540,search_v5,2021.1.2,Win32,60.09976561,,,space,0.51849,0,6,6,0,1,,,,,,,,,,,,,,,3,,
,,,,,,,,,,,,,,,,a,1,1.0578,,,,,,,,0_targ_16_dist_green/trial10.png,0,a,hard,greenverival,5d9338fc2f873000165f8e95,30,female,2021-05-03_11h24.25.540,search_v5,2021.1.2,Win32,60.09976561,,,space,0.084365,0,7,7,134,1,,,,,,,,,,,,,,,16,,
,,,,,,,,,,,,,,,,a,1,1.025895,,,,,,,,0_targ_4_dist_green/trial17.png,0,a,easy,greenverival,5d9338fc2f873000165f8e95,30,female,2021-05-03_11h24.25.540,search_v5,2021.1.2,Win32,60.09976561,,,space,0.098965,0,8,8,95,1,,,,,,,,,,,,,,,4,,
,,,,,,,,,,,,,,,,p,1,0.83206,,,,,,,,9_dist_green/trial25.png,1,p,mid,greenverival,5d9338fc2f873000165f8e95,30,female,2021-05-03_11h24.25.540,search_v5,2021.1.2,Win32,60.09976561,,,space,0.15048,0,9,9,57,1,,,,,,,,,,,,,,,9,,
,,,,,,,,,,,,,,,,a,1,0.754805,,,,,,,,0_targ_4_dist_green/trial25.png,0,a,easy,greenverival,5d9338fc2f873000165f8e95,30,female,2021-05-03_11h24.25.540,search_v5,2021.1.2,Win32,60.09976561,,,space,0.117615,0,10,10,103,1,,,,,,,,,,,,,,,4,,
,,,,,,,,,,,,,,,,a,1,0.96159,,,,,,,,0_targ_16_dist_green/trial19.png,0,a,hard,greenverival,5d9338fc2f873000165f8e95,30,female,2021-05-03_11h24.25.540,search_v5,2021.1.2,Win32,60.09976561,,,space,0.084245,0,11,11,143,1,,,,,,,,,,,,,,,16,,
,,,,,,,,,,,,,,,,p,1,0.749965,,,,,,,,3_dist_green/trial8.png,1,p,easy,greenverival,5d9338fc2f873000165f8e95,30,female,2021-05-03_11h24.25.540,search_v5,2021.1.2,Win32,60.09976561,,,space,0.14191,0,12,12,17,1,,,,,,,,,,,,,,,3,,
,,,,,,,,,,,,,,,,p,1,0.67111,,,,,,,,15_dist_green/trial25.png,1,p,hard,greenverival,5d9338fc2f873000165f8e95,30,female,2021-05-03_11h24.25.540,search_v5,2021.1.2,Win32,60.09976561,,,space,0.12116,0,13,13,80,1,,,,,,,,,,,,,,,15,,
,,,,,,,,,,,,,,,,a,1,0.794515,,,,,,,,0_targ_16_dist_green/trial15.png,0,a,hard,greenverival,5d9338fc2f873000165f8e95,30,female,2021-05-03_11h24.25.540,search_v5,2021.1.2,Win32,60.09976561,,,space,0.10244,0,14,14,139,1,,,,,,,,,,,,,,,16,,
,,,,,,,,,,,,,,,,a,1,0.863205,,,,,,,,0_targ_4_dist_green/trial20.png,0,a,easy,greenverival,5d9338fc2f873000165f8e95,30,female,2021-05-03_11h24.25.540,search_v5,2021.1.2,Win32,60.09976561,,,space,0.0854,0,15,15,98,1,,,,,,,,,,,,,,,4,,
,,,,,,,,,,,,,,,,p,1,1.00148,,,,,,,,9_dist_green/trial7.png,1,p,mid,greenverival,5d9338fc2f873000165f8e95,30,female,2021-05-03_11h24.25.540,search_v5,2021.1.2,Win32,60.09976561,,,space,0.121315,0,16,16,39,1,,,,,,,,,,,,,,,9,,
,,,,,,,,,,,,,,,,a,1,0.76069,,,,,,,,0_targ_4_dist_green/trial22.png,0,a,easy,greenverival,5d9338fc2f873000165f8e95,30,female,2021-05-03_11h24.25.540,search_v5,2021.1.2,Win32,60.09976561,,,space,0.088305,0,17,17,100,1,,,,,,,,,,,,,,,4,,
,,,,,,,,,,,,,,,,p,1,0.76105,,,,,,,,3_dist_green/trial24.png,1,p,easy,greenverival,5d9338fc2f873000165f8e95,30,female,2021-05-03_11h24.25.540,search_v5,2021.1.2,Win32,60.09976561,,,space,0.133905,0,18,18,33,1,,,,,,,,,,,,,,,3,,
,,,,,,,,,,,,,,,,p,1,0.58637,,,,,,,,15_dist_green/trial19.png,1,p,hard,greenverival,5d9338fc2f873000165f8e95,30,female,2021-05-03_11h24.25.540,search_v5,2021.1.2,Win32,60.09976561,,,space,0.133585,0,19,19,74,1,,,,,,,,,,,,,,,15,,
,,,,,,,,,,,,,,,,p,1,0.84413,,,,,,,,9_dist_green/trial5.png,1,p,mid,greenverival,5d9338fc2f873000165f8e95,30,female,2021-05-03_11h24.25.540,search_v5,2021.1.2,Win32,60.09976561,,,space,0.13208,0,20,20,37,1,,,,,,,,,,,,,,,9,,
,,,,,,,,,,,,,,,,a,1,0.909605,,,,,,,,0_targ_16_dist_green/trial5.png,0,a,hard,greenverival,5d9338fc2f873000165f8e95,30,female,2021-05-03_11h24.25.540,search_v5,2021.1.2,Win32,60.09976561,,,space,0.05585,0,21,21,129,1,,,,,,,,,,,,,,,16,,
,,,,,,,,,,,,,,,,a,1,1.00746,,,,,,,,0_targ_16_dist_green/trial21.png,0,a,hard,greenverival,5d9338fc2f873000165f8e95,30,female,2021-05-03_11h24.25.540,search_v5,2021.1.2,Win32,60.09976561,,,space,0.117545,0,22,22,145,1,,,,,,,,,,,,,,,16,,
,,,,,,,,,,,,,,,,p,1,0.72956,,,,,,,,15_dist_green/trial11.png,1,p,hard,greenverival,5d9338fc2f873000165f8e95,30,female,2021-05-03_11h24.25.540,search_v5,2021.1.2,Win32,60.09976561,,,space,0.133425,0,23,23,66,1,,,,,,,,,,,,,,,15,,
,,,,,,,,,,,,,,,,a,1,0.79937,,,,,,,,0_targ_16_dist_green/trial2.png,0,a,hard,greenverival,5d9338fc2f873000165f8e95,30,female,2021-05-03_11h24.25.540,search_v5,2021.1.2,Win32,60.09976561,,,space,0.067785,0,24,24,11,1,,,,,,,,,,,,,,,16,,
,,,,,,,,,,,,,,,,a,1,0.798985,,,,,,,,0_targ_10_dist_green/trial11.png,0,a,mid,greenverival,5d9338fc2f873000165f8e95,30,female,2021-05-03_11h24.25.540,search_v5,2021.1.2,Win32,60.09976561,,,space,0.06716,0,25,25,112,1,,,,,,,,,,,,,,,10,,
,,,,,,,,,,,,,,,,a,1,0.83121,,,,,,,,0_targ_10_dist_green/trial15.png,0,a,mid,greenverival,5d9338fc2f873000165f8e95,30,female,2021-05-03_11h24.25.540,search_v5,2021.1.2,Win32,60.09976561,,,space,0.07467,0,26,26,116,1,,,,,,,,,,,,,,,10,,
,,,,,,,,,,,,,,,,p,1,1.470355,,,,,,,,15_dist_green/trial16.png,1,p,hard,greenverival,5d9338fc2f873000165f8e95,30,female,2021-05-03_11h24.25.540,search_v5,2021.1.2,Win32,60.09976561,,,space,0.135465,0,27,27,71,1,,,,,,,,,,,,,,,15,,
,,,,,,,,,,,,,,,,p,1,0.52178,,,,,,,,3_dist_green/trial14.png,1,p,easy,greenverival,5d9338fc2f873000165f8e95,30,female,2021-05-03_11h24.25.540,search_v5,2021.1.2,Win32,60.09976561,,,space,0.151365,0,28,28,23,1,,,,,,,,,,,,,,,3,,
,,,,,,,,,,,,,,,,a,1,0.64611,,,,,,,,0_targ_4_dist_green/trial15.png,0,a,easy,greenverival,5d9338fc2f873000165f8e95,30,female,2021-05-03_11h24.25.540,search_v5,2021.1.2,Win32,60.09976561,,,space,0.070645,0,29,29,93,1,,,,,,,,,,,,,,,4,,
,,,,,,,,,,,,,,,,a,1,1.386575,,,,,,,,0_targ_10_dist_green/trial20.png,0,a,mid,greenverival,5d9338fc2f873000165f8e95,30,female,2021-05-03_11h24.25.540,search_v5,2021.1.2,Win32,60.09976561,,,space,0.08408,0,30,30,121,1,,,,,,,,,,,,,,,10,,
,,,,,,,,,,,,,,,,a,1,0.76749,,,,,,,,0_targ_4_dist_green/trial19.png,0,a,easy,greenverival,5d9338fc2f873000165f8e95,30,female,2021-05-03_11h24.25.540,search_v5,2021.1.2,Win32,60.09976561,,,space,2.09381,0,31,31,97,1,,,,,,,,,,,,,,,4,,
,,,,,,,,,,,,,,,,a,1,1.25283,,,,,,,,0_targ_16_dist_green/trial8.png,0,a,hard,greenverival,5d9338fc2f873000165f8e95,30,female,2021-05-03_11h24.25.540,search_v5,2021.1.2,Win32,60.09976561,,,space,0.084585,0,32,32,132,1,,,,,,,,,,,,,,,16,,
,,,,,,,,,,,,,,,,a,1,0.91316,,,,,,,,0_targ_16_dist_green/trial3.png,0,a,hard,greenverival,5d9338fc2f873000165f8e95,30,female,2021-05-03_11h24.25.540,search_v5,2021.1.2,Win32,60.09976561,,,space,1.170035,0,33,33,127,1,,,,,,,,,,,,,,,16,,
,,,,,,,,,,,,,,,,a,1,0.9414,,,,,,,,0_targ_16_dist_green/trial9.png,0,a,hard,greenverival,5d9338fc2f873000165f8e95,30,female,2021-05-03_11h24.25.540,search_v5,2021.1.2,Win32,60.09976561,,,space,0.08618,0,34,34,133,1,,,,,,,,,,,,,,,16,,
,,,,,,,,,,,,,,,,p,1,0.88424,,,,,,,,9_dist_green/trial12.png,1,p,mid,greenverival,5d9338fc2f873000165f8e95,30,female,2021-05-03_11h24.25.540,search_v5,2021.1.2,Win32,60.09976561,,,space,0.152005,0,35,35,44,1,,,,,,,,,,,,,,,9,,
,,,,,,,,,,,,,,,,p,1,0.909155,,,,,,,,9_dist_green/trial21.png,1,p,mid,greenverival,5d9338fc2f873000165f8e95,30,female,2021-05-03_11h24.25.540,search_v5,2021.1.2,Win32,60.09976561,,,space,0.156475,0,36,36,53,1,,,,,,,,,,,,,,,9,,
,,,,,,,,,,,,,,,,p,1,0.53077,,,,,,,,9_dist_green/trial18.png,1,p,mid,greenverival,5d9338fc2f873000165f8e95,30,female,2021-05-03_11h24.25.540,search_v5,2021.1.2,Win32,60.09976561,,,space,0.151,0,37,37,50,1,,,,,,,,,,,,,,,9,,
,,,,,,,,,,,,,,,,p,1,0.581805,,,,,,,,9_dist_green/trial23.png,1,p,mid,greenverival,5d9338fc2f873000165f8e95,30,female,2021-05-03_11h24.25.540,search_v5,2021.1.2,Win32,60.09976561,,,space,0.15058,0,38,38,55,1,,,,,,,,,,,,,,,9,,
,,,,,,,,,,,,,,,,p,1,0.809695,,,,,,,,3_dist_green/trial19.png,1,p,easy,greenverival,5d9338fc2f873000165f8e95,30,female,2021-05-03_11h24.25.540,search_v5,2021.1.2,Win32,60.09976561,,,space,0.172555,0,39,39,28,1,,,,,,,,,,,,,,,3,,
,,,,,,,,,,,,,,,,a,1,0.777625,,,,,,,,0_targ_16_dist_green/trial25.png,0,a,hard,greenverival,5d9338fc2f873000165f8e95,30,female,2021-05-03_11h24.25.540,search_v5,2021.1.2,Win32,60.09976561,,,space,0.134585,0,40,40,149,1,,,,,,,,,,,,,,,16,,
,,,,,,,,,,,,,,,,a,1,0.59923,,,,,,,,0_targ_10_dist_green/trial10.png,0,a,mid,greenverival,5d9338fc2f873000165f8e95,30,female,2021-05-03_11h24.25.540,search_v5,2021.1.2,Win32,60.09976561,,,space,0.098775,0,41,41,111,1,,,,,,,,,,,,,,,10,,
,,,,,,,,,,,,,,,,p,1,0.774175,,,,,,,,3_dist_green/trial13.png,1,p,easy,greenverival,5d9338fc2f873000165f8e95,30,female,2021-05-03_11h24.25.540,search_v5,2021.1.2,Win32,60.09976561,,,space,0.16712,0,42,42,22,1,,,,,,,,,,,,,,,3,,
,,,,,,,,,,,,,,,,a,0,0.702045,,,,,,,,9_dist_green/trial17.png,1,p,mid,greenverival,5d9338fc2f873000165f8e95,30,female,2021-05-03_11h24.25.540,search_v5,2021.1.2,Win32,60.09976561,,,space,1.28458,0,43,43,49,1,,,,,,,,,,,,,,,9,,
,,,,,,,,,,,,,,,,a,0,0.834535,,,,,,,,3_dist_green/trial3.png,1,p,easy,greenverival,5d9338fc2f873000165f8e95,30,female,2021-05-03_11h24.25.540,search_v5,2021.1.2,Win32,60.09976561,,,space,3.002615,0,44,44,12,1,,,,,,,,,,,,,,,3,,
,,,,,,,,,,,,,,,,p,1,0.94272,,,,,,,,15_dist_green/trial13.png,1,p,hard,greenverival,5d9338fc2f873000165f8e95,30,female,2021-05-03_11h24.25.540,search_v5,2021.1.2,Win32,60.09976561,,,space,0.184845,0,45,45,68,1,,,,,,,,,,,,,,,15,,
,,,,,,,,,,,,,,,,p,1,0.925905,,,,,,,,9_dist_green/trial19.png,1,p,mid,greenverival,5d9338fc2f873000165f8e95,30,female,2021-05-03_11h24.25.540,search_v5,2021.1.2,Win32,60.09976561,,,space,0.17046,0,46,46,51,1,,,,,,,,,,,,,,,9,,
,,,,,,,,,,,,,,,,a,0,1.432495,,,,,,,,15_dist_green/trial5.png,1,p,hard,greenverival,5d9338fc2f873000165f8e95,30,female,2021-05-03_11h24.25.540,search_v5,2021.1.2,Win32,60.09976561,,,space,2.07793,0,47,47,60,1,,,,,,,,,,,,,,,15,,
,,,,,,,,,,,,,,,,p,1,0.906705,,,,,,,,9_dist_green/trial1.png,1,p,mid,greenverival,5d9338fc2f873000165f8e95,30,female,2021-05-03_11h24.25.540,search_v5,2021.1.2,Win32,60.09976561,,,space,0.18293,0,48,48,2,1,,,,,,,,,,,,,,,9,,
,,,,,,,,,,,,,,,,p,1,0.590875,,,,,,,,9_dist_green/trial20.png,1,p,mid,greenverival,5d9338fc2f873000165f8e95,30,female,2021-05-03_11h24.25.540,search_v5,2021.1.2,Win32,60.09976561,,,space,1.387825,0,49,49,52,1,,,,,,,,,,,,,,,9,,
,,,,,,,,,,,,,,,,a,1,0.70753,,,,,,,,0_targ_10_dist_green/trial8.png,0,a,mid,greenverival,5d9338fc2f873000165f8e95,30,female,2021-05-03_11h24.25.540,search_v5,2021.1.2,Win32,60.09976561,,,space,0.187405,0,50,50,109,1,,,,,,,,,,,,,,,10,,
,,,,,,,,,,,,,,,,a,1,1.13929,,,,,,,,0_targ_16_dist_green/trial23.png,0,a,hard,greenverival,5d9338fc2f873000165f8e95,30,female,2021-05-03_11h24.25.540,search_v5,2021.1.2,Win32,60.09976561,,,space,0.08441,0,51,51,147,1,,,,,,,,,,,,,,,16,,
,,,,,,,,,,,,,,,,a,1,0.963765,,,,,,,,0_targ_10_dist_green/trial13.png,0,a,mid,greenverival,5d9338fc2f873000165f8e95,30,female,2021-05-03_11h24.25.540,search_v5,2021.1.2,Win32,60.09976561,,,space,0.06744,0,52,52,114,1,,,,,,,,,,,,,,,10,,
,,,,,,,,,,,,,,,,p,1,1.309405,,,,,,,,15_dist_green/trial2.png,1,p,hard,greenverival,5d9338fc2f873000165f8e95,30,female,2021-05-03_11h24.25.540,search_v5,2021.1.2,Win32,60.09976561,,,space,0.207085,0,53,53,5,1,,,,,,,,,,,,,,,15,,
,,,,,,,,,,,,,,,,a,1,0.89838,,,,,,,,0_targ_16_dist_green/trial18.png,0,a,hard,greenverival,5d9338fc2f873000165f8e95,30,female,2021-05-03_11h24.25.540,search_v5,2021.1.2,Win32,60.09976561,,,space,0.100965,0,54,54,142,1,,,,,,,,,,,,,,,16,,
,,,,,,,,,,,,,,,,a,1,1.0264,,,,,,,,0_targ_10_dist_green/trial21.png,0,a,mid,greenverival,5d9338fc2f873000165f8e95,30,female,2021-05-03_11h24.25.540,search_v5,2021.1.2,Win32,60.09976561,,,space,0.101585,0,55,55,122,1,,,,,,,,,,,,,,,10,,
,,,,,,,,,,,,,,,,a,1,1.01326,,,,,,,,0_targ_10_dist_green/trial16.png,0,a,mid,greenverival,5d9338fc2f873000165f8e95,30,female,2021-05-03_11h24.25.540,search_v5,2021.1.2,Win32,60.09976561,,,space,0.06722,0,56,56,117,1,,,,,,,,,,,,,,,10,,
,,,,,,,,,,,,,,,,p,1,1.216,,,,,,,,9_dist_green/trial6.png,1,p,mid,greenverival,5d9338fc2f873000165f8e95,30,female,2021-05-03_11h24.25.540,search_v5,2021.1.2,Win32,60.09976561,,,space,0.222925,0,57,57,38,1,,,,,,,,,,,,,,,9,,
,,,,,,,,,,,,,,,,a,1,0.82607,,,,,,,,0_targ_4_dist_green/trial6.png,0,a,easy,greenverival,5d9338fc2f873000165f8e95,30,female,2021-05-03_11h24.25.540,search_v5,2021.1.2,Win32,60.09976561,,,space,0.134025,0,58,58,84,1,,,,,,,,,,,,,,,4,,
,,,,,,,,,,,,,,,,p,1,0.811905,,,,,,,,3_dist_green/trial12.png,1,p,easy,greenverival,5d9338fc2f873000165f8e95,30,female,2021-05-03_11h24.25.540,search_v5,2021.1.2,Win32,60.09976561,,,space,0.18439,0,59,59,21,1,,,,,,,,,,,,,,,3,,
,,,,,,,,,,,,,,,,a,1,0.702645,,,,,,,,0_targ_4_dist_green/trial21.png,0,a,easy,greenverival,5d9338fc2f873000165f8e95,30,female,2021-05-03_11h24.25.540,search_v5,2021.1.2,Win32,60.09976561,,,space,0.100955,0,60,60,99,1,,,,,,,,,,,,,,,4,,
,,,,,,,,,,,,,,,,a,1,0.672015,,,,,,,,0_targ_4_dist_green/trial11.png,0,a,easy,greenverival,5d9338fc2f873000165f8e95,30,female,2021-05-03_11h24.25.540,search_v5,2021.1.2,Win32,60.09976561,,,space,0.087805,0,61,61,89,1,,,,,,,,,,,,,,,4,,
,,,,,,,,,,,,,,,,p,1,0.670255,,,,,,,,15_dist_green/trial12.png,1,p,hard,greenverival,5d9338fc2f873000165f8e95,30,female,2021-05-03_11h24.25.540,search_v5,2021.1.2,Win32,60.09976561,,,space,0.217785,0,62,62,67,1,,,,,,,,,,,,,,,15,,
,,,,,,,,,,,,,,,,a,1,0.811335,,,,,,,,0_targ_4_dist_green/trial3.png,0,a,easy,greenverival,5d9338fc2f873000165f8e95,30,female,2021-05-03_11h24.25.540,search_v5,2021.1.2,Win32,60.09976561,,,space,0.08989,0,63,63,81,1,,,,,,,,,,,,,,,4,,
,,,,,,,,,,,,,,,,a,1,0.671365,,,,,,,,0_targ_4_dist_green/trial24.png,0,a,easy,greenverival,5d9338fc2f873000165f8e95,30,female,2021-05-03_11h24.25.540,search_v5,2021.1.2,Win32,60.09976561,,,space,0.103555,0,64,64,102,1,,,,,,,,,,,,,,,4,,
,,,,,,,,,,,,,,,,p,1,1.2116,,,,,,,,15_dist_green/trial8.png,1,p,hard,greenverival,5d9338fc2f873000165f8e95,30,female,2021-05-03_11h24.25.540,search_v5,2021.1.2,Win32,60.09976561,,,space,0.18416,0,65,65,63,1,,,,,,,,,,,,,,,15,,
,,,,,,,,,,,,,,,,p,1,0.944785,,,,,,,,9_dist_green/trial3.png,1,p,mid,greenverival,5d9338fc2f873000165f8e95,30,female,2021-05-03_11h24.25.540,search_v5,2021.1.2,Win32,60.09976561,,,space,0.18915,0,66,66,35,1,,,,,,,,,,,,,,,9,,
,,,,,,,,,,,,,,,,a,1,0.68938,,,,,,,,0_targ_4_dist_green/trial10.png,0,a,easy,greenverival,5d9338fc2f873000165f8e95,30,female,2021-05-03_11h24.25.540,search_v5,2021.1.2,Win32,60.09976561,,,space,0.135055,0,67,67,88,1,,,,,,,,,,,,,,,4,,
,,,,,,,,,,,,,,,,a,1,1.201405,,,,,,,,0_targ_10_dist_green/trial6.png,0,a,mid,greenverival,5d9338fc2f873000165f8e95,30,female,2021-05-03_11h24.25.540,search_v5,2021.1.2,Win32,60.09976561,,,space,0.06787,0,68,68,107,1,,,,,,,,,,,,,,,10,,
,,,,,,,,,,,,,,,,a,1,0.787105,,,,,,,,0_targ_4_dist_green/trial13.png,0,a,easy,greenverival,5d9338fc2f873000165f8e95,30,female,2021-05-03_11h24.25.540,search_v5,2021.1.2,Win32,60.09976561,,,space,3.152125,0,69,69,91,1,,,,,,,,,,,,,,,4,,
,,,,,,,,,,,,,,,,p,1,0.681375,,,,,,,,15_dist_green/trial6.png,1,p,hard,greenverival,5d9338fc2f873000165f8e95,30,female,2021-05-03_11h24.25.540,search_v5,2021.1.2,Win32,60.09976561,,,space,0.134855,0,70,70,61,1,,,,,,,,,,,,,,,15,,
,,,,,,,,,,,,,,,,p,1,0.764285,,,,,,,,9_dist_green/trial10.png,1,p,mid,greenverival,5d9338fc2f873000165f8e95,30,female,2021-05-03_11h24.25.540,search_v5,2021.1.2,Win32,60.09976561,,,space,0.150675,0,71,71,42,1,,,,,,,,,,,,,,,9,,
,,,,,,,,,,,,,,,,a,1,1.089575,,,,,,,,0_targ_16_dist_green/trial22.png,0,a,hard,greenverival,5d9338fc2f873000165f8e95,30,female,2021-05-03_11h24.25.540,search_v5,2021.1.2,Win32,60.09976561,,,space,0.058405,0,72,72,146,1,,,,,,,,,,,,,,,16,,
,,,,,,,,,,,,,,,,a,1,1.35444,,,,,,,,0_targ_16_dist_green/trial17.png,0,a,hard,greenverival,5d9338fc2f873000165f8e95,30,female,2021-05-03_11h24.25.540,search_v5,2021.1.2,Win32,60.09976561,,,space,1.14954,0,73,73,141,1,,,,,,,,,,,,,,,16,,
,,,,,,,,,,,,,,,,p,1,0.596125,,,,,,,,3_dist_green/trial22.png,1,p,easy,greenverival,5d9338fc2f873000165f8e95,30,female,2021-05-03_11h24.25.540,search_v5,2021.1.2,Win32,60.09976561,,,space,0.19138,0,74,74,31,1,,,,,,,,,,,,,,,3,,
,,,,,,,,,,,,,,,,a,1,0.73511,,,,,,,,0_targ_10_dist_green/trial25.png,0,a,mid,greenverival,5d9338fc2f873000165f8e95,30,female,2021-05-03_11h24.25.540,search_v5,2021.1.2,Win32,60.09976561,,,space,0.072005,0,75,75,126,1,,,,,,,,,,,,,,,10,,
,,,,,,,,,,,,,,,,p,1,0.661385,,,,,,,,9_dist_green/trial15.png,1,p,mid,greenverival,5d9338fc2f873000165f8e95,30,female,2021-05-03_11h24.25.540,search_v5,2021.1.2,Win32,60.09976561,,,space,0.18432,0,76,76,47,1,,,,,,,,,,,,,,,9,,
,,,,,,,,,,,,,,,,p,1,0.60388,,,,,,,,15_dist_green/trial24.png,1,p,hard,greenverival,5d9338fc2f873000165f8e95,30,female,2021-05-03_11h24.25.540,search_v5,2021.1.2,Win32,60.09976561,,,space,0.153935,0,77,77,79,1,,,,,,,,,,,,,,,15,,
,,,,,,,,,,,,,,,,p,1,0.44093,,,,,,,,3_dist_green/trial15.png,1,p,easy,greenverival,5d9338fc2f873000165f8e95,30,female,2021-05-03_11h24.25.540,search_v5,2021.1.2,Win32,60.09976561,,,space,0.200635,0,78,78,24,1,,,,,,,,,,,,,,,3,,
,,,,,,,,,,,,,,,,p,1,0.453875,,,,,,,,15_dist_green/trial15.png,1,p,hard,greenverival,5d9338fc2f873000165f8e95,30,female,2021-05-03_11h24.25.540,search_v5,2021.1.2,Win32,60.09976561,,,space,0.16718,0,79,79,70,1,,,,,,,,,,,,,,,15,,
,,,,,,,,,,,,,,,,a,1,0.69125,,,,,,,,0_targ_10_dist_green/trial24.png,0,a,mid,greenverival,5d9338fc2f873000165f8e95,30,female,2021-05-03_11h24.25.540,search_v5,2021.1.2,Win32,60.09976561,,,space,0.100065,0,80,80,125,1,,,,,,,,,,,,,,,10,,
,,,,,,,,,,,,,,,,a,1,0.700795,,,,,,,,0_targ_10_dist_green/trial14.png,0,a,mid,greenverival,5d9338fc2f873000165f8e95,30,female,2021-05-03_11h24.25.540,search_v5,2021.1.2,Win32,60.09976561,,,space,1.018195,0,81,81,115,1,,,,,,,,,,,,,,,10,,
,,,,,,,,,,,,,,,,p,1,0.565425,,,,,,,,15_dist_green/trial22.png,1,p,hard,greenverival,5d9338fc2f873000165f8e95,30,female,2021-05-03_11h24.25.540,search_v5,2021.1.2,Win32,60.09976561,,,space,0.20141,0,82,82,77,1,,,,,,,,,,,,,,,15,,
,,,,,,,,,,,,,,,,p,1,0.489415,,,,,,,,3_dist_green/trial7.png,1,p,easy,greenverival,5d9338fc2f873000165f8e95,30,female,2021-05-03_11h24.25.540,search_v5,2021.1.2,Win32,60.09976561,,,space,0.50819,0,83,83,16,1,,,,,,,,,,,,,,,3,,
,,,,,,,,,,,,,,,,p,1,0.477865,,,,,,,,3_dist_green/trial17.png,1,p,easy,greenverival,5d9338fc2f873000165f8e95,30,female,2021-05-03_11h24.25.540,search_v5,2021.1.2,Win32,60.09976561,,,space,0.16731,0,84,84,26,1,,,,,,,,,,,,,,,3,,
