key_resp_6.keys,key_resp_6.rt,key_resp_7.keys,key_resp_7.rt,key_resp_8.keys,key_resp_8.rt,key_resp_10.keys,key_resp_10.rt,key_resp_9.keys,key_resp_9.rt,key_resp_14.keys,key_resp_14.rt,key_resp_3.keys,key_resp_3.rt,key_resp_5.keys,key_resp_5.rt,key_resp.keys,key_resp.corr,key_resp.rt,key_resp_12.keys,key_resp_12.rt,practice.thisRepN,practice.thisTrialN,practice.thisN,practice.thisIndex,practice.ran,ImageFile,tarPos,targPres,numDist,targetName,correctAns,difficulty,participant,age,sex,date,expName,psychopyVersion,OS,frameRate,key_resp_13.keys,key_resp_13.rt,key_resp_4.keys,key_resp_4.rt,trials.thisRepN,trials.thisTrialN,trials.thisN,trials.thisIndex,trials.ran,trials_2.thisRepN,trials_2.thisTrialN,trials_2.thisN,trials_2.thisIndex,trials_2.ran,condsFile,targName,instructionText,stimExample,posit,size,stimSize,practiceFile,key_resp_15.keys,key_resp_15.rt
space,4.75608,space,2.65888,space,1.31488,space,0.711705,space,2.828295,space,4.61721,space,9.758705,space,6.465835,p,1,0.976625,space,5.80008,0,0,0,1,1,3_dist_green/trial2.png,,1,3,greenverival,p,easy,5f5e32a0d6a12c6857b8e127,25,male,2021-05-03_03h03.09.501,search_v5,2021.1.2,MacIntel,60.0024001,,,,,,,,,,,,,,,,,,,,,,,,
,,,,,,,,,,,,,,,,p,1,0.72917,space,0.540915,0,1,1,5,1,15_dist_green/trial2.png,,1,15,greenverival,p,hard,5f5e32a0d6a12c6857b8e127,25,male,2021-05-03_03h03.09.501,search_v5,2021.1.2,MacIntel,60.0024001,,,,,,,,,,,,,,,,,,,,,,,,
,,,,,,,,,,,,,,,,p,1,0.44875,space,0.369585,0,2,2,3,1,9_dist_green/trial2.png,,1,9,greenverival,p,mid,5f5e32a0d6a12c6857b8e127,25,male,2021-05-03_03h03.09.501,search_v5,2021.1.2,MacIntel,60.0024001,,,,,,,,,,,,,,,,,,,,,,,,
,,,,,,,,,,,,,,,,p,1,0.35358,space,0.326835,0,3,3,2,1,9_dist_green/trial1.png,,1,9,greenverival,p,mid,5f5e32a0d6a12c6857b8e127,25,male,2021-05-03_03h03.09.501,search_v5,2021.1.2,MacIntel,60.0024001,,,,,,,,,,,,,,,,,,,,,,,,
,,,,,,,,,,,,,,,,p,0,0.483415,space,0.341295,0,4,4,6,1,0_targ_4_dist_green/trial1.png,,0,4,greenverival,a,easy,5f5e32a0d6a12c6857b8e127,25,male,2021-05-03_03h03.09.501,search_v5,2021.1.2,MacIntel,60.0024001,,,,,,,,,,,,,,,,,,,,,,,,
,,,,,,,,,,,,,,,,p,0,1.564875,space,0.95517,0,5,5,7,1,0_targ_4_dist_green/trial2.png,,0,4,greenverival,a,easy,5f5e32a0d6a12c6857b8e127,25,male,2021-05-03_03h03.09.501,search_v5,2021.1.2,MacIntel,60.0024001,,,,,,,,,,,,,,,,,,,,,,,,
,,,,,,,,,,,,,,,,a,1,0.865165,space,0.49963,0,6,6,9,1,0_targ_10_dist_green/trial2.png,,0,10,greenverival,a,mid,5f5e32a0d6a12c6857b8e127,25,male,2021-05-03_03h03.09.501,search_v5,2021.1.2,MacIntel,60.0024001,,,,,,,,,,,,,,,,,,,,,,,,
,,,,,,,,,,,,,,,,a,1,0.831,space,0.310455,0,7,7,10,1,0_targ_16_dist_green/trial1.png,,0,16,greenverival,a,hard,5f5e32a0d6a12c6857b8e127,25,male,2021-05-03_03h03.09.501,search_v5,2021.1.2,MacIntel,60.0024001,,,,,,,,,,,,,,,,,,,,,,,,
,,,,,,,,,,,,,,,,p,1,0.71942,space,0.484375,0,8,8,4,1,15_dist_green/trial1.png,,1,15,greenverival,p,hard,5f5e32a0d6a12c6857b8e127,25,male,2021-05-03_03h03.09.501,search_v5,2021.1.2,MacIntel,60.0024001,,,,,,,,,,,,,,,,,,,,,,,,
,,,,,,,,,,,,,,,,p,1,0.519125,space,0.41271,0,9,9,0,1,3_dist_green/trial1.png,,1,3,greenverival,p,easy,5f5e32a0d6a12c6857b8e127,25,male,2021-05-03_03h03.09.501,search_v5,2021.1.2,MacIntel,60.0024001,,,,,,,,,,,,,,,,,,,,,,,,
,,,,,,,,,,,,,,,,a,1,0.74942,space,0.350085,0,10,10,8,1,0_targ_10_dist_green/trial1.png,,0,10,greenverival,a,mid,5f5e32a0d6a12c6857b8e127,25,male,2021-05-03_03h03.09.501,search_v5,2021.1.2,MacIntel,60.0024001,,,,,,,,,,,,,,,,,,,,,,,,
,,,,,,,,,,,,,,,,a,1,0.712835,space,0.371795,0,11,11,11,1,0_targ_16_dist_green/trial2.png,,0,16,greenverival,a,hard,5f5e32a0d6a12c6857b8e127,25,male,2021-05-03_03h03.09.501,search_v5,2021.1.2,MacIntel,60.0024001,,,,,,,,,,,,,,,,,,,,,,,,
,,,,,,,,,,,,,,,,p,1,0.957875,,,,,,,,15_dist_green/trial24.png,,1,15,greenverival,p,hard,5f5e32a0d6a12c6857b8e127,25,male,2021-05-03_03h03.09.501,search_v5,2021.1.2,MacIntel,60.0024001,space,4.10292,space,0.51754,0,0,0,79,1,,,,,,,,,,,,,,,
,,,,,,,,,,,,,,,,p,1,0.75854,,,,,,,,3_dist_green/trial1.png,,1,3,greenverival,p,easy,5f5e32a0d6a12c6857b8e127,25,male,2021-05-03_03h03.09.501,search_v5,2021.1.2,MacIntel,60.0024001,,,space,0.23462,0,1,1,0,1,,,,,,,,,,,,,,,
,,,,,,,,,,,,,,,,p,1,0.66979,,,,,,,,9_dist_green/trial17.png,,1,9,greenverival,p,mid,5f5e32a0d6a12c6857b8e127,25,male,2021-05-03_03h03.09.501,search_v5,2021.1.2,MacIntel,60.0024001,,,space,0.302,0,2,2,49,1,,,,,,,,,,,,,,,
,,,,,,,,,,,,,,,,p,1,0.534915,,,,,,,,3_dist_green/trial14.png,,1,3,greenverival,p,easy,5f5e32a0d6a12c6857b8e127,25,male,2021-05-03_03h03.09.501,search_v5,2021.1.2,MacIntel,60.0024001,,,space,0.28896,0,3,3,23,1,,,,,,,,,,,,,,,
,,,,,,,,,,,,,,,,a,1,0.833915,,,,,,,,0_targ_10_dist_green/trial15.png,,0,10,greenverival,a,mid,5f5e32a0d6a12c6857b8e127,25,male,2021-05-03_03h03.09.501,search_v5,2021.1.2,MacIntel,60.0024001,,,space,0.23583,0,4,4,116,1,,,,,,,,,,,,,,,
,,,,,,,,,,,,,,,,a,0,0.647665,,,,,,,,3_dist_green/trial11.png,,1,3,greenverival,p,easy,5f5e32a0d6a12c6857b8e127,25,male,2021-05-03_03h03.09.501,search_v5,2021.1.2,MacIntel,60.0024001,,,space,0.2905,0,5,5,20,1,,,,,,,,,,,,,,,
,,,,,,,,,,,,,,,,a,1,0.79646,,,,,,,,0_targ_4_dist_green/trial23.png,,0,4,greenverival,a,easy,5f5e32a0d6a12c6857b8e127,25,male,2021-05-03_03h03.09.501,search_v5,2021.1.2,MacIntel,60.0024001,,,space,0.22346,0,6,6,101,1,,,,,,,,,,,,,,,
,,,,,,,,,,,,,,,,a,1,0.78608,,,,,,,,0_targ_16_dist_green/trial15.png,,0,16,greenverival,a,hard,5f5e32a0d6a12c6857b8e127,25,male,2021-05-03_03h03.09.501,search_v5,2021.1.2,MacIntel,60.0024001,,,space,0.28408,0,7,7,139,1,,,,,,,,,,,,,,,
,,,,,,,,,,,,,,,,p,1,0.51488,,,,,,,,3_dist_green/trial19.png,,1,3,greenverival,p,easy,5f5e32a0d6a12c6857b8e127,25,male,2021-05-03_03h03.09.501,search_v5,2021.1.2,MacIntel,60.0024001,,,space,0.280795,0,8,8,28,1,,,,,,,,,,,,,,,
,,,,,,,,,,,,,,,,p,1,0.62,,,,,,,,15_dist_green/trial22.png,,1,15,greenverival,p,hard,5f5e32a0d6a12c6857b8e127,25,male,2021-05-03_03h03.09.501,search_v5,2021.1.2,MacIntel,60.0024001,,,space,0.26896,0,9,9,77,1,,,,,,,,,,,,,,,
,,,,,,,,,,,,,,,,a,0,0.600545,,,,,,,,15_dist_green/trial1.png,,1,15,greenverival,p,hard,5f5e32a0d6a12c6857b8e127,25,male,2021-05-03_03h03.09.501,search_v5,2021.1.2,MacIntel,60.0024001,,,space,0.244705,0,10,10,4,1,,,,,,,,,,,,,,,
,,,,,,,,,,,,,,,,a,1,0.88217,,,,,,,,0_targ_10_dist_green/trial4.png,,0,10,greenverival,a,mid,5f5e32a0d6a12c6857b8e127,25,male,2021-05-03_03h03.09.501,search_v5,2021.1.2,MacIntel,60.0024001,,,space,0.24671,0,11,11,105,1,,,,,,,,,,,,,,,
,,,,,,,,,,,,,,,,p,1,0.65225,,,,,,,,3_dist_green/trial17.png,,1,3,greenverival,p,easy,5f5e32a0d6a12c6857b8e127,25,male,2021-05-03_03h03.09.501,search_v5,2021.1.2,MacIntel,60.0024001,,,space,0.252665,0,12,12,26,1,,,,,,,,,,,,,,,
,,,,,,,,,,,,,,,,a,1,0.803335,,,,,,,,0_targ_16_dist_green/trial7.png,,0,16,greenverival,a,hard,5f5e32a0d6a12c6857b8e127,25,male,2021-05-03_03h03.09.501,search_v5,2021.1.2,MacIntel,60.0024001,,,space,0.23467,0,13,13,131,1,,,,,,,,,,,,,,,
,,,,,,,,,,,,,,,,a,1,0.66663,,,,,,,,0_targ_16_dist_green/trial3.png,,0,16,greenverival,a,hard,5f5e32a0d6a12c6857b8e127,25,male,2021-05-03_03h03.09.501,search_v5,2021.1.2,MacIntel,60.0024001,,,space,0.235375,0,14,14,127,1,,,,,,,,,,,,,,,
,,,,,,,,,,,,,,,,p,1,0.65329,,,,,,,,9_dist_green/trial5.png,,1,9,greenverival,p,mid,5f5e32a0d6a12c6857b8e127,25,male,2021-05-03_03h03.09.501,search_v5,2021.1.2,MacIntel,60.0024001,,,space,0.28525,0,15,15,37,1,,,,,,,,,,,,,,,
,,,,,,,,,,,,,,,,p,1,0.923705,,,,,,,,9_dist_green/trial13.png,,1,9,greenverival,p,mid,5f5e32a0d6a12c6857b8e127,25,male,2021-05-03_03h03.09.501,search_v5,2021.1.2,MacIntel,60.0024001,,,space,0.261375,0,16,16,45,1,,,,,,,,,,,,,,,
,,,,,,,,,,,,,,,,p,1,0.49933,,,,,,,,3_dist_green/trial23.png,,1,3,greenverival,p,easy,5f5e32a0d6a12c6857b8e127,25,male,2021-05-03_03h03.09.501,search_v5,2021.1.2,MacIntel,60.0024001,,,space,0.302585,0,17,17,32,1,,,,,,,,,,,,,,,
,,,,,,,,,,,,,,,,a,1,0.575835,,,,,,,,0_targ_4_dist_green/trial17.png,,0,4,greenverival,a,easy,5f5e32a0d6a12c6857b8e127,25,male,2021-05-03_03h03.09.501,search_v5,2021.1.2,MacIntel,60.0024001,,,space,0.291585,0,18,18,95,1,,,,,,,,,,,,,,,
,,,,,,,,,,,,,,,,p,1,0.900665,,,,,,,,15_dist_green/trial4.png,,1,15,greenverival,p,hard,5f5e32a0d6a12c6857b8e127,25,male,2021-05-03_03h03.09.501,search_v5,2021.1.2,MacIntel,60.0024001,,,space,0.23867,0,19,19,59,1,,,,,,,,,,,,,,,
,,,,,,,,,,,,,,,,a,1,0.68562,,,,,,,,0_targ_4_dist_green/trial6.png,,0,4,greenverival,a,easy,5f5e32a0d6a12c6857b8e127,25,male,2021-05-03_03h03.09.501,search_v5,2021.1.2,MacIntel,60.0024001,,,space,0.268625,0,20,20,84,1,,,,,,,,,,,,,,,
,,,,,,,,,,,,,,,,a,1,0.632205,,,,,,,,0_targ_4_dist_green/trial25.png,,0,4,greenverival,a,easy,5f5e32a0d6a12c6857b8e127,25,male,2021-05-03_03h03.09.501,search_v5,2021.1.2,MacIntel,60.0024001,,,space,0.23821,0,21,21,103,1,,,,,,,,,,,,,,,
,,,,,,,,,,,,,,,,p,1,0.749835,,,,,,,,9_dist_green/trial15.png,,1,9,greenverival,p,mid,5f5e32a0d6a12c6857b8e127,25,male,2021-05-03_03h03.09.501,search_v5,2021.1.2,MacIntel,60.0024001,,,space,0.25675,0,22,22,47,1,,,,,,,,,,,,,,,
,,,,,,,,,,,,,,,,a,1,0.714585,,,,,,,,0_targ_16_dist_green/trial11.png,,0,16,greenverival,a,hard,5f5e32a0d6a12c6857b8e127,25,male,2021-05-03_03h03.09.501,search_v5,2021.1.2,MacIntel,60.0024001,,,space,0.28471,0,23,23,135,1,,,,,,,,,,,,,,,
,,,,,,,,,,,,,,,,p,1,0.537085,,,,,,,,3_dist_green/trial13.png,,1,3,greenverival,p,easy,5f5e32a0d6a12c6857b8e127,25,male,2021-05-03_03h03.09.501,search_v5,2021.1.2,MacIntel,60.0024001,,,space,0.29454,0,24,24,22,1,,,,,,,,,,,,,,,
,,,,,,,,,,,,,,,,p,1,0.670125,,,,,,,,3_dist_green/trial16.png,,1,3,greenverival,p,easy,5f5e32a0d6a12c6857b8e127,25,male,2021-05-03_03h03.09.501,search_v5,2021.1.2,MacIntel,60.0024001,,,space,0.284665,0,25,25,25,1,,,,,,,,,,,,,,,
,,,,,,,,,,,,,,,,a,1,0.634085,,,,,,,,0_targ_10_dist_green/trial1.png,,0,10,greenverival,a,mid,5f5e32a0d6a12c6857b8e127,25,male,2021-05-03_03h03.09.501,search_v5,2021.1.2,MacIntel,60.0024001,,,space,0.260125,0,26,26,8,1,,,,,,,,,,,,,,,
,,,,,,,,,,,,,,,,a,0,0.788585,,,,,,,,15_dist_green/trial12.png,,1,15,greenverival,p,hard,5f5e32a0d6a12c6857b8e127,25,male,2021-05-03_03h03.09.501,search_v5,2021.1.2,MacIntel,60.0024001,,,space,1.814165,0,27,27,67,1,,,,,,,,,,,,,,,
,,,,,,,,,,,,,,,,a,1,0.618415,,,,,,,,0_targ_10_dist_green/trial13.png,,0,10,greenverival,a,mid,5f5e32a0d6a12c6857b8e127,25,male,2021-05-03_03h03.09.501,search_v5,2021.1.2,MacIntel,60.0024001,,,space,0.31792,0,28,28,114,1,,,,,,,,,,,,,,,
,,,,,,,,,,,,,,,,p,1,0.632415,,,,,,,,15_dist_green/trial23.png,,1,15,greenverival,p,hard,5f5e32a0d6a12c6857b8e127,25,male,2021-05-03_03h03.09.501,search_v5,2021.1.2,MacIntel,60.0024001,,,space,0.28492,0,29,29,78,1,,,,,,,,,,,,,,,
,,,,,,,,,,,,,,,,p,1,0.78504,,,,,,,,15_dist_green/trial6.png,,1,15,greenverival,p,hard,5f5e32a0d6a12c6857b8e127,25,male,2021-05-03_03h03.09.501,search_v5,2021.1.2,MacIntel,60.0024001,,,space,0.237585,0,30,30,61,1,,,,,,,,,,,,,,,
,,,,,,,,,,,,,,,,p,1,0.53167,,,,,,,,3_dist_green/trial9.png,,1,3,greenverival,p,easy,5f5e32a0d6a12c6857b8e127,25,male,2021-05-03_03h03.09.501,search_v5,2021.1.2,MacIntel,60.0024001,,,space,0.370335,0,31,31,18,1,,,,,,,,,,,,,,,
,,,,,,,,,,,,,,,,a,1,0.591375,,,,,,,,0_targ_10_dist_green/trial20.png,,0,10,greenverival,a,mid,5f5e32a0d6a12c6857b8e127,25,male,2021-05-03_03h03.09.501,search_v5,2021.1.2,MacIntel,60.0024001,,,space,0.351835,0,32,32,121,1,,,,,,,,,,,,,,,
,,,,,,,,,,,,,,,,a,1,0.538585,,,,,,,,0_targ_10_dist_green/trial16.png,,0,10,greenverival,a,mid,5f5e32a0d6a12c6857b8e127,25,male,2021-05-03_03h03.09.501,search_v5,2021.1.2,MacIntel,60.0024001,,,space,0.30796,0,33,33,117,1,,,,,,,,,,,,,,,
,,,,,,,,,,,,,,,,p,1,0.77271,,,,,,,,15_dist_green/trial5.png,,1,15,greenverival,p,hard,5f5e32a0d6a12c6857b8e127,25,male,2021-05-03_03h03.09.501,search_v5,2021.1.2,MacIntel,60.0024001,,,space,0.302085,0,34,34,60,1,,,,,,,,,,,,,,,
,,,,,,,,,,,,,,,,a,1,0.716505,,,,,,,,0_targ_16_dist_green/trial17.png,,0,16,greenverival,a,hard,5f5e32a0d6a12c6857b8e127,25,male,2021-05-03_03h03.09.501,search_v5,2021.1.2,MacIntel,60.0024001,,,space,0.286875,0,35,35,141,1,,,,,,,,,,,,,,,
,,,,,,,,,,,,,,,,a,0,0.63192,,,,,,,,15_dist_green/trial7.png,,1,15,greenverival,p,hard,5f5e32a0d6a12c6857b8e127,25,male,2021-05-03_03h03.09.501,search_v5,2021.1.2,MacIntel,60.0024001,,,space,0.67,0,36,36,62,1,,,,,,,,,,,,,,,
,,,,,,,,,,,,,,,,a,1,0.99896,,,,,,,,0_targ_10_dist_green/trial25.png,,0,10,greenverival,a,mid,5f5e32a0d6a12c6857b8e127,25,male,2021-05-03_03h03.09.501,search_v5,2021.1.2,MacIntel,60.0024001,,,space,0.299415,0,37,37,126,1,,,,,,,,,,,,,,,
,,,,,,,,,,,,,,,,p,1,0.884045,,,,,,,,9_dist_green/trial25.png,,1,9,greenverival,p,mid,5f5e32a0d6a12c6857b8e127,25,male,2021-05-03_03h03.09.501,search_v5,2021.1.2,MacIntel,60.0024001,,,space,0.284205,0,38,38,57,1,,,,,,,,,,,,,,,
,,,,,,,,,,,,,,,,p,1,0.581915,,,,,,,,15_dist_green/trial14.png,,1,15,greenverival,p,hard,5f5e32a0d6a12c6857b8e127,25,male,2021-05-03_03h03.09.501,search_v5,2021.1.2,MacIntel,60.0024001,,,space,0.27117,0,39,39,69,1,,,,,,,,,,,,,,,
,,,,,,,,,,,,,,,,a,1,1.29721,,,,,,,,0_targ_16_dist_green/trial5.png,,0,16,greenverival,a,hard,5f5e32a0d6a12c6857b8e127,25,male,2021-05-03_03h03.09.501,search_v5,2021.1.2,MacIntel,60.0024001,,,space,0.32975,0,40,40,129,1,,,,,,,,,,,,,,,
,,,,,,,,,,,,,,,,a,1,0.65683,,,,,,,,0_targ_4_dist_green/trial10.png,,0,4,greenverival,a,easy,5f5e32a0d6a12c6857b8e127,25,male,2021-05-03_03h03.09.501,search_v5,2021.1.2,MacIntel,60.0024001,,,space,0.259125,0,41,41,88,1,,,,,,,,,,,,,,,
,,,,,,,,,,,,,,,,a,1,0.69704,,,,,,,,0_targ_16_dist_green/trial19.png,,0,16,greenverival,a,hard,5f5e32a0d6a12c6857b8e127,25,male,2021-05-03_03h03.09.501,search_v5,2021.1.2,MacIntel,60.0024001,,,space,0.258625,0,42,42,143,1,,,,,,,,,,,,,,,
,,,,,,,,,,,,,,,,p,1,0.69996,,,,,,,,9_dist_green/trial11.png,,1,9,greenverival,p,mid,5f5e32a0d6a12c6857b8e127,25,male,2021-05-03_03h03.09.501,search_v5,2021.1.2,MacIntel,60.0024001,,,space,0.274835,0,43,43,43,1,,,,,,,,,,,,,,,
,,,,,,,,,,,,,,,,p,1,0.59342,,,,,,,,9_dist_green/trial21.png,,1,9,greenverival,p,mid,5f5e32a0d6a12c6857b8e127,25,male,2021-05-03_03h03.09.501,search_v5,2021.1.2,MacIntel,60.0024001,,,space,0.30596,0,44,44,53,1,,,,,,,,,,,,,,,
,,,,,,,,,,,,,,,,p,1,0.76654,,,,,,,,9_dist_green/trial3.png,,1,9,greenverival,p,mid,5f5e32a0d6a12c6857b8e127,25,male,2021-05-03_03h03.09.501,search_v5,2021.1.2,MacIntel,60.0024001,,,space,0.451665,0,45,45,35,1,,,,,,,,,,,,,,,
,,,,,,,,,,,,,,,,a,1,0.600375,,,,,,,,0_targ_4_dist_green/trial9.png,,0,4,greenverival,a,easy,5f5e32a0d6a12c6857b8e127,25,male,2021-05-03_03h03.09.501,search_v5,2021.1.2,MacIntel,60.0024001,,,space,0.333165,0,46,46,87,1,,,,,,,,,,,,,,,
,,,,,,,,,,,,,,,,p,1,0.717625,,,,,,,,3_dist_green/trial22.png,,1,3,greenverival,p,easy,5f5e32a0d6a12c6857b8e127,25,male,2021-05-03_03h03.09.501,search_v5,2021.1.2,MacIntel,60.0024001,,,space,0.320665,0,47,47,31,1,,,,,,,,,,,,,,,
,,,,,,,,,,,,,,,,a,1,0.65033,,,,,,,,0_targ_10_dist_green/trial17.png,,0,10,greenverival,a,mid,5f5e32a0d6a12c6857b8e127,25,male,2021-05-03_03h03.09.501,search_v5,2021.1.2,MacIntel,60.0024001,,,space,0.295795,0,48,48,118,1,,,,,,,,,,,,,,,
,,,,,,,,,,,,,,,,a,1,0.63083,,,,,,,,0_targ_4_dist_green/trial13.png,,0,4,greenverival,a,easy,5f5e32a0d6a12c6857b8e127,25,male,2021-05-03_03h03.09.501,search_v5,2021.1.2,MacIntel,60.0024001,,,space,0.317,0,49,49,91,1,,,,,,,,,,,,,,,
,,,,,,,,,,,,,,,,p,1,0.63358,,,,,,,,3_dist_green/trial4.png,,1,3,greenverival,p,easy,5f5e32a0d6a12c6857b8e127,25,male,2021-05-03_03h03.09.501,search_v5,2021.1.2,MacIntel,60.0024001,,,space,0.34121,0,50,50,13,1,,,,,,,,,,,,,,,
,,,,,,,,,,,,,,,,a,1,0.5495,,,,,,,,0_targ_4_dist_green/trial14.png,,0,4,greenverival,a,easy,5f5e32a0d6a12c6857b8e127,25,male,2021-05-03_03h03.09.501,search_v5,2021.1.2,MacIntel,60.0024001,,,space,0.37629,0,51,51,92,1,,,,,,,,,,,,,,,
,,,,,,,,,,,,,,,,a,1,0.71958,,,,,,,,0_targ_16_dist_green/trial12.png,,0,16,greenverival,a,hard,5f5e32a0d6a12c6857b8e127,25,male,2021-05-03_03h03.09.501,search_v5,2021.1.2,MacIntel,60.0024001,,,space,0.353125,0,52,52,136,1,,,,,,,,,,,,,,,
,,,,,,,,,,,,,,,,a,1,0.61421,,,,,,,,0_targ_4_dist_green/trial18.png,,0,4,greenverival,a,easy,5f5e32a0d6a12c6857b8e127,25,male,2021-05-03_03h03.09.501,search_v5,2021.1.2,MacIntel,60.0024001,,,space,0.30396,0,53,53,96,1,,,,,,,,,,,,,,,
,,,,,,,,,,,,,,,,a,1,0.799745,,,,,,,,0_targ_10_dist_green/trial24.png,,0,10,greenverival,a,mid,5f5e32a0d6a12c6857b8e127,25,male,2021-05-03_03h03.09.501,search_v5,2021.1.2,MacIntel,60.0024001,,,space,0.29746,0,54,54,125,1,,,,,,,,,,,,,,,
,,,,,,,,,,,,,,,,p,1,0.63246,,,,,,,,9_dist_green/trial12.png,,1,9,greenverival,p,mid,5f5e32a0d6a12c6857b8e127,25,male,2021-05-03_03h03.09.501,search_v5,2021.1.2,MacIntel,60.0024001,,,space,0.33467,0,55,55,44,1,,,,,,,,,,,,,,,
,,,,,,,,,,,,,,,,a,1,0.623585,,,,,,,,0_targ_16_dist_green/trial9.png,,0,16,greenverival,a,hard,5f5e32a0d6a12c6857b8e127,25,male,2021-05-03_03h03.09.501,search_v5,2021.1.2,MacIntel,60.0024001,,,space,0.333995,0,56,56,133,1,,,,,,,,,,,,,,,
,,,,,,,,,,,,,,,,p,1,0.599495,,,,,,,,15_dist_green/trial20.png,,1,15,greenverival,p,hard,5f5e32a0d6a12c6857b8e127,25,male,2021-05-03_03h03.09.501,search_v5,2021.1.2,MacIntel,60.0024001,,,space,0.30129,0,57,57,75,1,,,,,,,,,,,,,,,
,,,,,,,,,,,,,,,,p,1,0.58808,,,,,,,,9_dist_green/trial4.png,,1,9,greenverival,p,mid,5f5e32a0d6a12c6857b8e127,25,male,2021-05-03_03h03.09.501,search_v5,2021.1.2,MacIntel,60.0024001,,,space,0.268125,0,58,58,36,1,,,,,,,,,,,,,,,
,,,,,,,,,,,,,,,,p,1,0.732585,,,,,,,,9_dist_green/trial1.png,,1,9,greenverival,p,mid,5f5e32a0d6a12c6857b8e127,25,male,2021-05-03_03h03.09.501,search_v5,2021.1.2,MacIntel,60.0024001,,,space,0.30087,0,59,59,2,1,,,,,,,,,,,,,,,
,,,,,,,,,,,,,,,,a,1,0.5885,,,,,,,,0_targ_4_dist_green/trial3.png,,0,4,greenverival,a,easy,5f5e32a0d6a12c6857b8e127,25,male,2021-05-03_03h03.09.501,search_v5,2021.1.2,MacIntel,60.0024001,,,space,0.28921,0,60,60,81,1,,,,,,,,,,,,,,,
,,,,,,,,,,,,,,,,a,1,0.542165,,,,,,,,0_targ_4_dist_green/trial8.png,,0,4,greenverival,a,easy,5f5e32a0d6a12c6857b8e127,25,male,2021-05-03_03h03.09.501,search_v5,2021.1.2,MacIntel,60.0024001,,,space,0.251335,0,61,61,86,1,,,,,,,,,,,,,,,
,,,,,,,,,,,,,,,,a,1,0.55771,,,,,,,,0_targ_10_dist_green/trial5.png,,0,10,greenverival,a,mid,5f5e32a0d6a12c6857b8e127,25,male,2021-05-03_03h03.09.501,search_v5,2021.1.2,MacIntel,60.0024001,,,space,0.235625,0,62,62,106,1,,,,,,,,,,,,,,,
,,,,,,,,,,,,,,,,a,1,0.596625,,,,,,,,0_targ_16_dist_green/trial1.png,,0,16,greenverival,a,hard,5f5e32a0d6a12c6857b8e127,25,male,2021-05-03_03h03.09.501,search_v5,2021.1.2,MacIntel,60.0024001,,,space,0.256415,0,63,63,10,1,,,,,,,,,,,,,,,
,,,,,,,,,,,,,,,,p,1,0.870455,,,,,,,,15_dist_green/trial17.png,,1,15,greenverival,p,hard,5f5e32a0d6a12c6857b8e127,25,male,2021-05-03_03h03.09.501,search_v5,2021.1.2,MacIntel,60.0024001,,,space,0.285625,0,64,64,72,1,,,,,,,,,,,,,,,
,,,,,,,,,,,,,,,,a,1,0.66575,,,,,,,,0_targ_4_dist_green/trial4.png,,0,4,greenverival,a,easy,5f5e32a0d6a12c6857b8e127,25,male,2021-05-03_03h03.09.501,search_v5,2021.1.2,MacIntel,60.0024001,,,space,0.285375,0,65,65,82,1,,,,,,,,,,,,,,,
,,,,,,,,,,,,,,,,p,1,0.64017,,,,,,,,9_dist_green/trial22.png,,1,9,greenverival,p,mid,5f5e32a0d6a12c6857b8e127,25,male,2021-05-03_03h03.09.501,search_v5,2021.1.2,MacIntel,60.0024001,,,space,0.28475,0,66,66,54,1,,,,,,,,,,,,,,,
,,,,,,,,,,,,,,,,a,1,0.71333,,,,,,,,0_targ_10_dist_green/trial10.png,,0,10,greenverival,a,mid,5f5e32a0d6a12c6857b8e127,25,male,2021-05-03_03h03.09.501,search_v5,2021.1.2,MacIntel,60.0024001,,,space,0.287125,0,67,67,111,1,,,,,,,,,,,,,,,
,,,,,,,,,,,,,,,,p,1,0.703915,,,,,,,,9_dist_green/trial10.png,,1,9,greenverival,p,mid,5f5e32a0d6a12c6857b8e127,25,male,2021-05-03_03h03.09.501,search_v5,2021.1.2,MacIntel,60.0024001,,,space,0.235335,0,68,68,42,1,,,,,,,,,,,,,,,
,,,,,,,,,,,,,,,,a,1,0.63233,,,,,,,,0_targ_16_dist_green/trial25.png,,0,16,greenverival,a,hard,5f5e32a0d6a12c6857b8e127,25,male,2021-05-03_03h03.09.501,search_v5,2021.1.2,MacIntel,60.0024001,,,space,0.28517,0,69,69,149,1,,,,,,,,,,,,,,,
,,,,,,,,,,,,,,,,a,1,0.61583,,,,,,,,0_targ_10_dist_green/trial7.png,,0,10,greenverival,a,mid,5f5e32a0d6a12c6857b8e127,25,male,2021-05-03_03h03.09.501,search_v5,2021.1.2,MacIntel,60.0024001,,,space,0.25096,0,70,70,108,1,,,,,,,,,,,,,,,
,,,,,,,,,,,,,,,,a,1,0.730755,,,,,,,,0_targ_16_dist_green/trial20.png,,0,16,greenverival,a,hard,5f5e32a0d6a12c6857b8e127,25,male,2021-05-03_03h03.09.501,search_v5,2021.1.2,MacIntel,60.0024001,,,space,0.22229,0,71,71,144,1,,,,,,,,,,,,,,,
,,,,,,,,,,,,,,,,a,0,0.61846,,,,,,,,9_dist_green/trial6.png,,1,9,greenverival,p,mid,5f5e32a0d6a12c6857b8e127,25,male,2021-05-03_03h03.09.501,search_v5,2021.1.2,MacIntel,60.0024001,,,space,0.09525,0,72,72,38,1,,,,,,,,,,,,,,,
,,,,,,,,,,,,,,,,p,1,1.131915,,,,,,,,15_dist_green/trial18.png,,1,15,greenverival,p,hard,5f5e32a0d6a12c6857b8e127,25,male,2021-05-03_03h03.09.501,search_v5,2021.1.2,MacIntel,60.0024001,,,space,0.30392,0,73,73,73,1,,,,,,,,,,,,,,,
,,,,,,,,,,,,,,,,p,1,0.57238,,,,,,,,9_dist_green/trial20.png,,1,9,greenverival,p,mid,5f5e32a0d6a12c6857b8e127,25,male,2021-05-03_03h03.09.501,search_v5,2021.1.2,MacIntel,60.0024001,,,space,0.379625,0,74,74,52,1,,,,,,,,,,,,,,,
,,,,,,,,,,,,,,,,a,1,0.733005,,,,,,,,0_targ_10_dist_green/trial22.png,,0,10,greenverival,a,mid,5f5e32a0d6a12c6857b8e127,25,male,2021-05-03_03h03.09.501,search_v5,2021.1.2,MacIntel,60.0024001,,,space,0.285125,0,75,75,123,1,,,,,,,,,,,,,,,
,,,,,,,,,,,,,,,,a,1,0.532625,,,,,,,,0_targ_16_dist_green/trial4.png,,0,16,greenverival,a,hard,5f5e32a0d6a12c6857b8e127,25,male,2021-05-03_03h03.09.501,search_v5,2021.1.2,MacIntel,60.0024001,,,space,0.235375,0,76,76,128,1,,,,,,,,,,,,,,,
,,,,,,,,,,,,,,,,p,1,0.699415,,,,,,,,15_dist_green/trial15.png,,1,15,greenverival,p,hard,5f5e32a0d6a12c6857b8e127,25,male,2021-05-03_03h03.09.501,search_v5,2021.1.2,MacIntel,60.0024001,,,space,0.285205,0,77,77,70,1,,,,,,,,,,,,,,,
,,,,,,,,,,,,,,,,p,1,0.91571,,,,,,,,15_dist_green/trial3.png,,1,15,greenverival,p,hard,5f5e32a0d6a12c6857b8e127,25,male,2021-05-03_03h03.09.501,search_v5,2021.1.2,MacIntel,60.0024001,,,space,0.265875,0,78,78,58,1,,,,,,,,,,,,,,,
,,,,,,,,,,,,,,,,p,1,0.53058,,,,,,,,9_dist_green/trial8.png,,1,9,greenverival,p,mid,5f5e32a0d6a12c6857b8e127,25,male,2021-05-03_03h03.09.501,search_v5,2021.1.2,MacIntel,60.0024001,,,space,0.29946,0,79,79,40,1,,,,,,,,,,,,,,,
,,,,,,,,,,,,,,,,a,1,0.82054,,,,,,,,0_targ_4_dist_green/trial15.png,,0,4,greenverival,a,easy,5f5e32a0d6a12c6857b8e127,25,male,2021-05-03_03h03.09.501,search_v5,2021.1.2,MacIntel,60.0024001,,,space,0.350875,0,80,80,93,1,,,,,,,,,,,,,,,
,,,,,,,,,,,,,,,,p,1,0.849005,,,,,,,,15_dist_green/trial16.png,,1,15,greenverival,p,hard,5f5e32a0d6a12c6857b8e127,25,male,2021-05-03_03h03.09.501,search_v5,2021.1.2,MacIntel,60.0024001,,,space,0.2855,0,81,81,71,1,,,,,,,,,,,,,,,
,,,,,,,,,,,,,,,,p,1,0.56596,,,,,,,,9_dist_green/trial9.png,,1,9,greenverival,p,mid,5f5e32a0d6a12c6857b8e127,25,male,2021-05-03_03h03.09.501,search_v5,2021.1.2,MacIntel,60.0024001,,,space,0.271295,0,82,82,41,1,,,,,,,,,,,,,,,
,,,,,,,,,,,,,,,,p,1,0.59708,,,,,,,,9_dist_green/trial7.png,,1,9,greenverival,p,mid,5f5e32a0d6a12c6857b8e127,25,male,2021-05-03_03h03.09.501,search_v5,2021.1.2,MacIntel,60.0024001,,,space,0.272295,0,83,83,39,1,,,,,,,,,,,,,,,
,,,,,,,,,,,,,,,,a,1,0.698835,,,,,,,,0_targ_10_dist_green/trial23.png,,0,10,greenverival,a,mid,5f5e32a0d6a12c6857b8e127,25,male,2021-05-03_03h03.09.501,search_v5,2021.1.2,MacIntel,60.0024001,,,space,0.30171,0,84,84,124,1,,,,,,,,,,,,,,,
,,,,,,,,,,,,,,,,p,1,0.73175,,,,,,,,15_dist_green/trial2.png,,1,15,greenverival,p,hard,5f5e32a0d6a12c6857b8e127,25,male,2021-05-03_03h03.09.501,search_v5,2021.1.2,MacIntel,60.0024001,,,space,0.31729,0,85,85,5,1,,,,,,,,,,,,,,,
,,,,,,,,,,,,,,,,a,1,0.699165,,,,,,,,0_targ_4_dist_green/trial2.png,,0,4,greenverival,a,easy,5f5e32a0d6a12c6857b8e127,25,male,2021-05-03_03h03.09.501,search_v5,2021.1.2,MacIntel,60.0024001,,,space,0.33775,0,86,86,7,1,,,,,,,,,,,,,,,
,,,,,,,,,,,,,,,,a,1,0.61562,,,,,,,,0_targ_4_dist_green/trial24.png,,0,4,greenverival,a,easy,5f5e32a0d6a12c6857b8e127,25,male,2021-05-03_03h03.09.501,search_v5,2021.1.2,MacIntel,60.0024001,,,space,0.299875,0,87,87,102,1,,,,,,,,,,,,,,,
,,,,,,,,,,,,,,,,a,1,0.482205,,,,,,,,0_targ_4_dist_green/trial5.png,,0,4,greenverival,a,easy,5f5e32a0d6a12c6857b8e127,25,male,2021-05-03_03h03.09.501,search_v5,2021.1.2,MacIntel,60.0024001,,,space,0.275625,0,88,88,83,1,,,,,,,,,,,,,,,
,,,,,,,,,,,,,,,,p,1,0.600125,,,,,,,,3_dist_green/trial7.png,,1,3,greenverival,p,easy,5f5e32a0d6a12c6857b8e127,25,male,2021-05-03_03h03.09.501,search_v5,2021.1.2,MacIntel,60.0024001,,,space,0.302535,0,89,89,16,1,,,,,,,,,,,,,,,
,,,,,,,,,,,,,,,,a,1,0.947665,,,,,,,,0_targ_10_dist_green/trial21.png,,0,10,greenverival,a,mid,5f5e32a0d6a12c6857b8e127,25,male,2021-05-03_03h03.09.501,search_v5,2021.1.2,MacIntel,60.0024001,,,space,0.32154,0,90,90,122,1,,,,,,,,,,,,,,,
,,,,,,,,,,,,,,,,a,1,0.633165,,,,,,,,0_targ_16_dist_green/trial16.png,,0,16,greenverival,a,hard,5f5e32a0d6a12c6857b8e127,25,male,2021-05-03_03h03.09.501,search_v5,2021.1.2,MacIntel,60.0024001,,,space,0.29412,0,91,91,140,1,,,,,,,,,,,,,,,
,,,,,,,,,,,,,,,,a,1,0.581505,,,,,,,,0_targ_10_dist_green/trial18.png,,0,10,greenverival,a,mid,5f5e32a0d6a12c6857b8e127,25,male,2021-05-03_03h03.09.501,search_v5,2021.1.2,MacIntel,60.0024001,,,space,0.24163,0,92,92,119,1,,,,,,,,,,,,,,,
,,,,,,,,,,,,,,,,a,1,0.552745,,,,,,,,0_targ_4_dist_green/trial22.png,,0,4,greenverival,a,easy,5f5e32a0d6a12c6857b8e127,25,male,2021-05-03_03h03.09.501,search_v5,2021.1.2,MacIntel,60.0024001,,,space,0.333045,0,93,93,100,1,,,,,,,,,,,,,,,
,,,,,,,,,,,,,,,,p,1,0.698455,,,,,,,,15_dist_green/trial19.png,,1,15,greenverival,p,hard,5f5e32a0d6a12c6857b8e127,25,male,2021-05-03_03h03.09.501,search_v5,2021.1.2,MacIntel,60.0024001,,,space,0.268415,0,94,94,74,1,,,,,,,,,,,,,,,
,,,,,,,,,,,,,,,,p,1,0.54896,,,,,,,,3_dist_green/trial21.png,,1,3,greenverival,p,easy,5f5e32a0d6a12c6857b8e127,25,male,2021-05-03_03h03.09.501,search_v5,2021.1.2,MacIntel,60.0024001,,,space,0.30258,0,95,95,30,1,,,,,,,,,,,,,,,
,,,,,,,,,,,,,,,,p,1,0.573585,,,,,,,,9_dist_green/trial23.png,,1,9,greenverival,p,mid,5f5e32a0d6a12c6857b8e127,25,male,2021-05-03_03h03.09.501,search_v5,2021.1.2,MacIntel,60.0024001,,,space,0.283915,0,96,96,55,1,,,,,,,,,,,,,,,
,,,,,,,,,,,,,,,,a,1,0.733665,,,,,,,,0_targ_10_dist_green/trial8.png,,0,10,greenverival,a,mid,5f5e32a0d6a12c6857b8e127,25,male,2021-05-03_03h03.09.501,search_v5,2021.1.2,MacIntel,60.0024001,,,space,0.287415,0,97,97,109,1,,,,,,,,,,,,,,,
,,,,,,,,,,,,,,,,p,1,0.61875,,,,,,,,3_dist_green/trial18.png,,1,3,greenverival,p,easy,5f5e32a0d6a12c6857b8e127,25,male,2021-05-03_03h03.09.501,search_v5,2021.1.2,MacIntel,60.0024001,,,space,0.36808,0,98,98,27,1,,,,,,,,,,,,,,,
,,,,,,,,,,,,,,,,p,1,0.63675,,,,,,,,15_dist_green/trial21.png,,1,15,greenverival,p,hard,5f5e32a0d6a12c6857b8e127,25,male,2021-05-03_03h03.09.501,search_v5,2021.1.2,MacIntel,60.0024001,,,space,0.25242,0,99,99,76,1,,,,,,,,,,,,,,,
,,,,,,,,,,,,,,,,a,1,0.578545,,,,,,,,0_targ_4_dist_green/trial19.png,,0,4,greenverival,a,easy,5f5e32a0d6a12c6857b8e127,25,male,2021-05-03_03h03.09.501,search_v5,2021.1.2,MacIntel,60.0024001,,,space,0.23546,0,100,100,97,1,,,,,,,,,,,,,,,
,,,,,,,,,,,,,,,,a,1,0.700205,,,,,,,,0_targ_16_dist_green/trial2.png,,0,16,greenverival,a,hard,5f5e32a0d6a12c6857b8e127,25,male,2021-05-03_03h03.09.501,search_v5,2021.1.2,MacIntel,60.0024001,,,space,0.20221,0,101,101,11,1,,,,,,,,,,,,,,,
,,,,,,,,,,,,,,,,a,1,0.63167,,,,,,,,0_targ_4_dist_green/trial21.png,,0,4,greenverival,a,easy,5f5e32a0d6a12c6857b8e127,25,male,2021-05-03_03h03.09.501,search_v5,2021.1.2,MacIntel,60.0024001,,,space,0.22733,0,102,102,99,1,,,,,,,,,,,,,,,
,,,,,,,,,,,,,,,,a,1,0.590375,,,,,,,,0_targ_10_dist_green/trial11.png,,0,10,greenverival,a,mid,5f5e32a0d6a12c6857b8e127,25,male,2021-05-03_03h03.09.501,search_v5,2021.1.2,MacIntel,60.0024001,,,space,0.243875,0,103,103,112,1,,,,,,,,,,,,,,,
,,,,,,,,,,,,,,,,a,1,0.573415,,,,,,,,0_targ_16_dist_green/trial21.png,,0,16,greenverival,a,hard,5f5e32a0d6a12c6857b8e127,25,male,2021-05-03_03h03.09.501,search_v5,2021.1.2,MacIntel,60.0024001,,,space,0.236205,0,104,104,145,1,,,,,,,,,,,,,,,
,,,,,,,,,,,,,,,,p,1,0.665165,,,,,,,,9_dist_green/trial24.png,,1,9,greenverival,p,mid,5f5e32a0d6a12c6857b8e127,25,male,2021-05-03_03h03.09.501,search_v5,2021.1.2,MacIntel,60.0024001,,,space,0.240585,0,105,105,56,1,,,,,,,,,,,,,,,
,,,,,,,,,,,,,,,,p,1,0.57158,,,,,,,,15_dist_green/trial9.png,,1,15,greenverival,p,hard,5f5e32a0d6a12c6857b8e127,25,male,2021-05-03_03h03.09.501,search_v5,2021.1.2,MacIntel,60.0024001,,,space,0.318665,0,106,106,64,1,,,,,,,,,,,,,,,
,,,,,,,,,,,,,,,,a,1,0.754335,,,,,,,,0_targ_16_dist_green/trial6.png,,0,16,greenverival,a,hard,5f5e32a0d6a12c6857b8e127,25,male,2021-05-03_03h03.09.501,search_v5,2021.1.2,MacIntel,60.0024001,,,space,0.284915,0,107,107,130,1,,,,,,,,,,,,,,,
,,,,,,,,,,,,,,,,a,1,0.66517,,,,,,,,0_targ_4_dist_green/trial12.png,,0,4,greenverival,a,easy,5f5e32a0d6a12c6857b8e127,25,male,2021-05-03_03h03.09.501,search_v5,2021.1.2,MacIntel,60.0024001,,,space,0.21979,0,108,108,90,1,,,,,,,,,,,,,,,
,,,,,,,,,,,,,,,,p,1,0.61625,,,,,,,,3_dist_green/trial3.png,,1,3,greenverival,p,easy,5f5e32a0d6a12c6857b8e127,25,male,2021-05-03_03h03.09.501,search_v5,2021.1.2,MacIntel,60.0024001,,,space,0.270165,0,109,109,12,1,,,,,,,,,,,,,,,
,,,,,,,,,,,,,,,,p,1,0.61358,,,,,,,,15_dist_green/trial10.png,,1,15,greenverival,p,hard,5f5e32a0d6a12c6857b8e127,25,male,2021-05-03_03h03.09.501,search_v5,2021.1.2,MacIntel,60.0024001,,,space,0.203415,0,110,110,65,1,,,,,,,,,,,,,,,
,,,,,,,,,,,,,,,,p,1,0.48546,,,,,,,,3_dist_green/trial5.png,,1,3,greenverival,p,easy,5f5e32a0d6a12c6857b8e127,25,male,2021-05-03_03h03.09.501,search_v5,2021.1.2,MacIntel,60.0024001,,,space,0.243955,0,111,111,14,1,,,,,,,,,,,,,,,
,,,,,,,,,,,,,,,,a,1,0.76438,,,,,,,,0_targ_16_dist_green/trial10.png,,0,16,greenverival,a,hard,5f5e32a0d6a12c6857b8e127,25,male,2021-05-03_03h03.09.501,search_v5,2021.1.2,MacIntel,60.0024001,,,space,0.306,0,112,112,134,1,,,,,,,,,,,,,,,
,,,,,,,,,,,,,,,,p,1,0.61625,,,,,,,,3_dist_green/trial2.png,,1,3,greenverival,p,easy,5f5e32a0d6a12c6857b8e127,25,male,2021-05-03_03h03.09.501,search_v5,2021.1.2,MacIntel,60.0024001,,,space,0.261955,0,113,113,1,1,,,,,,,,,,,,,,,
,,,,,,,,,,,,,,,,a,1,0.784245,,,,,,,,0_targ_16_dist_green/trial22.png,,0,16,greenverival,a,hard,5f5e32a0d6a12c6857b8e127,25,male,2021-05-03_03h03.09.501,search_v5,2021.1.2,MacIntel,60.0024001,,,space,0.27013,0,114,114,146,1,,,,,,,,,,,,,,,
,,,,,,,,,,,,,,,,p,1,0.78263,,,,,,,,9_dist_green/trial2.png,,1,9,greenverival,p,mid,5f5e32a0d6a12c6857b8e127,25,male,2021-05-03_03h03.09.501,search_v5,2021.1.2,MacIntel,60.0024001,,,space,0.285415,0,115,115,3,1,,,,,,,,,,,,,,,
,,,,,,,,,,,,,,,,p,1,0.57458,,,,,,,,3_dist_green/trial12.png,,1,3,greenverival,p,easy,5f5e32a0d6a12c6857b8e127,25,male,2021-05-03_03h03.09.501,search_v5,2021.1.2,MacIntel,60.0024001,,,space,0.31796,0,116,116,21,1,,,,,,,,,,,,,,,
,,,,,,,,,,,,,,,,a,1,0.565585,,,,,,,,0_targ_4_dist_green/trial11.png,,0,4,greenverival,a,easy,5f5e32a0d6a12c6857b8e127,25,male,2021-05-03_03h03.09.501,search_v5,2021.1.2,MacIntel,60.0024001,,,space,0.287165,0,117,117,89,1,,,,,,,,,,,,,,,
,,,,,,,,,,,,,,,,a,1,0.648585,,,,,,,,0_targ_10_dist_green/trial2.png,,0,10,greenverival,a,mid,5f5e32a0d6a12c6857b8e127,25,male,2021-05-03_03h03.09.501,search_v5,2021.1.2,MacIntel,60.0024001,,,space,0.207505,0,118,118,9,1,,,,,,,,,,,,,,,
,,,,,,,,,,,,,,,,p,1,0.782045,,,,,,,,9_dist_green/trial18.png,,1,9,greenverival,p,mid,5f5e32a0d6a12c6857b8e127,25,male,2021-05-03_03h03.09.501,search_v5,2021.1.2,MacIntel,60.0024001,,,space,0.270955,0,119,119,50,1,,,,,,,,,,,,,,,
,,,,,,,,,,,,,,,,a,1,0.665545,,,,,,,,0_targ_16_dist_green/trial8.png,,0,16,greenverival,a,hard,5f5e32a0d6a12c6857b8e127,25,male,2021-05-03_03h03.09.501,search_v5,2021.1.2,MacIntel,60.0024001,,,space,0.272125,0,120,120,132,1,,,,,,,,,,,,,,,
,,,,,,,,,,,,,,,,p,1,0.64921,,,,,,,,9_dist_green/trial16.png,,1,9,greenverival,p,mid,5f5e32a0d6a12c6857b8e127,25,male,2021-05-03_03h03.09.501,search_v5,2021.1.2,MacIntel,60.0024001,,,space,0.303295,0,121,121,48,1,,,,,,,,,,,,,,,
,,,,,,,,,,,,,,,,a,1,0.5575,,,,,,,,0_targ_16_dist_green/trial23.png,,0,16,greenverival,a,hard,5f5e32a0d6a12c6857b8e127,25,male,2021-05-03_03h03.09.501,search_v5,2021.1.2,MacIntel,60.0024001,,,space,0.26867,0,122,122,147,1,,,,,,,,,,,,,,,
,,,,,,,,,,,,,,,,a,1,0.649625,,,,,,,,0_targ_10_dist_green/trial19.png,,0,10,greenverival,a,mid,5f5e32a0d6a12c6857b8e127,25,male,2021-05-03_03h03.09.501,search_v5,2021.1.2,MacIntel,60.0024001,,,space,0.238705,0,123,123,120,1,,,,,,,,,,,,,,,
,,,,,,,,,,,,,,,,a,1,0.683085,,,,,,,,0_targ_10_dist_green/trial12.png,,0,10,greenverival,a,mid,5f5e32a0d6a12c6857b8e127,25,male,2021-05-03_03h03.09.501,search_v5,2021.1.2,MacIntel,60.0024001,,,space,0.2515,0,124,124,113,1,,,,,,,,,,,,,,,
,,,,,,,,,,,,,,,,p,1,0.61525,,,,,,,,15_dist_green/trial13.png,,1,15,greenverival,p,hard,5f5e32a0d6a12c6857b8e127,25,male,2021-05-03_03h03.09.501,search_v5,2021.1.2,MacIntel,60.0024001,,,space,0.23042,0,125,125,68,1,,,,,,,,,,,,,,,
,,,,,,,,,,,,,,,,p,1,0.56679,,,,,,,,3_dist_green/trial8.png,,1,3,greenverival,p,easy,5f5e32a0d6a12c6857b8e127,25,male,2021-05-03_03h03.09.501,search_v5,2021.1.2,MacIntel,60.0024001,,,space,0.234625,0,126,126,17,1,,,,,,,,,,,,,,,
,,,,,,,,,,,,,,,,p,1,0.614745,,,,,,,,15_dist_green/trial25.png,,1,15,greenverival,p,hard,5f5e32a0d6a12c6857b8e127,25,male,2021-05-03_03h03.09.501,search_v5,2021.1.2,MacIntel,60.0024001,,,space,0.234125,0,127,127,80,1,,,,,,,,,,,,,,,
,,,,,,,,,,,,,,,,a,1,0.634,,,,,,,,0_targ_10_dist_green/trial6.png,,0,10,greenverival,a,mid,5f5e32a0d6a12c6857b8e127,25,male,2021-05-03_03h03.09.501,search_v5,2021.1.2,MacIntel,60.0024001,,,space,0.190215,0,128,128,107,1,,,,,,,,,,,,,,,
,,,,,,,,,,,,,,,,p,1,0.564,,,,,,,,3_dist_green/trial15.png,,1,3,greenverival,p,easy,5f5e32a0d6a12c6857b8e127,25,male,2021-05-03_03h03.09.501,search_v5,2021.1.2,MacIntel,60.0024001,,,space,0.25237,0,129,129,24,1,,,,,,,,,,,,,,,
,,,,,,,,,,,,,,,,a,1,0.499875,,,,,,,,0_targ_4_dist_green/trial6.png,,0,4,greenverival,a,easy,5f5e32a0d6a12c6857b8e127,25,male,2021-05-03_03h03.09.501,search_v5,2021.1.2,MacIntel,60.0024001,,,space,0.25058,0,130,130,94,1,,,,,,,,,,,,,,,
,,,,,,,,,,,,,,,,a,1,0.556955,,,,,,,,0_targ_4_dist_green/trial7.png,,0,4,greenverival,a,easy,5f5e32a0d6a12c6857b8e127,25,male,2021-05-03_03h03.09.501,search_v5,2021.1.2,MacIntel,60.0024001,,,space,0.193545,0,131,131,85,1,,,,,,,,,,,,,,,
,,,,,,,,,,,,,,,,a,1,0.54046,,,,,,,,0_targ_10_dist_green/trial14.png,,0,10,greenverival,a,mid,5f5e32a0d6a12c6857b8e127,25,male,2021-05-03_03h03.09.501,search_v5,2021.1.2,MacIntel,60.0024001,,,space,0.20783,0,132,132,115,1,,,,,,,,,,,,,,,
,,,,,,,,,,,,,,,,p,1,0.56904,,,,,,,,9_dist_green/trial14.png,,1,9,greenverival,p,mid,5f5e32a0d6a12c6857b8e127,25,male,2021-05-03_03h03.09.501,search_v5,2021.1.2,MacIntel,60.0024001,,,space,0.218125,0,133,133,46,1,,,,,,,,,,,,,,,
,,,,,,,,,,,,,,,,p,1,0.747625,,,,,,,,15_dist_green/trial11.png,,1,15,greenverival,p,hard,5f5e32a0d6a12c6857b8e127,25,male,2021-05-03_03h03.09.501,search_v5,2021.1.2,MacIntel,60.0024001,,,space,0.219915,0,134,134,66,1,,,,,,,,,,,,,,,
,,,,,,,,,,,,,,,,a,1,0.591165,,,,,,,,0_targ_4_dist_green/trial1.png,,0,4,greenverival,a,easy,5f5e32a0d6a12c6857b8e127,25,male,2021-05-03_03h03.09.501,search_v5,2021.1.2,MacIntel,60.0024001,,,space,0.138955,0,135,135,6,1,,,,,,,,,,,,,,,
,,,,,,,,,,,,,,,,p,1,0.59046,,,,,,,,3_dist_green/trial25.png,,1,3,greenverival,p,easy,5f5e32a0d6a12c6857b8e127,25,male,2021-05-03_03h03.09.501,search_v5,2021.1.2,MacIntel,60.0024001,,,space,0.270165,0,136,136,34,1,,,,,,,,,,,,,,,
,,,,,,,,,,,,,,,,a,1,0.564915,,,,,,,,0_targ_16_dist_green/trial14.png,,0,16,greenverival,a,hard,5f5e32a0d6a12c6857b8e127,25,male,2021-05-03_03h03.09.501,search_v5,2021.1.2,MacIntel,60.0024001,,,space,0.201835,0,137,137,138,1,,,,,,,,,,,,,,,
,,,,,,,,,,,,,,,,p,1,0.547875,,,,,,,,9_dist_green/trial19.png,,1,9,greenverival,p,mid,5f5e32a0d6a12c6857b8e127,25,male,2021-05-03_03h03.09.501,search_v5,2021.1.2,MacIntel,60.0024001,,,space,0.220745,0,138,138,51,1,,,,,,,,,,,,,,,
,,,,,,,,,,,,,,,,p,1,0.715415,,,,,,,,15_dist_green/trial8.png,,1,15,greenverival,p,hard,5f5e32a0d6a12c6857b8e127,25,male,2021-05-03_03h03.09.501,search_v5,2021.1.2,MacIntel,60.0024001,,,space,0.233705,0,139,139,63,1,,,,,,,,,,,,,,,
,,,,,,,,,,,,,,,,p,1,0.67475,,,,,,,,3_dist_green/trial10.png,,1,3,greenverival,p,easy,5f5e32a0d6a12c6857b8e127,25,male,2021-05-03_03h03.09.501,search_v5,2021.1.2,MacIntel,60.0024001,,,space,0.185665,0,140,140,19,1,,,,,,,,,,,,,,,
,,,,,,,,,,,,,,,,p,1,0.491,,,,,,,,3_dist_green/trial24.png,,1,3,greenverival,p,easy,5f5e32a0d6a12c6857b8e127,25,male,2021-05-03_03h03.09.501,search_v5,2021.1.2,MacIntel,60.0024001,,,space,0.351255,0,141,141,33,1,,,,,,,,,,,,,,,
,,,,,,,,,,,,,,,,a,1,0.614415,,,,,,,,0_targ_10_dist_green/trial3.png,,0,10,greenverival,a,mid,5f5e32a0d6a12c6857b8e127,25,male,2021-05-03_03h03.09.501,search_v5,2021.1.2,MacIntel,60.0024001,,,space,0.216545,0,142,142,104,1,,,,,,,,,,,,,,,
,,,,,,,,,,,,,,,,a,1,0.807625,,,,,,,,0_targ_16_dist_green/trial13.png,,0,16,greenverival,a,hard,5f5e32a0d6a12c6857b8e127,25,male,2021-05-03_03h03.09.501,search_v5,2021.1.2,MacIntel,60.0024001,,,space,0.21854,0,143,143,137,1,,,,,,,,,,,,,,,
,,,,,,,,,,,,,,,,a,1,0.54775,,,,,,,,0_targ_16_dist_green/trial24.png,,0,16,greenverival,a,hard,5f5e32a0d6a12c6857b8e127,25,male,2021-05-03_03h03.09.501,search_v5,2021.1.2,MacIntel,60.0024001,,,space,0.23688,0,144,144,148,1,,,,,,,,,,,,,,,
,,,,,,,,,,,,,,,,a,1,0.582205,,,,,,,,0_targ_10_dist_green/trial9.png,,0,10,greenverival,a,mid,5f5e32a0d6a12c6857b8e127,25,male,2021-05-03_03h03.09.501,search_v5,2021.1.2,MacIntel,60.0024001,,,space,0.219085,0,145,145,110,1,,,,,,,,,,,,,,,
,,,,,,,,,,,,,,,,p,1,0.549375,,,,,,,,3_dist_green/trial20.png,,1,3,greenverival,p,easy,5f5e32a0d6a12c6857b8e127,25,male,2021-05-03_03h03.09.501,search_v5,2021.1.2,MacIntel,60.0024001,,,space,0.256915,0,146,146,29,1,,,,,,,,,,,,,,,
,,,,,,,,,,,,,,,,a,1,0.63396,,,,,,,,0_targ_16_dist_green/trial18.png,,0,16,greenverival,a,hard,5f5e32a0d6a12c6857b8e127,25,male,2021-05-03_03h03.09.501,search_v5,2021.1.2,MacIntel,60.0024001,,,space,0.227835,0,147,147,142,1,,,,,,,,,,,,,,,
,,,,,,,,,,,,,,,,a,1,0.61592,,,,,,,,0_targ_4_dist_green/trial20.png,,0,4,greenverival,a,easy,5f5e32a0d6a12c6857b8e127,25,male,2021-05-03_03h03.09.501,search_v5,2021.1.2,MacIntel,60.0024001,,,space,0.250705,0,148,148,98,1,,,,,,,,,,,,,,,
,,,,,,,,,,,,,,,,p,1,0.57175,,,,,,,,3_dist_green/trial6.png,,1,3,greenverival,p,easy,5f5e32a0d6a12c6857b8e127,25,male,2021-05-03_03h03.09.501,search_v5,2021.1.2,MacIntel,60.0024001,,,space,0.257125,0,149,149,15,1,,,,,,,,,,,,,,,
,,,,,,,,,,,,,,,,,,,,,,,,,,,,,,,,,5f5e32a0d6a12c6857b8e127,25,male,2021-05-03_03h03.09.501,search_v5,2021.1.2,MacIntel,60.0024001,,,,,,,,,,0,0,0,0,1,conGreen.xlsx,green vertical,Look for green vertical bar (target) and indicate if it is present or absent in the array. If green vertical target is present press 'p' and if absent press 'a'. Press SPACE to start.,green_bar_example.jpg,,,,egGreen.xlsx,,
,,,,,,,,,,,,space,37.094795,space,7.772665,a,0,0.979045,space,2.269,0,0,0,10,1,line_mid_TP/9_2_1.1424_none_right_col_20_row_1.jpg,,1,,line,p,mid,5f5e32a0d6a12c6857b8e127,25,male,2021-05-03_03h03.09.501,search_v5,2021.1.2,MacIntel,60.0024001,,,,,,,,,,,,,,,,,,,,,,,,
,,,,,,,,,,,,,,,,p,1,1.58979,space,0.687165,0,1,1,7,1,line_hard_TP/11_4_2.0944_none_right_col_18_row_11.jpg,,1,,line,p,hard,5f5e32a0d6a12c6857b8e127,25,male,2021-05-03_03h03.09.501,search_v5,2021.1.2,MacIntel,60.0024001,,,,,,,,,,,,,,,,,,,,,,,,
,,,,,,,,,,,,,,,,p,1,0.86633,space,0.41729,0,2,2,2,1,line_easy_TP/10_2_0.5236_all_right_col_18_row_7.jpg,,1,,line,p,easy,5f5e32a0d6a12c6857b8e127,25,male,2021-05-03_03h03.09.501,search_v5,2021.1.2,MacIntel,60.0024001,,,,,,,,,,,,,,,,,,,,,,,,
,,,,,,,,,,,,,,,,p,0,1.706705,space,0.7955,0,3,3,4,1,line_hard_TA/10_4_NaN_none_absent.jpg,,0,,line,a,hard,5f5e32a0d6a12c6857b8e127,25,male,2021-05-03_03h03.09.501,search_v5,2021.1.2,MacIntel,60.0024001,,,,,,,,,,,,,,,,,,,,,,,,
,,,,,,,,,,,,,,,,a,1,3.52492,space,0.490375,0,4,4,5,1,line_hard_TA/11_3_NaN_none_absent.jpg,,0,,line,a,hard,5f5e32a0d6a12c6857b8e127,25,male,2021-05-03_03h03.09.501,search_v5,2021.1.2,MacIntel,60.0024001,,,,,,,,,,,,,,,,,,,,,,,,
,,,,,,,,,,,,,,,,a,1,2.306625,space,0.74204,0,5,5,8,1,line_mid_TA/10_1_NaN_none_absent.jpg,,0,,line,a,mid,5f5e32a0d6a12c6857b8e127,25,male,2021-05-03_03h03.09.501,search_v5,2021.1.2,MacIntel,60.0024001,,,,,,,,,,,,,,,,,,,,,,,,
,,,,,,,,,,,,,,,,p,1,0.87958,space,0.33546,0,6,6,3,1,line_easy_TP/11_2_0.5236_all_right_col_14_row_9.jpg,,1,,line,p,easy,5f5e32a0d6a12c6857b8e127,25,male,2021-05-03_03h03.09.501,search_v5,2021.1.2,MacIntel,60.0024001,,,,,,,,,,,,,,,,,,,,,,,,
,,,,,,,,,,,,,,,,a,0,2.658455,space,0.968875,0,7,7,11,1,line_mid_TP/9_3_1.1424_none_left_col_10_row_8.jpg,,1,,line,p,mid,5f5e32a0d6a12c6857b8e127,25,male,2021-05-03_03h03.09.501,search_v5,2021.1.2,MacIntel,60.0024001,,,,,,,,,,,,,,,,,,,,,,,,
,,,,,,,,,,,,,,,,a,1,4.350295,space,0.505335,0,8,8,9,1,line_mid_TA/10_2_NaN_none_absent.jpg,,0,,line,a,mid,5f5e32a0d6a12c6857b8e127,25,male,2021-05-03_03h03.09.501,search_v5,2021.1.2,MacIntel,60.0024001,,,,,,,,,,,,,,,,,,,,,,,,
,,,,,,,,,,,,,,,,a,0,3.948335,space,0.801795,0,9,9,6,1,line_hard_TP/10_1_2.0944_none_left_col_10_row_11.jpg,,1,,line,p,hard,5f5e32a0d6a12c6857b8e127,25,male,2021-05-03_03h03.09.501,search_v5,2021.1.2,MacIntel,60.0024001,,,,,,,,,,,,,,,,,,,,,,,,
,,,,,,,,,,,,,,,,a,1,3.39113,space,0.525915,0,10,10,1,1,line_easy_TA/11_1_NaN_all_absent.jpg,,0,,line,a,easy,5f5e32a0d6a12c6857b8e127,25,male,2021-05-03_03h03.09.501,search_v5,2021.1.2,MacIntel,60.0024001,,,,,,,,,,,,,,,,,,,,,,,,
,,,,,,,,,,,,,,,,a,1,2.714085,space,0.56879,0,11,11,0,1,line_easy_TA/10_3_NaN_all_absent.jpg,,0,,line,a,easy,5f5e32a0d6a12c6857b8e127,25,male,2021-05-03_03h03.09.501,search_v5,2021.1.2,MacIntel,60.0024001,,,,,,,,,,,,,,,,,,,,,,,,
,,,,,,,,,,,,,,,,a,1,1.59246,,,,,,,,line_easy_TA/4_3_NaN_all_absent.jpg,,0,,line,a,easy,5f5e32a0d6a12c6857b8e127,25,male,2021-05-03_03h03.09.501,search_v5,2021.1.2,MacIntel,60.0024001,space,4.808665,space,0.523875,0,0,0,28,1,,,,,,,,,,,,,,,
,,,,,,,,,,,,,,,,p,1,0.874835,,,,,,,,line_easy_TP/12_1_0.5236_all_right_col_15_row_4.jpg,,1,,line,p,easy,5f5e32a0d6a12c6857b8e127,25,male,2021-05-03_03h03.09.501,search_v5,2021.1.2,MacIntel,60.0024001,,,space,0.367205,0,1,1,35,1,,,,,,,,,,,,,,,
,,,,,,,,,,,,,,,,a,1,1.475415,,,,,,,,line_easy_TA/1_2_NaN_all_absent.jpg,,0,,line,a,easy,5f5e32a0d6a12c6857b8e127,25,male,2021-05-03_03h03.09.501,search_v5,2021.1.2,MacIntel,60.0024001,,,space,0.391415,0,2,2,19,1,,,,,,,,,,,,,,,
,,,,,,,,,,,,,,,,p,1,0.99975,,,,,,,,line_easy_TP/13_4_0.5236_all_right_col_13_row_13.jpg,,1,,line,p,easy,5f5e32a0d6a12c6857b8e127,25,male,2021-05-03_03h03.09.501,search_v5,2021.1.2,MacIntel,60.0024001,,,space,0.52321,0,3,3,37,1,,,,,,,,,,,,,,,
,,,,,,,,,,,,,,,,a,1,3.07425,,,,,,,,line_hard_TA/20_1_NaN_none_absent.jpg,,0,,line,a,hard,5f5e32a0d6a12c6857b8e127,25,male,2021-05-03_03h03.09.501,search_v5,2021.1.2,MacIntel,60.0024001,,,space,0.484755,0,4,4,68,1,,,,,,,,,,,,,,,
,,,,,,,,,,,,,,,,a,1,2.842795,,,,,,,,line_mid_TA/3_3_NaN_all_absent.jpg,,0,,line,a,mid,5f5e32a0d6a12c6857b8e127,25,male,2021-05-03_03h03.09.501,search_v5,2021.1.2,MacIntel,60.0024001,,,space,0.65158,0,5,5,115,1,,,,,,,,,,,,,,,
,,,,,,,,,,,,,,,,a,1,4.07246,,,,,,,,line_hard_TA/15_1_NaN_none_absent.jpg,,0,,line,a,hard,5f5e32a0d6a12c6857b8e127,25,male,2021-05-03_03h03.09.501,search_v5,2021.1.2,MacIntel,60.0024001,,,space,0.41867,0,6,6,61,1,,,,,,,,,,,,,,,
,,,,,,,,,,,,,,,,a,1,3.539705,,,,,,,,line_mid_TA/5_4_NaN_none_absent.jpg,,0,,line,a,mid,5f5e32a0d6a12c6857b8e127,25,male,2021-05-03_03h03.09.501,search_v5,2021.1.2,MacIntel,60.0024001,,,space,0.41742,0,7,7,120,1,,,,,,,,,,,,,,,
,,,,,,,,,,,,,,,,a,0,4.815745,,,,,,,,line_hard_TP/5_0_2.0944_none_right_col_17_row_1.jpg,,1,,line,p,hard,5f5e32a0d6a12c6857b8e127,25,male,2021-05-03_03h03.09.501,search_v5,2021.1.2,MacIntel,60.0024001,,,space,1.351585,0,8,8,97,1,,,,,,,,,,,,,,,
,,,,,,,,,,,,,,,,p,1,0.87421,,,,,,,,line_easy_TP/22_2_0.5236_all_left_col_10_row_14.jpg,,1,,line,p,easy,5f5e32a0d6a12c6857b8e127,25,male,2021-05-03_03h03.09.501,search_v5,2021.1.2,MacIntel,60.0024001,,,space,0.352295,0,9,9,46,1,,,,,,,,,,,,,,,
,,,,,,,,,,,,,,,,p,1,0.65829,,,,,,,,line_easy_TP/6_4_0.5236_all_right_col_18_row_7.jpg,,1,,line,p,easy,5f5e32a0d6a12c6857b8e127,25,male,2021-05-03_03h03.09.501,search_v5,2021.1.2,MacIntel,60.0024001,,,space,0.26841,0,10,10,52,1,,,,,,,,,,,,,,,
,,,,,,,,,,,,,,,,a,1,1.609005,,,,,,,,line_easy_TA/3_0_NaN_all_absent.jpg,,0,,line,a,easy,5f5e32a0d6a12c6857b8e127,25,male,2021-05-03_03h03.09.501,search_v5,2021.1.2,MacIntel,60.0024001,,,space,0.301665,0,11,11,25,1,,,,,,,,,,,,,,,
,,,,,,,,,,,,,,,,a,1,1.683205,,,,,,,,line_easy_TA/9_1_NaN_all_absent.jpg,,0,,line,a,easy,5f5e32a0d6a12c6857b8e127,25,male,2021-05-03_03h03.09.501,search_v5,2021.1.2,MacIntel,60.0024001,,,space,0.62475,0,12,12,34,1,,,,,,,,,,,,,,,
,,,,,,,,,,,,,,,,a,1,5.07779,,,,,,,,line_mid_TA/11_4_NaN_all_absent.jpg,,0,,line,a,mid,5f5e32a0d6a12c6857b8e127,25,male,2021-05-03_03h03.09.501,search_v5,2021.1.2,MacIntel,60.0024001,,,space,0.50304,0,13,13,108,1,,,,,,,,,,,,,,,
,,,,,,,,,,,,,,,,a,1,3.54346,,,,,,,,line_mid_TA/1_3_NaN_all_absent.jpg,,0,,line,a,mid,5f5e32a0d6a12c6857b8e127,25,male,2021-05-03_03h03.09.501,search_v5,2021.1.2,MacIntel,60.0024001,,,space,0.443,0,14,14,111,1,,,,,,,,,,,,,,,
,,,,,,,,,,,,,,,,a,1,3.77483,,,,,,,,line_mid_TA/11_2_NaN_all_absent.jpg,,0,,line,a,mid,5f5e32a0d6a12c6857b8e127,25,male,2021-05-03_03h03.09.501,search_v5,2021.1.2,MacIntel,60.0024001,,,space,0.79313,0,15,15,106,1,,,,,,,,,,,,,,,
,,,,,,,,,,,,,,,,a,0,5.175585,,,,,,,,line_hard_TP/6_2_2.0944_none_left_col_10_row_2.jpg,,1,,line,p,hard,5f5e32a0d6a12c6857b8e127,25,male,2021-05-03_03h03.09.501,search_v5,2021.1.2,MacIntel,60.0024001,,,space,1.054545,0,16,16,99,1,,,,,,,,,,,,,,,
,,,,,,,,,,,,,,,,p,1,0.86083,,,,,,,,line_mid_TP/5_2_1.1424_none_right_col_17_row_9.jpg,,1,,line,p,mid,5f5e32a0d6a12c6857b8e127,25,male,2021-05-03_03h03.09.501,search_v5,2021.1.2,MacIntel,60.0024001,,,space,0.28754,0,17,17,140,1,,,,,,,,,,,,,,,
,,,,,,,,,,,,,,,,a,1,1.380375,,,,,,,,line_easy_TA/23_4_NaN_all_absent.jpg,,0,,line,a,easy,5f5e32a0d6a12c6857b8e127,25,male,2021-05-03_03h03.09.501,search_v5,2021.1.2,MacIntel,60.0024001,,,space,0.37075,0,18,18,22,1,,,,,,,,,,,,,,,
,,,,,,,,,,,,,,,,p,1,0.859045,,,,,,,,line_easy_TP/5_1_0.5236_all_left_col_5_row_3.jpg,,1,,line,p,easy,5f5e32a0d6a12c6857b8e127,25,male,2021-05-03_03h03.09.501,search_v5,2021.1.2,MacIntel,60.0024001,,,space,0.30821,0,19,19,50,1,,,,,,,,,,,,,,,
,,,,,,,,,,,,,,,,a,0,6.666005,,,,,,,,line_mid_TP/1_0_1.7453_all_right_col_13_row_9.jpg,,1,,line,p,mid,5f5e32a0d6a12c6857b8e127,25,male,2021-05-03_03h03.09.501,search_v5,2021.1.2,MacIntel,60.0024001,,,space,1.702995,0,20,20,127,1,,,,,,,,,,,,,,,
,,,,,,,,,,,,,,,,a,1,6.298085,,,,,,,,line_hard_TA/24_3_NaN_none_absent.jpg,,0,,line,a,hard,5f5e32a0d6a12c6857b8e127,25,male,2021-05-03_03h03.09.501,search_v5,2021.1.2,MacIntel,60.0024001,,,space,0.548455,0,21,21,75,1,,,,,,,,,,,,,,,
,,,,,,,,,,,,,,,,a,0,7.295335,,,,,,,,line_hard_TP/10_1_2.0944_none_left_col_10_row_11.jpg,,1,,line,p,hard,5f5e32a0d6a12c6857b8e127,25,male,2021-05-03_03h03.09.501,search_v5,2021.1.2,MacIntel,60.0024001,,,space,1.868455,0,22,22,6,1,,,,,,,,,,,,,,,
,,,,,,,,,,,,,,,,a,1,3.136375,,,,,,,,line_mid_TA/4_0_NaN_none_absent.jpg,,0,,line,a,mid,5f5e32a0d6a12c6857b8e127,25,male,2021-05-03_03h03.09.501,search_v5,2021.1.2,MacIntel,60.0024001,,,space,0.58304,0,23,23,117,1,,,,,,,,,,,,,,,
,,,,,,,,,,,,,,,,p,1,2.27704,,,,,,,,line_hard_TP/20_4_2.0944_none_left_col_9_row_16.jpg,,1,,line,p,hard,5f5e32a0d6a12c6857b8e127,25,male,2021-05-03_03h03.09.501,search_v5,2021.1.2,MacIntel,60.0024001,,,space,0.335665,0,24,24,91,1,,,,,,,,,,,,,,,
,,,,,,,,,,,,,,,,a,1,1.850165,,,,,,,,line_easy_TA/2_3_NaN_all_absent.jpg,,0,,line,a,easy,5f5e32a0d6a12c6857b8e127,25,male,2021-05-03_03h03.09.501,search_v5,2021.1.2,MacIntel,60.0024001,,,space,0.392295,0,25,25,23,1,,,,,,,,,,,,,,,
,,,,,,,,,,,,,,,,p,1,3.812705,,,,,,,,line_mid_TP/4_3_1.7453_all_left_col_9_row_4.jpg,,1,,line,p,mid,5f5e32a0d6a12c6857b8e127,25,male,2021-05-03_03h03.09.501,search_v5,2021.1.2,MacIntel,60.0024001,,,space,0.38392,0,26,26,136,1,,,,,,,,,,,,,,,
,,,,,,,,,,,,,,,,p,1,1.172795,,,,,,,,line_mid_TP/1_1_1.1424_none_right_col_21_row_2.jpg,,1,,line,p,mid,5f5e32a0d6a12c6857b8e127,25,male,2021-05-03_03h03.09.501,search_v5,2021.1.2,MacIntel,60.0024001,,,space,0.339165,0,27,27,128,1,,,,,,,,,,,,,,,
,,,,,,,,,,,,,,,,p,1,0.81175,,,,,,,,line_easy_TP/13_3_0.5236_all_left_col_4_row_12.jpg,,1,,line,p,easy,5f5e32a0d6a12c6857b8e127,25,male,2021-05-03_03h03.09.501,search_v5,2021.1.2,MacIntel,60.0024001,,,space,0.28458,0,28,28,36,1,,,,,,,,,,,,,,,
,,,,,,,,,,,,,,,,p,0,2.06792,,,,,,,,line_hard_TA/6_1_NaN_none_absent.jpg,,0,,line,a,hard,5f5e32a0d6a12c6857b8e127,25,male,2021-05-03_03h03.09.501,search_v5,2021.1.2,MacIntel,60.0024001,,,space,0.574875,0,29,29,80,1,,,,,,,,,,,,,,,
,,,,,,,,,,,,,,,,a,0,1.192875,,,,,,,,line_hard_TP/17_3_2.0944_none_right_col_17_row_12.jpg,,1,,line,p,hard,5f5e32a0d6a12c6857b8e127,25,male,2021-05-03_03h03.09.501,search_v5,2021.1.2,MacIntel,60.0024001,,,space,1.919165,0,30,30,86,1,,,,,,,,,,,,,,,
,,,,,,,,,,,,,,,,p,1,0.999125,,,,,,,,line_mid_TP/2_3_1.1424_none_right_col_21_row_15.jpg,,1,,line,p,mid,5f5e32a0d6a12c6857b8e127,25,male,2021-05-03_03h03.09.501,search_v5,2021.1.2,MacIntel,60.0024001,,,space,0.45063,0,31,31,132,1,,,,,,,,,,,,,,,
,,,,,,,,,,,,,,,,p,1,6.27888,,,,,,,,line_hard_TP/6_0_2.0944_none_right_col_18_row_7.jpg,,1,,line,p,hard,5f5e32a0d6a12c6857b8e127,25,male,2021-05-03_03h03.09.501,search_v5,2021.1.2,MacIntel,60.0024001,,,space,0.570375,0,32,32,98,1,,,,,,,,,,,,,,,
,,,,,,,,,,,,,,,,p,1,1.341045,,,,,,,,line_mid_TP/9_2_1.1424_none_right_col_20_row_1.jpg,,1,,line,p,mid,5f5e32a0d6a12c6857b8e127,25,male,2021-05-03_03h03.09.501,search_v5,2021.1.2,MacIntel,60.0024001,,,space,0.503915,0,33,33,10,1,,,,,,,,,,,,,,,
,,,,,,,,,,,,,,,,a,1,5.85904,,,,,,,,line_mid_TA/3_2_NaN_none_absent.jpg,,0,,line,a,mid,5f5e32a0d6a12c6857b8e127,25,male,2021-05-03_03h03.09.501,search_v5,2021.1.2,MacIntel,60.0024001,,,space,0.467915,0,34,34,114,1,,,,,,,,,,,,,,,
,,,,,,,,,,,,,,,,p,1,1.611665,,,,,,,,line_mid_TP/7_4_1.7453_all_right_col_17_row_6.jpg,,1,,line,p,mid,5f5e32a0d6a12c6857b8e127,25,male,2021-05-03_03h03.09.501,search_v5,2021.1.2,MacIntel,60.0024001,,,space,0.37763,0,35,35,147,1,,,,,,,,,,,,,,,
,,,,,,,,,,,,,,,,p,1,0.726995,,,,,,,,line_easy_TP/10_2_0.5236_all_right_col_18_row_7.jpg,,1,,line,p,easy,5f5e32a0d6a12c6857b8e127,25,male,2021-05-03_03h03.09.501,search_v5,2021.1.2,MacIntel,60.0024001,,,space,0.302125,0,36,36,2,1,,,,,,,,,,,,,,,
,,,,,,,,,,,,,,,,p,1,5.342,,,,,,,,line_hard_TP/14_3_2.0944_none_right_col_19_row_11.jpg,,1,,line,p,hard,5f5e32a0d6a12c6857b8e127,25,male,2021-05-03_03h03.09.501,search_v5,2021.1.2,MacIntel,60.0024001,,,space,0.50204,0,37,37,84,1,,,,,,,,,,,,,,,
,,,,,,,,,,,,,,,,p,1,4.36496,,,,,,,,line_hard_TP/21_3_2.0944_none_right_col_15_row_13.jpg,,1,,line,p,hard,5f5e32a0d6a12c6857b8e127,25,male,2021-05-03_03h03.09.501,search_v5,2021.1.2,MacIntel,60.0024001,,,space,0.508705,0,38,38,92,1,,,,,,,,,,,,,,,
,,,,,,,,,,,,,,,,p,1,3.04942,,,,,,,,line_hard_TP/2_1_2.0944_none_right_col_16_row_14.jpg,,1,,line,p,hard,5f5e32a0d6a12c6857b8e127,25,male,2021-05-03_03h03.09.501,search_v5,2021.1.2,MacIntel,60.0024001,,,space,0.722545,0,39,39,95,1,,,,,,,,,,,,,,,
,,,,,,,,,,,,,,,,p,0,5.441705,,,,,,,,line_hard_TA/4_2_NaN_none_absent.jpg,,0,,line,a,hard,5f5e32a0d6a12c6857b8e127,25,male,2021-05-03_03h03.09.501,search_v5,2021.1.2,MacIntel,60.0024001,,,space,0.36446,0,40,40,78,1,,,,,,,,,,,,,,,
,,,,,,,,,,,,,,,,a,0,10.92521,,,,,,,,line_mid_TP/2_0_1.7453_all_left_col_8_row_12.jpg,,1,,line,p,mid,5f5e32a0d6a12c6857b8e127,25,male,2021-05-03_03h03.09.501,search_v5,2021.1.2,MacIntel,60.0024001,,,space,0.101,0,41,41,130,1,,,,,,,,,,,,,,,
,,,,,,,,,,,,,,,,p,1,8.4175,,,,,,,,line_hard_TP/11_4_2.0944_none_right_col_18_row_11.jpg,,1,,line,p,hard,5f5e32a0d6a12c6857b8e127,25,male,2021-05-03_03h03.09.501,search_v5,2021.1.2,MacIntel,60.0024001,,,space,0.49975,0,42,42,7,1,,,,,,,,,,,,,,,
,,,,,,,,,,,,,,,,p,1,1.427835,,,,,,,,line_easy_TP/1_0_0.5236_all_left_col_2_row_16.jpg,,1,,line,p,easy,5f5e32a0d6a12c6857b8e127,25,male,2021-05-03_03h03.09.501,search_v5,2021.1.2,MacIntel,60.0024001,,,space,0.45063,0,43,43,43,1,,,,,,,,,,,,,,,
,,,,,,,,,,,,,,,,a,1,2.384535,,,,,,,,line_easy_TA/3_4_NaN_all_absent.jpg,,0,,line,a,easy,5f5e32a0d6a12c6857b8e127,25,male,2021-05-03_03h03.09.501,search_v5,2021.1.2,MacIntel,60.0024001,,,space,0.36675,0,44,44,27,1,,,,,,,,,,,,,,,
,,,,,,,,,,,,,,,,p,0,4.11004,,,,,,,,line_hard_TA/22_4_NaN_none_absent.jpg,,0,,line,a,hard,5f5e32a0d6a12c6857b8e127,25,male,2021-05-03_03h03.09.501,search_v5,2021.1.2,MacIntel,60.0024001,,,space,0.068415,0,45,45,72,1,,,,,,,,,,,,,,,
,,,,,,,,,,,,,,,,p,1,0.889215,,,,,,,,line_easy_TP/2_0_0.5236_all_right_col_16_row_4.jpg,,1,,line,p,easy,5f5e32a0d6a12c6857b8e127,25,male,2021-05-03_03h03.09.501,search_v5,2021.1.2,MacIntel,60.0024001,,,space,0.316005,0,46,46,47,1,,,,,,,,,,,,,,,
,,,,,,,,,,,,,,,,p,1,11.160585,,,,,,,,line_hard_TP/18_4_2.0944_none_left_col_4_row_9.jpg,,1,,line,p,hard,5f5e32a0d6a12c6857b8e127,25,male,2021-05-03_03h03.09.501,search_v5,2021.1.2,MacIntel,60.0024001,,,space,1.78929,0,47,47,88,1,,,,,,,,,,,,,,,
,,,,,,,,,,,,,,,,a,0,10.2245,,,,,,,,line_mid_TP/6_4_1.7453_all_left_col_6_row_5.jpg,,1,,line,p,mid,5f5e32a0d6a12c6857b8e127,25,male,2021-05-03_03h03.09.501,search_v5,2021.1.2,MacIntel,60.0024001,,,space,0.16017,0,48,48,144,1,,,,,,,,,,,,,,,
,,,,,,,,,,,,,,,,a,1,1.53842,,,,,,,,line_easy_TA/16_1_NaN_all_absent.jpg,,0,,line,a,easy,5f5e32a0d6a12c6857b8e127,25,male,2021-05-03_03h03.09.501,search_v5,2021.1.2,MacIntel,60.0024001,,,space,0.35887,0,49,49,14,1,,,,,,,,,,,,,,,
,,,,,,,,,,,,,,,,a,1,4.30096,,,,,,,,line_mid_TA/10_1_NaN_none_absent.jpg,,0,,line,a,mid,5f5e32a0d6a12c6857b8e127,25,male,2021-05-03_03h03.09.501,search_v5,2021.1.2,MacIntel,60.0024001,,,space,0.418625,0,50,50,8,1,,,,,,,,,,,,,,,
,,,,,,,,,,,,,,,,p,0,2.048625,,,,,,,,line_hard_TA/15_3_NaN_none_absent.jpg,,0,,line,a,hard,5f5e32a0d6a12c6857b8e127,25,male,2021-05-03_03h03.09.501,search_v5,2021.1.2,MacIntel,60.0024001,,,space,0.151795,0,51,51,62,1,,,,,,,,,,,,,,,
,,,,,,,,,,,,,,,,a,1,1.530335,,,,,,,,line_easy_TA/21_1_NaN_all_absent.jpg,,0,,line,a,easy,5f5e32a0d6a12c6857b8e127,25,male,2021-05-03_03h03.09.501,search_v5,2021.1.2,MacIntel,60.0024001,,,space,0.34275,0,52,52,20,1,,,,,,,,,,,,,,,
,,,,,,,,,,,,,,,,a,1,3.89183,,,,,,,,line_mid_TA/5_3_NaN_none_absent.jpg,,0,,line,a,mid,5f5e32a0d6a12c6857b8e127,25,male,2021-05-03_03h03.09.501,search_v5,2021.1.2,MacIntel,60.0024001,,,space,0.46754,0,53,53,119,1,,,,,,,,,,,,,,,
,,,,,,,,,,,,,,,,a,0,8.59433,,,,,,,,line_hard_TP/8_3_2.0944_none_left_col_8_row_2.jpg,,1,,line,p,hard,5f5e32a0d6a12c6857b8e127,25,male,2021-05-03_03h03.09.501,search_v5,2021.1.2,MacIntel,60.0024001,,,space,0.044415,0,54,54,101,1,,,,,,,,,,,,,,,
,,,,,,,,,,,,,,,,a,1,10.9405,,,,,,,,line_hard_TA/22_1_NaN_none_absent.jpg,,0,,line,a,hard,5f5e32a0d6a12c6857b8e127,25,male,2021-05-03_03h03.09.501,search_v5,2021.1.2,MacIntel,60.0024001,,,space,0.601875,0,55,55,70,1,,,,,,,,,,,,,,,
,,,,,,,,,,,,,,,,a,1,8.66658,,,,,,,,line_mid_TA/3_4_NaN_none_absent.jpg,,0,,line,a,mid,5f5e32a0d6a12c6857b8e127,25,male,2021-05-03_03h03.09.501,search_v5,2021.1.2,MacIntel,60.0024001,,,space,0.48071,0,56,56,116,1,,,,,,,,,,,,,,,
,,,,,,,,,,,,,,,,a,1,10.53196,,,,,,,,line_mid_TA/4_2_NaN_all_absent.jpg,,0,,line,a,mid,5f5e32a0d6a12c6857b8e127,25,male,2021-05-03_03h03.09.501,search_v5,2021.1.2,MacIntel,60.0024001,,,space,0.551415,0,57,57,118,1,,,,,,,,,,,,,,,
,,,,,,,,,,,,,,,,a,1,2.123165,,,,,,,,line_easy_TA/15_2_NaN_all_absent.jpg,,0,,line,a,easy,5f5e32a0d6a12c6857b8e127,25,male,2021-05-03_03h03.09.501,search_v5,2021.1.2,MacIntel,60.0024001,,,space,0.45817,0,58,58,13,1,,,,,,,,,,,,,,,
,,,,,,,,,,,,,,,,a,0,5.91708,,,,,,,,line_hard_TP/19_4_2.0944_none_right_col_16_row_3.jpg,,1,,line,p,hard,5f5e32a0d6a12c6857b8e127,25,male,2021-05-03_03h03.09.501,search_v5,2021.1.2,MacIntel,60.0024001,,,space,0.84267,0,59,59,89,1,,,,,,,,,,,,,,,
,,,,,,,,,,,,,,,,a,1,4.0755,,,,,,,,line_mid_TA/10_2_NaN_none_absent.jpg,,0,,line,a,mid,5f5e32a0d6a12c6857b8e127,25,male,2021-05-03_03h03.09.501,search_v5,2021.1.2,MacIntel,60.0024001,,,space,0.44829,0,60,60,9,1,,,,,,,,,,,,,,,
,,,,,,,,,,,,,,,,p,1,1.24021,,,,,,,,line_mid_TP/6_2_1.1424_none_left_col_2_row_6.jpg,,1,,line,p,mid,5f5e32a0d6a12c6857b8e127,25,male,2021-05-03_03h03.09.501,search_v5,2021.1.2,MacIntel,60.0024001,,,space,0.319205,0,61,61,142,1,,,,,,,,,,,,,,,
,,,,,,,,,,,,,,,,a,0,8.910995,,,,,,,,line_mid_TP/3_1_1.1424_none_left_col_10_row_2.jpg,,1,,line,p,mid,5f5e32a0d6a12c6857b8e127,25,male,2021-05-03_03h03.09.501,search_v5,2021.1.2,MacIntel,60.0024001,,,space,0.16925,0,62,62,134,1,,,,,,,,,,,,,,,
,,,,,,,,,,,,,,,,p,0,7.00612,,,,,,,,line_hard_TA/15_4_NaN_none_absent.jpg,,0,,line,a,hard,5f5e32a0d6a12c6857b8e127,25,male,2021-05-03_03h03.09.501,search_v5,2021.1.2,MacIntel,60.0024001,,,space,0.61783,0,63,63,63,1,,,,,,,,,,,,,,,
,,,,,,,,,,,,,,,,a,1,1.35562,,,,,,,,line_easy_TA/4_4_NaN_all_absent.jpg,,0,,line,a,easy,5f5e32a0d6a12c6857b8e127,25,male,2021-05-03_03h03.09.501,search_v5,2021.1.2,MacIntel,60.0024001,,,space,0.46617,0,64,64,29,1,,,,,,,,,,,,,,,
,,,,,,,,,,,,,,,,p,1,1.178375,,,,,,,,line_mid_TP/8_1_1.1424_none_left_col_6_row_14.jpg,,1,,line,p,mid,5f5e32a0d6a12c6857b8e127,25,male,2021-05-03_03h03.09.501,search_v5,2021.1.2,MacIntel,60.0024001,,,space,0.3705,0,65,65,148,1,,,,,,,,,,,,,,,
,,,,,,,,,,,,,,,,a,1,12.69233,,,,,,,,line_mid_TA/12_1_NaN_all_absent.jpg,,0,,line,a,mid,5f5e32a0d6a12c6857b8e127,25,male,2021-05-03_03h03.09.501,search_v5,2021.1.2,MacIntel,60.0024001,,,space,0.587125,0,66,66,109,1,,,,,,,,,,,,,,,
,,,,,,,,,,,,,,,,a,1,12.33979,,,,,,,,line_hard_TA/23_1_NaN_none_absent.jpg,,0,,line,a,hard,5f5e32a0d6a12c6857b8e127,25,male,2021-05-03_03h03.09.501,search_v5,2021.1.2,MacIntel,60.0024001,,,space,0.54146,0,67,67,73,1,,,,,,,,,,,,,,,
,,,,,,,,,,,,,,,,a,1,2.346665,,,,,,,,line_easy_TA/17_2_NaN_all_absent.jpg,,0,,line,a,easy,5f5e32a0d6a12c6857b8e127,25,male,2021-05-03_03h03.09.501,search_v5,2021.1.2,MacIntel,60.0024001,,,space,0.45013,0,68,68,17,1,,,,,,,,,,,,,,,
,,,,,,,,,,,,,,,,a,0,13.778045,,,,,,,,line_hard_TP/8_2_2.0944_none_left_col_4_row_12.jpg,,1,,line,p,hard,5f5e32a0d6a12c6857b8e127,25,male,2021-05-03_03h03.09.501,search_v5,2021.1.2,MacIntel,60.0024001,,,space,1.018585,0,69,69,100,1,,,,,,,,,,,,,,,
,,,,,,,,,,,,,,,,a,1,1.460915,,,,,,,,line_easy_TA/21_4_NaN_all_absent.jpg,,0,,line,a,easy,5f5e32a0d6a12c6857b8e127,25,male,2021-05-03_03h03.09.501,search_v5,2021.1.2,MacIntel,60.0024001,,,space,0.45042,0,70,70,21,1,,,,,,,,,,,,,,,
,,,,,,,,,,,,,,,,a,1,16.859915,,,,,,,,line_hard_TA/10_4_NaN_none_absent.jpg,,0,,line,a,hard,5f5e32a0d6a12c6857b8e127,25,male,2021-05-03_03h03.09.501,search_v5,2021.1.2,MacIntel,60.0024001,,,space,1.12154,0,71,71,4,1,,,,,,,,,,,,,,,
,,,,,,,,,,,,,,,,a,1,2.48242,,,,,,,,line_easy_TA/5_4_NaN_all_absent.jpg,,0,,line,a,easy,5f5e32a0d6a12c6857b8e127,25,male,2021-05-03_03h03.09.501,search_v5,2021.1.2,MacIntel,60.0024001,,,space,0.671705,0,72,72,31,1,,,,,,,,,,,,,,,
,,,,,,,,,,,,,,,,a,1,12.914205,,,,,,,,line_hard_TA/23_2_NaN_none_absent.jpg,,0,,line,a,hard,5f5e32a0d6a12c6857b8e127,25,male,2021-05-03_03h03.09.501,search_v5,2021.1.2,MacIntel,60.0024001,,,space,0.77125,0,73,73,74,1,,,,,,,,,,,,,,,
,,,,,,,,,,,,,,,,a,1,9.49554,,,,,,,,line_mid_TA/7_1_NaN_all_absent.jpg,,0,,line,a,mid,5f5e32a0d6a12c6857b8e127,25,male,2021-05-03_03h03.09.501,search_v5,2021.1.2,MacIntel,60.0024001,,,space,0.750915,0,74,74,122,1,,,,,,,,,,,,,,,
,,,,,,,,,,,,,,,,p,1,0.69046,,,,,,,,line_mid_TP/6_0_1.1424_none_left_col_8_row_9.jpg,,1,,line,p,mid,5f5e32a0d6a12c6857b8e127,25,male,2021-05-03_03h03.09.501,search_v5,2021.1.2,MacIntel,60.0024001,,,space,1.37712,0,75,75,141,1,,,,,,,,,,,,,,,
,,,,,,,,,,,,,,,,p,1,1.546585,,,,,,,,line_easy_TP/19_1_0.5236_all_left_col_6_row_1.jpg,,1,,line,p,easy,5f5e32a0d6a12c6857b8e127,25,male,2021-05-03_03h03.09.501,search_v5,2021.1.2,MacIntel,60.0024001,,,space,1.083795,0,76,76,41,1,,,,,,,,,,,,,,,
,,,,,,,,,,,,,,,,a,1,12.19321,,,,,,,,line_mid_TA/3_0_NaN_all_absent.jpg,,0,,line,a,mid,5f5e32a0d6a12c6857b8e127,25,male,2021-05-03_03h03.09.501,search_v5,2021.1.2,MacIntel,60.0024001,,,space,0.656045,0,77,77,113,1,,,,,,,,,,,,,,,
,,,,,,,,,,,,,,,,p,1,1.29825,,,,,,,,line_mid_TP/4_4_1.1424_none_left_col_3_row_10.jpg,,1,,line,p,mid,5f5e32a0d6a12c6857b8e127,25,male,2021-05-03_03h03.09.501,search_v5,2021.1.2,MacIntel,60.0024001,,,space,0.717745,0,78,78,137,1,,,,,,,,,,,,,,,
,,,,,,,,,,,,,,,,a,1,8.55846,,,,,,,,line_mid_TA/8_4_NaN_all_absent.jpg,,0,,line,a,mid,5f5e32a0d6a12c6857b8e127,25,male,2021-05-03_03h03.09.501,search_v5,2021.1.2,MacIntel,60.0024001,,,space,0.703035,0,79,79,125,1,,,,,,,,,,,,,,,
,,,,,,,,,,,,,,,,a,0,8.61479,,,,,,,,line_hard_TP/17_1_2.0944_none_right_col_18_row_9.jpg,,1,,line,p,hard,5f5e32a0d6a12c6857b8e127,25,male,2021-05-03_03h03.09.501,search_v5,2021.1.2,MacIntel,60.0024001,,,space,1.501955,0,80,80,85,1,,,,,,,,,,,,,,,
,,,,,,,,,,,,,,,,a,1,8.426165,,,,,,,,line_hard_TA/1_4_NaN_none_absent.jpg,,0,,line,a,hard,5f5e32a0d6a12c6857b8e127,25,male,2021-05-03_03h03.09.501,search_v5,2021.1.2,MacIntel,60.0024001,,,space,0.80296,0,81,81,67,1,,,,,,,,,,,,,,,
,,,,,,,,,,,,,,,,p,1,3.6965,,,,,,,,line_mid_TP/1_4_1.1424_none_left_col_7_row_9.jpg,,1,,line,p,mid,5f5e32a0d6a12c6857b8e127,25,male,2021-05-03_03h03.09.501,search_v5,2021.1.2,MacIntel,60.0024001,,,space,0.871045,0,82,82,129,1,,,,,,,,,,,,,,,
,,,,,,,,,,,,,,,,a,0,7.800205,,,,,,,,line_hard_TP/24_2_2.0944_none_left_col_9_row_8.jpg,,1,,line,p,hard,5f5e32a0d6a12c6857b8e127,25,male,2021-05-03_03h03.09.501,search_v5,2021.1.2,MacIntel,60.0024001,,,space,0.867665,0,83,83,94,1,,,,,,,,,,,,,,,
,,,,,,,,,,,,,,,,p,1,0.873915,,,,,,,,line_easy_TP/18_3_0.5236_all_right_col_20_row_10.jpg,,1,,line,p,easy,5f5e32a0d6a12c6857b8e127,25,male,2021-05-03_03h03.09.501,search_v5,2021.1.2,MacIntel,60.0024001,,,space,0.539205,0,84,84,40,1,,,,,,,,,,,,,,,
,,,,,,,,,,,,,,,,p,1,0.99171,,,,,,,,line_easy_TP/18_2_0.5236_all_right_col_15_row_1.jpg,,1,,line,p,easy,5f5e32a0d6a12c6857b8e127,25,male,2021-05-03_03h03.09.501,search_v5,2021.1.2,MacIntel,60.0024001,,,space,0.30025,0,85,85,39,1,,,,,,,,,,,,,,,
,,,,,,,,,,,,,,,,p,1,0.878665,,,,,,,,line_easy_TP/8_4_0.5236_all_left_col_2_row_6.jpg,,1,,line,p,easy,5f5e32a0d6a12c6857b8e127,25,male,2021-05-03_03h03.09.501,search_v5,2021.1.2,MacIntel,60.0024001,,,space,0.266755,0,86,86,56,1,,,,,,,,,,,,,,,
,,,,,,,,,,,,,,,,a,1,5.577625,,,,,,,,line_mid_TA/6_1_NaN_none_absent.jpg,,0,,line,a,mid,5f5e32a0d6a12c6857b8e127,25,male,2021-05-03_03h03.09.501,search_v5,2021.1.2,MacIntel,60.0024001,,,space,0.750085,0,87,87,121,1,,,,,,,,,,,,,,,
,,,,,,,,,,,,,,,,p,1,0.809125,,,,,,,,line_easy_TP/9_4_0.5236_all_right_col_16_row_3.jpg,,1,,line,p,easy,5f5e32a0d6a12c6857b8e127,25,male,2021-05-03_03h03.09.501,search_v5,2021.1.2,MacIntel,60.0024001,,,space,0.507165,0,88,88,57,1,,,,,,,,,,,,,,,
,,,,,,,,,,,,,,,,a,0,7.143915,,,,,,,,line_hard_TP/9_3_2.0944_none_right_col_16_row_16.jpg,,1,,line,p,hard,5f5e32a0d6a12c6857b8e127,25,male,2021-05-03_03h03.09.501,search_v5,2021.1.2,MacIntel,60.0024001,,,space,0.367335,0,89,89,103,1,,,,,,,,,,,,,,,
,,,,,,,,,,,,,,,,p,1,0.783125,,,,,,,,line_easy_TP/14_4_0.5236_all_left_col_10_row_13.jpg,,1,,line,p,easy,5f5e32a0d6a12c6857b8e127,25,male,2021-05-03_03h03.09.501,search_v5,2021.1.2,MacIntel,60.0024001,,,space,0.31508,0,90,90,38,1,,,,,,,,,,,,,,,
,,,,,,,,,,,,,,,,a,1,2.09379,,,,,,,,line_easy_TA/3_1_NaN_all_absent.jpg,,0,,line,a,easy,5f5e32a0d6a12c6857b8e127,25,male,2021-05-03_03h03.09.501,search_v5,2021.1.2,MacIntel,60.0024001,,,space,0.704745,0,91,91,26,1,,,,,,,,,,,,,,,
,,,,,,,,,,,,,,,,a,1,2.145415,,,,,,,,line_easy_TA/11_1_NaN_all_absent.jpg,,0,,line,a,easy,5f5e32a0d6a12c6857b8e127,25,male,2021-05-03_03h03.09.501,search_v5,2021.1.2,MacIntel,60.0024001,,,space,0.650665,0,92,92,1,1,,,,,,,,,,,,,,,
,,,,,,,,,,,,,,,,a,1,7.616625,,,,,,,,line_mid_TA/8_3_NaN_all_absent.jpg,,0,,line,a,mid,5f5e32a0d6a12c6857b8e127,25,male,2021-05-03_03h03.09.501,search_v5,2021.1.2,MacIntel,60.0024001,,,space,0.700795,0,93,93,124,1,,,,,,,,,,,,,,,
,,,,,,,,,,,,,,,,a,1,2.473995,,,,,,,,line_easy_TA/5_2_NaN_all_absent.jpg,,0,,line,a,easy,5f5e32a0d6a12c6857b8e127,25,male,2021-05-03_03h03.09.501,search_v5,2021.1.2,MacIntel,60.0024001,,,space,0.64421,0,94,94,30,1,,,,,,,,,,,,,,,
,,,,,,,,,,,,,,,,p,1,0.805835,,,,,,,,line_easy_TP/7_2_0.5236_all_right_col_14_row_5.jpg,,1,,line,p,easy,5f5e32a0d6a12c6857b8e127,25,male,2021-05-03_03h03.09.501,search_v5,2021.1.2,MacIntel,60.0024001,,,space,0.584335,0,95,95,53,1,,,,,,,,,,,,,,,
,,,,,,,,,,,,,,,,a,1,6.493245,,,,,,,,line_hard_TA/20_2_NaN_none_absent.jpg,,0,,line,a,hard,5f5e32a0d6a12c6857b8e127,25,male,2021-05-03_03h03.09.501,search_v5,2021.1.2,MacIntel,60.0024001,,,space,0.650125,0,96,96,69,1,,,,,,,,,,,,,,,
,,,,,,,,,,,,,,,,a,1,1.78892,,,,,,,,line_easy_TA/7_1_NaN_all_absent.jpg,,0,,line,a,easy,5f5e32a0d6a12c6857b8e127,25,male,2021-05-03_03h03.09.501,search_v5,2021.1.2,MacIntel,60.0024001,,,space,0.55025,0,97,97,32,1,,,,,,,,,,,,,,,
,,,,,,,,,,,,,,,,p,1,5.34246,,,,,,,,line_hard_TP/14_1_2.0944_none_right_col_15_row_6.jpg,,1,,line,p,hard,5f5e32a0d6a12c6857b8e127,25,male,2021-05-03_03h03.09.501,search_v5,2021.1.2,MacIntel,60.0024001,,,space,0.68829,0,98,98,83,1,,,,,,,,,,,,,,,
,,,,,,,,,,,,,,,,p,1,0.757035,,,,,,,,line_easy_TP/7_4_0.5236_all_left_col_6_row_11.jpg,,1,,line,p,easy,5f5e32a0d6a12c6857b8e127,25,male,2021-05-03_03h03.09.501,search_v5,2021.1.2,MacIntel,60.0024001,,,space,0.269665,0,99,99,54,1,,,,,,,,,,,,,,,
,,,,,,,,,,,,,,,,p,1,0.61091,,,,,,,,line_easy_TP/11_2_0.5236_all_right_col_14_row_9.jpg,,1,,line,p,easy,5f5e32a0d6a12c6857b8e127,25,male,2021-05-03_03h03.09.501,search_v5,2021.1.2,MacIntel,60.0024001,,,space,0.2705,0,100,100,3,1,,,,,,,,,,,,,,,
,,,,,,,,,,,,,,,,p,1,1.57421,,,,,,,,line_hard_TP/2_2_2.0944_none_right_col_19_row_11.jpg,,1,,line,p,hard,5f5e32a0d6a12c6857b8e127,25,male,2021-05-03_03h03.09.501,search_v5,2021.1.2,MacIntel,60.0024001,,,space,0.29463,0,101,101,96,1,,,,,,,,,,,,,,,
,,,,,,,,,,,,,,,,a,1,1.77604,,,,,,,,line_easy_TA/16_2_NaN_all_absent.jpg,,0,,line,a,easy,5f5e32a0d6a12c6857b8e127,25,male,2021-05-03_03h03.09.501,search_v5,2021.1.2,MacIntel,60.0024001,,,space,0.440375,0,102,102,15,1,,,,,,,,,,,,,,,
,,,,,,,,,,,,,,,,a,0,8.396795,,,,,,,,line_mid_TP/4_1_1.7453_all_left_col_4_row_6.jpg,,1,,line,p,mid,5f5e32a0d6a12c6857b8e127,25,male,2021-05-03_03h03.09.501,search_v5,2021.1.2,MacIntel,60.0024001,,,space,4.43296,0,103,103,135,1,,,,,,,,,,,,,,,
,,,,,,,,,,,,,,,,p,1,1.240085,,,,,,,,line_easy_TP/21_2_0.5236_all_right_col_16_row_1.jpg,,1,,line,p,easy,5f5e32a0d6a12c6857b8e127,25,male,2021-05-03_03h03.09.501,search_v5,2021.1.2,MacIntel,60.0024001,,,space,0.408165,0,104,104,45,1,,,,,,,,,,,,,,,
,,,,,,,,,,,,,,,,a,0,3.08129,,,,,,,,line_hard_TP/9_2_2.0944_none_right_col_21_row_2.jpg,,1,,line,p,hard,5f5e32a0d6a12c6857b8e127,25,male,2021-05-03_03h03.09.501,search_v5,2021.1.2,MacIntel,60.0024001,,,space,0.05896,0,105,105,102,1,,,,,,,,,,,,,,,
,,,,,,,,,,,,,,,,p,1,1.36496,,,,,,,,line_mid_TP/9_3_1.1424_none_left_col_10_row_8.jpg,,1,,line,p,mid,5f5e32a0d6a12c6857b8e127,25,male,2021-05-03_03h03.09.501,search_v5,2021.1.2,MacIntel,60.0024001,,,space,0.283915,0,106,106,11,1,,,,,,,,,,,,,,,
,,,,,,,,,,,,,,,,a,1,5.52475,,,,,,,,line_hard_TA/3_2_NaN_none_absent.jpg,,0,,line,a,hard,5f5e32a0d6a12c6857b8e127,25,male,2021-05-03_03h03.09.501,search_v5,2021.1.2,MacIntel,60.0024001,,,space,0.63517,0,107,107,76,1,,,,,,,,,,,,,,,
,,,,,,,,,,,,,,,,a,1,6.984625,,,,,,,,line_hard_TA/1_3_NaN_none_absent.jpg,,0,,line,a,hard,5f5e32a0d6a12c6857b8e127,25,male,2021-05-03_03h03.09.501,search_v5,2021.1.2,MacIntel,60.0024001,,,space,0.543755,0,108,108,66,1,,,,,,,,,,,,,,,
,,,,,,,,,,,,,,,,a,1,2.227,,,,,,,,line_easy_TA/19_2_NaN_all_absent.jpg,,0,,line,a,easy,5f5e32a0d6a12c6857b8e127,25,male,2021-05-03_03h03.09.501,search_v5,2021.1.2,MacIntel,60.0024001,,,space,0.61863,0,109,109,18,1,,,,,,,,,,,,,,,
,,,,,,,,,,,,,,,,p,1,2.074545,,,,,,,,line_mid_TP/5_1_1.1424_none_right_col_20_row_16.jpg,,1,,line,p,mid,5f5e32a0d6a12c6857b8e127,25,male,2021-05-03_03h03.09.501,search_v5,2021.1.2,MacIntel,60.0024001,,,space,0.503165,0,110,110,139,1,,,,,,,,,,,,,,,
,,,,,,,,,,,,,,,,a,1,2.410585,,,,,,,,line_mid_TA/11_1_NaN_none_absent.jpg,,0,,line,a,mid,5f5e32a0d6a12c6857b8e127,25,male,2021-05-03_03h03.09.501,search_v5,2021.1.2,MacIntel,60.0024001,,,space,0.669665,0,111,111,105,1,,,,,,,,,,,,,,,
,,,,,,,,,,,,,,,,a,1,8.2285,,,,,,,,line_mid_TA/1_2_NaN_all_absent.jpg,,0,,line,a,mid,5f5e32a0d6a12c6857b8e127,25,male,2021-05-03_03h03.09.501,search_v5,2021.1.2,MacIntel,60.0024001,,,space,0.650045,0,112,112,110,1,,,,,,,,,,,,,,,
,,,,,,,,,,,,,,,,a,0,4.881415,,,,,,,,line_hard_TP/12_2_2.0944_none_right_col_13_row_8.jpg,,1,,line,p,hard,5f5e32a0d6a12c6857b8e127,25,male,2021-05-03_03h03.09.501,search_v5,2021.1.2,MacIntel,60.0024001,,,space,1.78483,0,113,113,81,1,,,,,,,,,,,,,,,
,,,,,,,,,,,,,,,,a,0,4.542625,,,,,,,,line_mid_TP/2_1_1.7453_all_right_col_14_row_16.jpg,,1,,line,p,mid,5f5e32a0d6a12c6857b8e127,25,male,2021-05-03_03h03.09.501,search_v5,2021.1.2,MacIntel,60.0024001,,,space,0.218,0,114,114,131,1,,,,,,,,,,,,,,,
,,,,,,,,,,,,,,,,a,1,4.19296,,,,,,,,line_mid_TA/8_2_NaN_all_absent.jpg,,0,,line,a,mid,5f5e32a0d6a12c6857b8e127,25,male,2021-05-03_03h03.09.501,search_v5,2021.1.2,MacIntel,60.0024001,,,space,0.61504,0,115,115,123,1,,,,,,,,,,,,,,,
,,,,,,,,,,,,,,,,a,0,6.046795,,,,,,,,line_hard_TP/20_3_2.0944_none_left_col_7_row_13.jpg,,1,,line,p,hard,5f5e32a0d6a12c6857b8e127,25,male,2021-05-03_03h03.09.501,search_v5,2021.1.2,MacIntel,60.0024001,,,space,0.03796,0,116,116,90,1,,,,,,,,,,,,,,,
,,,,,,,,,,,,,,,,a,1,1.165625,,,,,,,,line_easy_TA/16_3_NaN_all_absent.jpg,,0,,line,a,easy,5f5e32a0d6a12c6857b8e127,25,male,2021-05-03_03h03.09.501,search_v5,2021.1.2,MacIntel,60.0024001,,,space,0.723165,0,117,117,16,1,,,,,,,,,,,,,,,
,,,,,,,,,,,,,,,,p,1,1.24229,,,,,,,,line_mid_TP/7_2_1.7453_all_right_col_16_row_5.jpg,,1,,line,p,mid,5f5e32a0d6a12c6857b8e127,25,male,2021-05-03_03h03.09.501,search_v5,2021.1.2,MacIntel,60.0024001,,,space,0.343125,0,118,118,145,1,,,,,,,,,,,,,,,
,,,,,,,,,,,,,,,,p,1,0.75792,,,,,,,,line_easy_TP/4_1_0.5236_all_left_col_6_row_4.jpg,,1,,line,p,easy,5f5e32a0d6a12c6857b8e127,25,male,2021-05-03_03h03.09.501,search_v5,2021.1.2,MacIntel,60.0024001,,,space,0.26642,0,119,119,49,1,,,,,,,,,,,,,,,
,,,,,,,,,,,,,,,,a,1,4.642795,,,,,,,,line_mid_TA/11_3_NaN_all_absent.jpg,,0,,line,a,mid,5f5e32a0d6a12c6857b8e127,25,male,2021-05-03_03h03.09.501,search_v5,2021.1.2,MacIntel,60.0024001,,,space,0.570875,0,120,120,107,1,,,,,,,,,,,,,,,
,,,,,,,,,,,,,,,,a,1,2.91129,,,,,,,,line_mid_TA/2_2_NaN_none_absent.jpg,,0,,line,a,mid,5f5e32a0d6a12c6857b8e127,25,male,2021-05-03_03h03.09.501,search_v5,2021.1.2,MacIntel,60.0024001,,,space,0.385165,0,121,121,112,1,,,,,,,,,,,,,,,
,,,,,,,,,,,,,,,,a,1,8.130545,,,,,,,,line_hard_TA/17_4_NaN_none_absent.jpg,,0,,line,a,hard,5f5e32a0d6a12c6857b8e127,25,male,2021-05-03_03h03.09.501,search_v5,2021.1.2,MacIntel,60.0024001,,,space,0.53479,0,122,122,65,1,,,,,,,,,,,,,,,
,,,,,,,,,,,,,,,,a,0,5.624625,,,,,,,,line_mid_TP/9_1_1.7453_all_left_col_4_row_15.jpg,,1,,line,p,mid,5f5e32a0d6a12c6857b8e127,25,male,2021-05-03_03h03.09.501,search_v5,2021.1.2,MacIntel,60.0024001,,,space,0.03825,0,123,123,149,1,,,,,,,,,,,,,,,
,,,,,,,,,,,,,,,,p,0,1.390005,,,,,,,,line_hard_TA/13_2_NaN_none_absent.jpg,,0,,line,a,hard,5f5e32a0d6a12c6857b8e127,25,male,2021-05-03_03h03.09.501,search_v5,2021.1.2,MacIntel,60.0024001,,,space,0.1675,0,124,124,59,1,,,,,,,,,,,,,,,
,,,,,,,,,,,,,,,,a,1,3.80679,,,,,,,,line_mid_TA/9_4_NaN_none_absent.jpg,,0,,line,a,mid,5f5e32a0d6a12c6857b8e127,25,male,2021-05-03_03h03.09.501,search_v5,2021.1.2,MacIntel,60.0024001,,,space,0.43221,0,125,125,126,1,,,,,,,,,,,,,,,
,,,,,,,,,,,,,,,,p,1,1.982125,,,,,,,,line_mid_TP/2_4_1.1424_none_right_col_18_row_13.jpg,,1,,line,p,mid,5f5e32a0d6a12c6857b8e127,25,male,2021-05-03_03h03.09.501,search_v5,2021.1.2,MacIntel,60.0024001,,,space,0.45454,0,126,126,133,1,,,,,,,,,,,,,,,
,,,,,,,,,,,,,,,,p,1,3.79588,,,,,,,,line_mid_TP/6_3_1.7453_all_right_col_13_row_7.jpg,,1,,line,p,mid,5f5e32a0d6a12c6857b8e127,25,male,2021-05-03_03h03.09.501,search_v5,2021.1.2,MacIntel,60.0024001,,,space,0.30675,0,127,127,143,1,,,,,,,,,,,,,,,
,,,,,,,,,,,,,,,,p,1,0.758165,,,,,,,,line_easy_TP/6_3_0.5236_all_left_col_10_row_2.jpg,,1,,line,p,easy,5f5e32a0d6a12c6857b8e127,25,male,2021-05-03_03h03.09.501,search_v5,2021.1.2,MacIntel,60.0024001,,,space,0.202835,0,128,128,51,1,,,,,,,,,,,,,,,
,,,,,,,,,,,,,,,,p,1,0.716375,,,,,,,,line_easy_TP/1_1_0.5236_all_left_col_8_row_5.jpg,,1,,line,p,easy,5f5e32a0d6a12c6857b8e127,25,male,2021-05-03_03h03.09.501,search_v5,2021.1.2,MacIntel,60.0024001,,,space,0.22679,0,129,129,44,1,,,,,,,,,,,,,,,
,,,,,,,,,,,,,,,,p,1,6.228505,,,,,,,,line_hard_TP/24_1_2.0944_none_right_col_16_row_6.jpg,,1,,line,p,hard,5f5e32a0d6a12c6857b8e127,25,male,2021-05-03_03h03.09.501,search_v5,2021.1.2,MacIntel,60.0024001,,,space,0.286795,0,130,130,93,1,,,,,,,,,,,,,,,
,,,,,,,,,,,,,,,,p,1,0.722875,,,,,,,,line_easy_TP/19_3_0.5236_all_right_col_17_row_3.jpg,,1,,line,p,easy,5f5e32a0d6a12c6857b8e127,25,male,2021-05-03_03h03.09.501,search_v5,2021.1.2,MacIntel,60.0024001,,,space,0.28587,0,131,131,42,1,,,,,,,,,,,,,,,
,,,,,,,,,,,,,,,,a,1,1.493415,,,,,,,,line_easy_TA/12_3_NaN_all_absent.jpg,,0,,line,a,easy,5f5e32a0d6a12c6857b8e127,25,male,2021-05-03_03h03.09.501,search_v5,2021.1.2,MacIntel,60.0024001,,,space,0.543335,0,132,132,12,1,,,,,,,,,,,,,,,
,,,,,,,,,,,,,,,,a,1,4.37596,,,,,,,,line_mid_TA/10_4_NaN_all_absent.jpg,,0,,line,a,mid,5f5e32a0d6a12c6857b8e127,25,male,2021-05-03_03h03.09.501,search_v5,2021.1.2,MacIntel,60.0024001,,,space,0.374665,0,133,133,104,1,,,,,,,,,,,,,,,
,,,,,,,,,,,,,,,,a,1,8.050415,,,,,,,,line_hard_TA/11_3_NaN_none_absent.jpg,,0,,line,a,hard,5f5e32a0d6a12c6857b8e127,25,male,2021-05-03_03h03.09.501,search_v5,2021.1.2,MacIntel,60.0024001,,,space,0.42442,0,134,134,5,1,,,,,,,,,,,,,,,
,,,,,,,,,,,,,,,,p,1,0.839545,,,,,,,,line_easy_TP/8_1_0.5236_all_right_col_14_row_4.jpg,,1,,line,p,easy,5f5e32a0d6a12c6857b8e127,25,male,2021-05-03_03h03.09.501,search_v5,2021.1.2,MacIntel,60.0024001,,,space,0.28592,0,135,135,55,1,,,,,,,,,,,,,,,
,,,,,,,,,,,,,,,,a,0,6.511585,,,,,,,,line_hard_TP/18_1_2.0944_none_left_col_4_row_3.jpg,,1,,line,p,hard,5f5e32a0d6a12c6857b8e127,25,male,2021-05-03_03h03.09.501,search_v5,2021.1.2,MacIntel,60.0024001,,,space,0.04267,0,136,136,87,1,,,,,,,,,,,,,,,
,,,,,,,,,,,,,,,,a,1,1.507875,,,,,,,,line_easy_TA/2_4_NaN_all_absent.jpg,,0,,line,a,easy,5f5e32a0d6a12c6857b8e127,25,male,2021-05-03_03h03.09.501,search_v5,2021.1.2,MacIntel,60.0024001,,,space,0.34866,0,137,137,24,1,,,,,,,,,,,,,,,
,,,,,,,,,,,,,,,,a,0,4.62471,,,,,,,,line_hard_TP/12_4_2.0944_none_right_col_17_row_12.jpg,,1,,line,p,hard,5f5e32a0d6a12c6857b8e127,25,male,2021-05-03_03h03.09.501,search_v5,2021.1.2,MacIntel,60.0024001,,,space,0.038125,0,138,138,82,1,,,,,,,,,,,,,,,
,,,,,,,,,,,,,,,,a,1,1.340125,,,,,,,,line_easy_TA/10_3_NaN_all_absent.jpg,,0,,line,a,easy,5f5e32a0d6a12c6857b8e127,25,male,2021-05-03_03h03.09.501,search_v5,2021.1.2,MacIntel,60.0024001,,,space,0.306545,0,139,139,0,1,,,,,,,,,,,,,,,
,,,,,,,,,,,,,,,,a,1,4.864335,,,,,,,,line_hard_TA/4_0_NaN_none_absent.jpg,,0,,line,a,hard,5f5e32a0d6a12c6857b8e127,25,male,2021-05-03_03h03.09.501,search_v5,2021.1.2,MacIntel,60.0024001,,,space,0.443835,0,140,140,77,1,,,,,,,,,,,,,,,
,,,,,,,,,,,,,,,,p,1,0.77396,,,,,,,,line_easy_TP/3_3_0.5236_all_right_col_15_row_10.jpg,,1,,line,p,easy,5f5e32a0d6a12c6857b8e127,25,male,2021-05-03_03h03.09.501,search_v5,2021.1.2,MacIntel,60.0024001,,,space,0.26696,0,141,141,48,1,,,,,,,,,,,,,,,
,,,,,,,,,,,,,,,,a,1,1.07688,,,,,,,,line_easy_TA/7_3_NaN_all_absent.jpg,,0,,line,a,easy,5f5e32a0d6a12c6857b8e127,25,male,2021-05-03_03h03.09.501,search_v5,2021.1.2,MacIntel,60.0024001,,,space,0.236665,0,142,142,33,1,,,,,,,,,,,,,,,
,,,,,,,,,,,,,,,,a,1,3.841375,,,,,,,,line_hard_TA/13_1_NaN_none_absent.jpg,,0,,line,a,hard,5f5e32a0d6a12c6857b8e127,25,male,2021-05-03_03h03.09.501,search_v5,2021.1.2,MacIntel,60.0024001,,,space,0.417295,0,143,143,58,1,,,,,,,,,,,,,,,
,,,,,,,,,,,,,,,,a,1,4.72546,,,,,,,,line_hard_TA/5_3_NaN_none_absent.jpg,,0,,line,a,hard,5f5e32a0d6a12c6857b8e127,25,male,2021-05-03_03h03.09.501,search_v5,2021.1.2,MacIntel,60.0024001,,,space,0.45417,0,144,144,79,1,,,,,,,,,,,,,,,
,,,,,,,,,,,,,,,,p,1,1.139955,,,,,,,,line_mid_TP/5_0_1.1424_none_left_col_7_row_16.jpg,,1,,line,p,mid,5f5e32a0d6a12c6857b8e127,25,male,2021-05-03_03h03.09.501,search_v5,2021.1.2,MacIntel,60.0024001,,,space,0.22446,0,145,145,138,1,,,,,,,,,,,,,,,
,,,,,,,,,,,,,,,,a,1,5.74425,,,,,,,,line_hard_TA/16_4_NaN_none_absent.jpg,,0,,line,a,hard,5f5e32a0d6a12c6857b8e127,25,male,2021-05-03_03h03.09.501,search_v5,2021.1.2,MacIntel,60.0024001,,,space,0.38729,0,146,146,64,1,,,,,,,,,,,,,,,
,,,,,,,,,,,,,,,,a,0,3.59075,,,,,,,,line_mid_TP/7_3_1.7453_all_right_col_15_row_2.jpg,,1,,line,p,mid,5f5e32a0d6a12c6857b8e127,25,male,2021-05-03_03h03.09.501,search_v5,2021.1.2,MacIntel,60.0024001,,,space,0.11779,0,147,147,146,1,,,,,,,,,,,,,,,
,,,,,,,,,,,,,,,,a,1,3.43929,,,,,,,,line_hard_TA/22_3_NaN_none_absent.jpg,,0,,line,a,hard,5f5e32a0d6a12c6857b8e127,25,male,2021-05-03_03h03.09.501,search_v5,2021.1.2,MacIntel,60.0024001,,,space,0.39975,0,148,148,71,1,,,,,,,,,,,,,,,
,,,,,,,,,,,,,,,,a,1,4.092,,,,,,,,line_hard_TA/14_2_NaN_none_absent.jpg,,0,,line,a,hard,5f5e32a0d6a12c6857b8e127,25,male,2021-05-03_03h03.09.501,search_v5,2021.1.2,MacIntel,60.0024001,,,space,0.445125,0,149,149,60,1,,,,,,,,,,,,,,,
,,,,,,,,,,,,,,,,,,,,,,,,,,,,,,,,,5f5e32a0d6a12c6857b8e127,25,male,2021-05-03_03h03.09.501,search_v5,2021.1.2,MacIntel,60.0024001,,,,,,,,,,0,1,1,2,1,condLine.xlsx,lines,Look for a line tilted 45 degrees to the right (target) and indicate if it is present or absent in the array. If the target is present press 'p' and if absent press 'a'. Press SPACE to start.,line_segment_example.jpg,,,,egLine.xlsx,,
,,,,,,,,,,,,space,7.13846,space,3.06404,a,0,2.576085,space,0.66875,0,0,0,2,1,tex_hard_TP/1.6_r=100_phi=0_seed=1.png,,1,,texture,p,hard,5f5e32a0d6a12c6857b8e127,25,male,2021-05-03_03h03.09.501,search_v5,2021.1.2,MacIntel,60.0024001,,,,,,,,,,,,,,,,,,,,,,,,
,,,,,,,,,,,,,,,,p,1,1.23446,space,0.28233,0,1,1,0,1,tex_easy_TP/1.7_r=150_phi=225_seed=3.png,,1,,texture,p,easy,5f5e32a0d6a12c6857b8e127,25,male,2021-05-03_03h03.09.501,search_v5,2021.1.2,MacIntel,60.0024001,,,,,,,,,,,,,,,,,,,,,,,,
,,,,,,,,,,,,,,,,a,1,3.853205,space,0.752535,0,2,2,11,1,tex_hard_TA/1.6_r=TA_seed=1.png,,0,,texture,a,hard,5f5e32a0d6a12c6857b8e127,25,male,2021-05-03_03h03.09.501,search_v5,2021.1.2,MacIntel,60.0024001,,,,,,,,,,,,,,,,,,,,,,,,
,,,,,,,,,,,,,,,,a,1,3.735875,space,0.37629,0,3,3,9,1,tex_easy_TA/1.7_r=TA_seed=3.png,,0,,texture,a,easy,5f5e32a0d6a12c6857b8e127,25,male,2021-05-03_03h03.09.501,search_v5,2021.1.2,MacIntel,60.0024001,,,,,,,,,,,,,,,,,,,,,,,,
,,,,,,,,,,,,,,,,a,1,4.883545,space,0.416625,0,4,4,7,1,tex_mid_TA/1.65_r=TA_seed=2.png,,0,,texture,a,mid,5f5e32a0d6a12c6857b8e127,25,male,2021-05-03_03h03.09.501,search_v5,2021.1.2,MacIntel,60.0024001,,,,,,,,,,,,,,,,,,,,,,,,
,,,,,,,,,,,,,,,,a,1,4.304375,space,0.376625,0,5,5,6,1,tex_mid_TA/1.65_r=TA_seed=2.png,,0,,texture,a,mid,5f5e32a0d6a12c6857b8e127,25,male,2021-05-03_03h03.09.501,search_v5,2021.1.2,MacIntel,60.0024001,,,,,,,,,,,,,,,,,,,,,,,,
,,,,,,,,,,,,,,,,p,1,1.2165,space,0.250335,0,6,6,4,1,tex_mid_TP/1.65_r=100_phi=225_seed=2.png,,1,,texture,p,mid,5f5e32a0d6a12c6857b8e127,25,male,2021-05-03_03h03.09.501,search_v5,2021.1.2,MacIntel,60.0024001,,,,,,,,,,,,,,,,,,,,,,,,
,,,,,,,,,,,,,,,,p,1,0.936665,space,0.23538,0,7,7,1,1,tex_easy_TP/1.7_r=150_phi=315_seed=3.png,,1,,texture,p,easy,5f5e32a0d6a12c6857b8e127,25,male,2021-05-03_03h03.09.501,search_v5,2021.1.2,MacIntel,60.0024001,,,,,,,,,,,,,,,,,,,,,,,,
,,,,,,,,,,,,,,,,a,1,3.01954,space,0.376125,0,8,8,10,1,tex_hard_TA/1.6_r=TA_seed=1.png,,0,,texture,a,hard,5f5e32a0d6a12c6857b8e127,25,male,2021-05-03_03h03.09.501,search_v5,2021.1.2,MacIntel,60.0024001,,,,,,,,,,,,,,,,,,,,,,,,
,,,,,,,,,,,,,,,,a,0,4.059375,space,0.248875,0,9,9,3,1,tex_hard_TP/1.6_r=100_phi=270_seed=1.png,,1,,texture,p,hard,5f5e32a0d6a12c6857b8e127,25,male,2021-05-03_03h03.09.501,search_v5,2021.1.2,MacIntel,60.0024001,,,,,,,,,,,,,,,,,,,,,,,,
,,,,,,,,,,,,,,,,p,1,0.949,space,0.250375,0,10,10,5,1,tex_mid_TP/1.65_r=100_phi=270_seed=2.png,,1,,texture,p,mid,5f5e32a0d6a12c6857b8e127,25,male,2021-05-03_03h03.09.501,search_v5,2021.1.2,MacIntel,60.0024001,,,,,,,,,,,,,,,,,,,,,,,,
,,,,,,,,,,,,,,,,a,1,6.48975,space,0.401705,0,11,11,8,1,tex_easy_TA/1.7_r=TA_seed=3.png,,0,,texture,a,easy,5f5e32a0d6a12c6857b8e127,25,male,2021-05-03_03h03.09.501,search_v5,2021.1.2,MacIntel,60.0024001,,,,,,,,,,,,,,,,,,,,,,,,
,,,,,,,,,,,,,,,,a,0,5.90121,,,,,,,,tex_easy_TP/1.7_r=250_phi=135_seed=3.png,,1,,texture,p,easy,5f5e32a0d6a12c6857b8e127,25,male,2021-05-03_03h03.09.501,search_v5,2021.1.2,MacIntel,60.0024001,space,1.03329,space,0.421465,0,0,0,17,1,,,,,,,,,,,,,,,
,,,,,,,,,,,,,,,,p,1,1.116955,,,,,,,,tex_mid_TP/1.65_r=50_phi=45_seed=2.png,,1,,texture,p,mid,5f5e32a0d6a12c6857b8e127,25,male,2021-05-03_03h03.09.501,search_v5,2021.1.2,MacIntel,60.0024001,,,space,0.24896,0,1,1,80,1,,,,,,,,,,,,,,,
,,,,,,,,,,,,,,,,p,1,0.86921,,,,,,,,tex_hard_TP/1.6_r=50_phi=315_seed=1.png,,1,,texture,p,hard,5f5e32a0d6a12c6857b8e127,25,male,2021-05-03_03h03.09.501,search_v5,2021.1.2,MacIntel,60.0024001,,,space,0.190415,0,2,2,57,1,,,,,,,,,,,,,,,
,,,,,,,,,,,,,,,,p,1,0.89875,,,,,,,,tex_mid_TP/1.65_r=300_phi=225_seed=2.png,,1,,texture,p,mid,5f5e32a0d6a12c6857b8e127,25,male,2021-05-03_03h03.09.501,search_v5,2021.1.2,MacIntel,60.0024001,,,space,0.184205,0,3,3,67,1,,,,,,,,,,,,,,,
,,,,,,,,,,,,,,,,a,0,2.951045,,,,,,,,tex_mid_TP/1.65_r=250_phi=45_seed=2.png,,1,,texture,p,mid,5f5e32a0d6a12c6857b8e127,25,male,2021-05-03_03h03.09.501,search_v5,2021.1.2,MacIntel,60.0024001,,,space,0.22784,0,4,4,65,1,,,,,,,,,,,,,,,
,,,,,,,,,,,,,,,,a,1,10.07737,,,,,,,,tex_easy_TA/1.7_r=TA_seed=3.png,,0,,texture,a,easy,5f5e32a0d6a12c6857b8e127,25,male,2021-05-03_03h03.09.501,search_v5,2021.1.2,MacIntel,60.0024001,,,space,0.60867,0,5,5,106,1,,,,,,,,,,,,,,,
,,,,,,,,,,,,,,,,p,1,0.787205,,,,,,,,tex_easy_TP/1.7_r=300_phi=225_seed=3.png,,1,,texture,p,easy,5f5e32a0d6a12c6857b8e127,25,male,2021-05-03_03h03.09.501,search_v5,2021.1.2,MacIntel,60.0024001,,,space,0.27729,0,6,6,22,1,,,,,,,,,,,,,,,
,,,,,,,,,,,,,,,,p,1,0.668255,,,,,,,,tex_mid_TP/1.65_r=200_phi=225_seed=2.png,,1,,texture,p,mid,5f5e32a0d6a12c6857b8e127,25,male,2021-05-03_03h03.09.501,search_v5,2021.1.2,MacIntel,60.0024001,,,space,0.23763,0,7,7,60,1,,,,,,,,,,,,,,,
,,,,,,,,,,,,,,,,p,1,0.44408,,,,,,,,tex_easy_TP/1.7_r=250_phi=225_seed=3.png,,1,,texture,p,easy,5f5e32a0d6a12c6857b8e127,25,male,2021-05-03_03h03.09.501,search_v5,2021.1.2,MacIntel,60.0024001,,,space,0.26925,0,8,8,18,1,,,,,,,,,,,,,,,
,,,,,,,,,,,,,,,,a,1,3.388165,,,,,,,,tex_mid_TA/1.65_r=TA_seed=2.png,,0,,texture,a,mid,5f5e32a0d6a12c6857b8e127,25,male,2021-05-03_03h03.09.501,search_v5,2021.1.2,MacIntel,60.0024001,,,space,0.412585,0,9,9,82,1,,,,,,,,,,,,,,,
,,,,,,,,,,,,,,,,a,1,4.21908,,,,,,,,tex_hard_TA/1.6_r=TA_seed=1.png,,0,,texture,a,hard,5f5e32a0d6a12c6857b8e127,25,male,2021-05-03_03h03.09.501,search_v5,2021.1.2,MacIntel,60.0024001,,,space,0.402,0,10,10,141,1,,,,,,,,,,,,,,,
,,,,,,,,,,,,,,,,a,0,3.4505,,,,,,,,tex_hard_TP/1.6_r=450_phi=90_seed=1.png,,1,,texture,p,hard,5f5e32a0d6a12c6857b8e127,25,male,2021-05-03_03h03.09.501,search_v5,2021.1.2,MacIntel,60.0024001,,,space,0.084045,0,11,11,54,1,,,,,,,,,,,,,,,
,,,,,,,,,,,,,,,,a,0,4.289295,,,,,,,,tex_hard_TP/1.6_r=250_phi=315_seed=1.png,,1,,texture,p,hard,5f5e32a0d6a12c6857b8e127,25,male,2021-05-03_03h03.09.501,search_v5,2021.1.2,MacIntel,60.0024001,,,space,0.803125,0,12,12,43,1,,,,,,,,,,,,,,,
,,,,,,,,,,,,,,,,p,1,0.91846,,,,,,,,tex_mid_TP/1.65_r=100_phi=225_seed=2.png,,1,,texture,p,mid,5f5e32a0d6a12c6857b8e127,25,male,2021-05-03_03h03.09.501,search_v5,2021.1.2,MacIntel,60.0024001,,,space,0.22504,0,13,13,4,1,,,,,,,,,,,,,,,
,,,,,,,,,,,,,,,,a,1,6.97242,,,,,,,,tex_mid_TA/1.65_r=TA_seed=2.png,,0,,texture,a,mid,5f5e32a0d6a12c6857b8e127,25,male,2021-05-03_03h03.09.501,search_v5,2021.1.2,MacIntel,60.0024001,,,space,0.434205,0,14,14,100,1,,,,,,,,,,,,,,,
,,,,,,,,,,,,,,,,a,1,4.92296,,,,,,,,tex_hard_TA/1.6_r=TA_seed=1.png,,0,,texture,a,hard,5f5e32a0d6a12c6857b8e127,25,male,2021-05-03_03h03.09.501,search_v5,2021.1.2,MacIntel,60.0024001,,,space,0.403875,0,15,15,149,1,,,,,,,,,,,,,,,
,,,,,,,,,,,,,,,,p,0,1.771915,,,,,,,,tex_mid_TA/1.65_r=TA_seed=2.png,,0,,texture,a,mid,5f5e32a0d6a12c6857b8e127,25,male,2021-05-03_03h03.09.501,search_v5,2021.1.2,MacIntel,60.0024001,,,space,0.20008,0,16,16,87,1,,,,,,,,,,,,,,,
,,,,,,,,,,,,,,,,p,1,2.987335,,,,,,,,tex_mid_TP/1.65_r=450_phi=135_seed=2.png,,1,,texture,p,mid,5f5e32a0d6a12c6857b8e127,25,male,2021-05-03_03h03.09.501,search_v5,2021.1.2,MacIntel,60.0024001,,,space,0.25475,0,17,17,76,1,,,,,,,,,,,,,,,
,,,,,,,,,,,,,,,,p,1,0.599295,,,,,,,,tex_mid_TP/1.65_r=250_phi=180_seed=2.png,,1,,texture,p,mid,5f5e32a0d6a12c6857b8e127,25,male,2021-05-03_03h03.09.501,search_v5,2021.1.2,MacIntel,60.0024001,,,space,0.262245,0,18,18,63,1,,,,,,,,,,,,,,,
,,,,,,,,,,,,,,,,a,1,4.08154,,,,,,,,tex_hard_TA/1.6_r=TA_seed=1.png,,0,,texture,a,hard,5f5e32a0d6a12c6857b8e127,25,male,2021-05-03_03h03.09.501,search_v5,2021.1.2,MacIntel,60.0024001,,,space,0.48504,0,19,19,143,1,,,,,,,,,,,,,,,
,,,,,,,,,,,,,,,,a,1,5.569255,,,,,,,,tex_easy_TA/1.7_r=TA_seed=3.png,,0,,texture,a,easy,5f5e32a0d6a12c6857b8e127,25,male,2021-05-03_03h03.09.501,search_v5,2021.1.2,MacIntel,60.0024001,,,space,0.42054,0,20,20,124,1,,,,,,,,,,,,,,,
,,,,,,,,,,,,,,,,a,1,4.422875,,,,,,,,tex_hard_TA/1.6_r=TA_seed=1.png,,0,,texture,a,hard,5f5e32a0d6a12c6857b8e127,25,male,2021-05-03_03h03.09.501,search_v5,2021.1.2,MacIntel,60.0024001,,,space,0.434875,0,21,21,138,1,,,,,,,,,,,,,,,
,,,,,,,,,,,,,,,,p,1,0.832795,,,,,,,,tex_easy_TP/1.7_r=250_phi=315_seed=3.png,,1,,texture,p,easy,5f5e32a0d6a12c6857b8e127,25,male,2021-05-03_03h03.09.501,search_v5,2021.1.2,MacIntel,60.0024001,,,space,0.24058,0,22,22,19,1,,,,,,,,,,,,,,,
,,,,,,,,,,,,,,,,p,1,2.36254,,,,,,,,tex_hard_TP/1.6_r=50_phi=135_seed=1.png,,1,,texture,p,hard,5f5e32a0d6a12c6857b8e127,25,male,2021-05-03_03h03.09.501,search_v5,2021.1.2,MacIntel,60.0024001,,,space,0.233875,0,23,23,55,1,,,,,,,,,,,,,,,
,,,,,,,,,,,,,,,,a,1,3.423625,,,,,,,,tex_hard_TA/1.6_r=TA_seed=1.png,,0,,texture,a,hard,5f5e32a0d6a12c6857b8e127,25,male,2021-05-03_03h03.09.501,search_v5,2021.1.2,MacIntel,60.0024001,,,space,0.417915,0,24,24,135,1,,,,,,,,,,,,,,,
,,,,,,,,,,,,,,,,a,1,4.328795,,,,,,,,tex_hard_TA/1.6_r=TA_seed=1.png,,0,,texture,a,hard,5f5e32a0d6a12c6857b8e127,25,male,2021-05-03_03h03.09.501,search_v5,2021.1.2,MacIntel,60.0024001,,,space,0.35204,0,25,25,133,1,,,,,,,,,,,,,,,
,,,,,,,,,,,,,,,,p,1,1.20934,,,,,,,,tex_mid_TP/1.65_r=450_phi=90_seed=2.png,,1,,texture,p,mid,5f5e32a0d6a12c6857b8e127,25,male,2021-05-03_03h03.09.501,search_v5,2021.1.2,MacIntel,60.0024001,,,space,0.250125,0,26,26,77,1,,,,,,,,,,,,,,,
,,,,,,,,,,,,,,,,p,1,0.707665,,,,,,,,tex_easy_TP/1.7_r=150_phi=225_seed=3.png,,1,,texture,p,easy,5f5e32a0d6a12c6857b8e127,25,male,2021-05-03_03h03.09.501,search_v5,2021.1.2,MacIntel,60.0024001,,,space,0.251835,0,27,27,0,1,,,,,,,,,,,,,,,
,,,,,,,,,,,,,,,,a,0,4.70221,,,,,,,,tex_hard_TP/1.6_r=300_phi=90_seed=1.png,,1,,texture,p,hard,5f5e32a0d6a12c6857b8e127,25,male,2021-05-03_03h03.09.501,search_v5,2021.1.2,MacIntel,60.0024001,,,space,0.084375,0,28,28,46,1,,,,,,,,,,,,,,,
,,,,,,,,,,,,,,,,p,1,0.699085,,,,,,,,tex_easy_TP/1.7_r=150_phi=90_seed=3.png,,1,,texture,p,easy,5f5e32a0d6a12c6857b8e127,25,male,2021-05-03_03h03.09.501,search_v5,2021.1.2,MacIntel,60.0024001,,,space,0.232625,0,29,29,12,1,,,,,,,,,,,,,,,
,,,,,,,,,,,,,,,,a,1,2.80646,,,,,,,,tex_hard_TA/1.6_r=TA_seed=1.png,,0,,texture,a,hard,5f5e32a0d6a12c6857b8e127,25,male,2021-05-03_03h03.09.501,search_v5,2021.1.2,MacIntel,60.0024001,,,space,0.41946,0,30,30,132,1,,,,,,,,,,,,,,,
,,,,,,,,,,,,,,,,a,1,4.864755,,,,,,,,tex_easy_TA/1.7_r=TA_seed=3.png,,0,,texture,a,easy,5f5e32a0d6a12c6857b8e127,25,male,2021-05-03_03h03.09.501,search_v5,2021.1.2,MacIntel,60.0024001,,,space,0.441495,0,31,31,109,1,,,,,,,,,,,,,,,
,,,,,,,,,,,,,,,,a,1,5.43792,,,,,,,,tex_easy_TA/1.7_r=TA_seed=3.png,,0,,texture,a,easy,5f5e32a0d6a12c6857b8e127,25,male,2021-05-03_03h03.09.501,search_v5,2021.1.2,MacIntel,60.0024001,,,space,0.40117,0,32,32,108,1,,,,,,,,,,,,,,,
,,,,,,,,,,,,,,,,a,1,3.43813,,,,,,,,tex_mid_TA/1.65_r=TA_seed=2.png,,0,,texture,a,mid,5f5e32a0d6a12c6857b8e127,25,male,2021-05-03_03h03.09.501,search_v5,2021.1.2,MacIntel,60.0024001,,,space,0.36817,0,33,33,97,1,,,,,,,,,,,,,,,
,,,,,,,,,,,,,,,,a,1,3.872835,,,,,,,,tex_hard_TA/1.6_r=TA_seed=1.png,,0,,texture,a,hard,5f5e32a0d6a12c6857b8e127,25,male,2021-05-03_03h03.09.501,search_v5,2021.1.2,MacIntel,60.0024001,,,space,0.433335,0,34,34,130,1,,,,,,,,,,,,,,,
,,,,,,,,,,,,,,,,p,1,0.770585,,,,,,,,tex_mid_TP/1.65_r=350_phi=90_seed=2.png,,1,,texture,p,mid,5f5e32a0d6a12c6857b8e127,25,male,2021-05-03_03h03.09.501,search_v5,2021.1.2,MacIntel,60.0024001,,,space,0.24054,0,35,35,71,1,,,,,,,,,,,,,,,
,,,,,,,,,,,,,,,,p,1,0.54421,,,,,,,,tex_mid_TP/1.65_r=300_phi=90_seed=2.png,,1,,texture,p,mid,5f5e32a0d6a12c6857b8e127,25,male,2021-05-03_03h03.09.501,search_v5,2021.1.2,MacIntel,60.0024001,,,space,0.22421,0,36,36,69,1,,,,,,,,,,,,,,,
,,,,,,,,,,,,,,,,a,1,4.37383,,,,,,,,tex_mid_TA/1.65_r=TA_seed=2.png,,0,,texture,a,mid,5f5e32a0d6a12c6857b8e127,25,male,2021-05-03_03h03.09.501,search_v5,2021.1.2,MacIntel,60.0024001,,,space,0.53475,0,37,37,88,1,,,,,,,,,,,,,,,
,,,,,,,,,,,,,,,,a,1,3.15104,,,,,,,,tex_easy_TA/1.7_r=TA_seed=3.png,,0,,texture,a,easy,5f5e32a0d6a12c6857b8e127,25,male,2021-05-03_03h03.09.501,search_v5,2021.1.2,MacIntel,60.0024001,,,space,0.391205,0,38,38,9,1,,,,,,,,,,,,,,,
,,,,,,,,,,,,,,,,a,1,3.354585,,,,,,,,tex_hard_TA/1.6_r=TA_seed=1.png,,0,,texture,a,hard,5f5e32a0d6a12c6857b8e127,25,male,2021-05-03_03h03.09.501,search_v5,2021.1.2,MacIntel,60.0024001,,,space,0.379415,0,39,39,146,1,,,,,,,,,,,,,,,
,,,,,,,,,,,,,,,,a,1,3.52937,,,,,,,,tex_easy_TA/1.7_r=TA_seed=3.png,,0,,texture,a,easy,5f5e32a0d6a12c6857b8e127,25,male,2021-05-03_03h03.09.501,search_v5,2021.1.2,MacIntel,60.0024001,,,space,0.367875,0,40,40,112,1,,,,,,,,,,,,,,,
,,,,,,,,,,,,,,,,a,1,4.17704,,,,,,,,tex_easy_TA/1.7_r=TA_seed=3.png,,0,,texture,a,easy,5f5e32a0d6a12c6857b8e127,25,male,2021-05-03_03h03.09.501,search_v5,2021.1.2,MacIntel,60.0024001,,,space,0.317335,0,41,41,120,1,,,,,,,,,,,,,,,
,,,,,,,,,,,,,,,,p,1,3.016705,,,,,,,,tex_easy_TP/1.7_r=400_phi=135_seed=3.png,,1,,texture,p,easy,5f5e32a0d6a12c6857b8e127,25,male,2021-05-03_03h03.09.501,search_v5,2021.1.2,MacIntel,60.0024001,,,space,0.234045,0,42,42,28,1,,,,,,,,,,,,,,,
,,,,,,,,,,,,,,,,a,1,3.070125,,,,,,,,tex_easy_TA/1.7_r=TA_seed=3.png,,0,,texture,a,easy,5f5e32a0d6a12c6857b8e127,25,male,2021-05-03_03h03.09.501,search_v5,2021.1.2,MacIntel,60.0024001,,,space,0.352375,0,43,43,8,1,,,,,,,,,,,,,,,
,,,,,,,,,,,,,,,,a,1,2.881585,,,,,,,,tex_easy_TA/1.7_r=TA_seed=3.png,,0,,texture,a,easy,5f5e32a0d6a12c6857b8e127,25,male,2021-05-03_03h03.09.501,search_v5,2021.1.2,MacIntel,60.0024001,,,space,0.317915,0,44,44,115,1,,,,,,,,,,,,,,,
,,,,,,,,,,,,,,,,p,1,0.934125,,,,,,,,tex_easy_TP/1.7_r=450_phi=225_seed=3.png,,1,,texture,p,easy,5f5e32a0d6a12c6857b8e127,25,male,2021-05-03_03h03.09.501,search_v5,2021.1.2,MacIntel,60.0024001,,,space,0.22196,0,45,45,33,1,,,,,,,,,,,,,,,
,,,,,,,,,,,,,,,,a,1,2.721875,,,,,,,,tex_easy_TA/1.7_r=TA_seed=3.png,,0,,texture,a,easy,5f5e32a0d6a12c6857b8e127,25,male,2021-05-03_03h03.09.501,search_v5,2021.1.2,MacIntel,60.0024001,,,space,0.38471,0,46,46,107,1,,,,,,,,,,,,,,,
,,,,,,,,,,,,,,,,a,1,1.82158,,,,,,,,tex_easy_TA/1.7_r=TA_seed=3.png,,0,,texture,a,easy,5f5e32a0d6a12c6857b8e127,25,male,2021-05-03_03h03.09.501,search_v5,2021.1.2,MacIntel,60.0024001,,,space,0.31916,0,47,47,116,1,,,,,,,,,,,,,,,
,,,,,,,,,,,,,,,,a,1,2.494545,,,,,,,,tex_easy_TA/1.7_r=TA_seed=3.png,,0,,texture,a,easy,5f5e32a0d6a12c6857b8e127,25,male,2021-05-03_03h03.09.501,search_v5,2021.1.2,MacIntel,60.0024001,,,space,0.353205,0,48,48,121,1,,,,,,,,,,,,,,,
,,,,,,,,,,,,,,,,a,1,3.72163,,,,,,,,tex_easy_TA/1.7_r=TA_seed=3.png,,0,,texture,a,easy,5f5e32a0d6a12c6857b8e127,25,male,2021-05-03_03h03.09.501,search_v5,2021.1.2,MacIntel,60.0024001,,,space,0.402295,0,49,49,114,1,,,,,,,,,,,,,,,
,,,,,,,,,,,,,,,,a,1,3.371335,,,,,,,,tex_hard_TA/1.6_r=TA_seed=1.png,,0,,texture,a,hard,5f5e32a0d6a12c6857b8e127,25,male,2021-05-03_03h03.09.501,search_v5,2021.1.2,MacIntel,60.0024001,,,space,0.401295,0,50,50,10,1,,,,,,,,,,,,,,,
,,,,,,,,,,,,,,,,a,0,2.55554,,,,,,,,tex_hard_TP/1.6_r=400_phi=225_seed=1.png,,1,,texture,p,hard,5f5e32a0d6a12c6857b8e127,25,male,2021-05-03_03h03.09.501,search_v5,2021.1.2,MacIntel,60.0024001,,,space,0.09804,0,51,51,49,1,,,,,,,,,,,,,,,
,,,,,,,,,,,,,,,,a,1,4.23558,,,,,,,,tex_mid_TA/1.65_r=TA_seed=2.png,,0,,texture,a,mid,5f5e32a0d6a12c6857b8e127,25,male,2021-05-03_03h03.09.501,search_v5,2021.1.2,MacIntel,60.0024001,,,space,0.432125,0,52,52,96,1,,,,,,,,,,,,,,,
,,,,,,,,,,,,,,,,p,1,0.836665,,,,,,,,tex_easy_TP/1.7_r=400_phi=225_seed=3.png,,1,,texture,p,easy,5f5e32a0d6a12c6857b8e127,25,male,2021-05-03_03h03.09.501,search_v5,2021.1.2,MacIntel,60.0024001,,,space,0.23821,0,53,53,29,1,,,,,,,,,,,,,,,
,,,,,,,,,,,,,,,,p,1,1.218375,,,,,,,,tex_easy_TP/1.7_r=450_phi=315_seed=3.png,,1,,texture,p,easy,5f5e32a0d6a12c6857b8e127,25,male,2021-05-03_03h03.09.501,search_v5,2021.1.2,MacIntel,60.0024001,,,space,0.23421,0,54,54,34,1,,,,,,,,,,,,,,,
,,,,,,,,,,,,,,,,p,1,1.916705,,,,,,,,tex_hard_TP/1.6_r=200_phi=135_seed=1.png,,1,,texture,p,hard,5f5e32a0d6a12c6857b8e127,25,male,2021-05-03_03h03.09.501,search_v5,2021.1.2,MacIntel,60.0024001,,,space,0.24325,0,55,55,38,1,,,,,,,,,,,,,,,
,,,,,,,,,,,,,,,,a,1,3.355545,,,,,,,,tex_mid_TA/1.65_r=TA_seed=2.png,,0,,texture,a,mid,5f5e32a0d6a12c6857b8e127,25,male,2021-05-03_03h03.09.501,search_v5,2021.1.2,MacIntel,60.0024001,,,space,0.37029,0,56,56,84,1,,,,,,,,,,,,,,,
,,,,,,,,,,,,,,,,a,0,4.217335,,,,,,,,tex_hard_TP/1.6_r=150_phi=90_seed=1.png,,1,,texture,p,hard,5f5e32a0d6a12c6857b8e127,25,male,2021-05-03_03h03.09.501,search_v5,2021.1.2,MacIntel,60.0024001,,,space,0.088545,0,57,57,37,1,,,,,,,,,,,,,,,
,,,,,,,,,,,,,,,,a,1,5.12617,,,,,,,,tex_mid_TA/1.65_r=TA_seed=2.png,,0,,texture,a,mid,5f5e32a0d6a12c6857b8e127,25,male,2021-05-03_03h03.09.501,search_v5,2021.1.2,MacIntel,60.0024001,,,space,0.418625,0,58,58,103,1,,,,,,,,,,,,,,,
,,,,,,,,,,,,,,,,a,1,3.591715,,,,,,,,tex_mid_TA/1.65_r=TA_seed=2.png,,0,,texture,a,mid,5f5e32a0d6a12c6857b8e127,25,male,2021-05-03_03h03.09.501,search_v5,2021.1.2,MacIntel,60.0024001,,,space,0.395085,0,59,59,90,1,,,,,,,,,,,,,,,
,,,,,,,,,,,,,,,,p,1,1.258335,,,,,,,,tex_mid_TP/1.65_r=350_phi=0_seed=2.png,,1,,texture,p,mid,5f5e32a0d6a12c6857b8e127,25,male,2021-05-03_03h03.09.501,search_v5,2021.1.2,MacIntel,60.0024001,,,space,0.25346,0,60,60,70,1,,,,,,,,,,,,,,,
,,,,,,,,,,,,,,,,a,1,3.869045,,,,,,,,tex_easy_TA/1.7_r=TA_seed=3.png,,0,,texture,a,easy,5f5e32a0d6a12c6857b8e127,25,male,2021-05-03_03h03.09.501,search_v5,2021.1.2,MacIntel,60.0024001,,,space,0.35975,0,61,61,118,1,,,,,,,,,,,,,,,
,,,,,,,,,,,,,,,,a,1,2.620125,,,,,,,,tex_hard_TA/1.6_r=TA_seed=1.png,,0,,texture,a,hard,5f5e32a0d6a12c6857b8e127,25,male,2021-05-03_03h03.09.501,search_v5,2021.1.2,MacIntel,60.0024001,,,space,0.382875,0,62,62,11,1,,,,,,,,,,,,,,,
,,,,,,,,,,,,,,,,a,1,3.69163,,,,,,,,tex_hard_TA/1.6_r=TA_seed=1.png,,0,,texture,a,hard,5f5e32a0d6a12c6857b8e127,25,male,2021-05-03_03h03.09.501,search_v5,2021.1.2,MacIntel,60.0024001,,,space,0.471585,0,63,63,136,1,,,,,,,,,,,,,,,
,,,,,,,,,,,,,,,,a,1,4.41996,,,,,,,,tex_easy_TA/1.7_r=TA_seed=3.png,,0,,texture,a,easy,5f5e32a0d6a12c6857b8e127,25,male,2021-05-03_03h03.09.501,search_v5,2021.1.2,MacIntel,60.0024001,,,space,0.45333,0,64,64,122,1,,,,,,,,,,,,,,,
,,,,,,,,,,,,,,,,p,1,0.66492,,,,,,,,tex_mid_TP/1.65_r=200_phi=45_seed=2.png,,1,,texture,p,mid,5f5e32a0d6a12c6857b8e127,25,male,2021-05-03_03h03.09.501,search_v5,2021.1.2,MacIntel,60.0024001,,,space,0.239585,0,65,65,62,1,,,,,,,,,,,,,,,
,,,,,,,,,,,,,,,,a,0,3.42192,,,,,,,,tex_hard_TP/1.6_r=400_phi=90_seed=1.png,,1,,texture,p,hard,5f5e32a0d6a12c6857b8e127,25,male,2021-05-03_03h03.09.501,search_v5,2021.1.2,MacIntel,60.0024001,,,space,0.189245,0,66,66,51,1,,,,,,,,,,,,,,,
,,,,,,,,,,,,,,,,a,0,3.45125,,,,,,,,tex_hard_TP/1.6_r=200_phi=315_seed=1.png,,1,,texture,p,hard,5f5e32a0d6a12c6857b8e127,25,male,2021-05-03_03h03.09.501,search_v5,2021.1.2,MacIntel,60.0024001,,,space,0.199,0,67,67,40,1,,,,,,,,,,,,,,,
,,,,,,,,,,,,,,,,a,1,4.32146,,,,,,,,tex_mid_TA/1.65_r=TA_seed=2.png,,0,,texture,a,mid,5f5e32a0d6a12c6857b8e127,25,male,2021-05-03_03h03.09.501,search_v5,2021.1.2,MacIntel,60.0024001,,,space,0.616875,0,68,68,98,1,,,,,,,,,,,,,,,
,,,,,,,,,,,,,,,,p,1,1.19408,,,,,,,,tex_hard_TP/1.6_r=150_phi=135_seed=1.png,,1,,texture,p,hard,5f5e32a0d6a12c6857b8e127,25,male,2021-05-03_03h03.09.501,search_v5,2021.1.2,MacIntel,60.0024001,,,space,0.25441,0,69,69,36,1,,,,,,,,,,,,,,,
,,,,,,,,,,,,,,,,a,1,4.23842,,,,,,,,tex_easy_TA/1.7_r=TA_seed=3.png,,0,,texture,a,easy,5f5e32a0d6a12c6857b8e127,25,male,2021-05-03_03h03.09.501,search_v5,2021.1.2,MacIntel,60.0024001,,,space,0.574625,0,70,70,123,1,,,,,,,,,,,,,,,
,,,,,,,,,,,,,,,,a,1,3.238415,,,,,,,,tex_hard_TA/1.6_r=TA_seed=1.png,,0,,texture,a,hard,5f5e32a0d6a12c6857b8e127,25,male,2021-05-03_03h03.09.501,search_v5,2021.1.2,MacIntel,60.0024001,,,space,0.39217,0,71,71,142,1,,,,,,,,,,,,,,,
,,,,,,,,,,,,,,,,a,1,3.088665,,,,,,,,tex_easy_TA/1.7_r=TA_seed=3.png,,0,,texture,a,easy,5f5e32a0d6a12c6857b8e127,25,male,2021-05-03_03h03.09.501,search_v5,2021.1.2,MacIntel,60.0024001,,,space,0.656375,0,72,72,119,1,,,,,,,,,,,,,,,
,,,,,,,,,,,,,,,,a,0,2.43829,,,,,,,,tex_hard_TP/1.6_r=100_phi=0_seed=1.png,,1,,texture,p,hard,5f5e32a0d6a12c6857b8e127,25,male,2021-05-03_03h03.09.501,search_v5,2021.1.2,MacIntel,60.0024001,,,space,0.08392,0,73,73,2,1,,,,,,,,,,,,,,,
,,,,,,,,,,,,,,,,p,1,1.817205,,,,,,,,tex_mid_TP/1.65_r=300_phi=135_seed=2.png,,1,,texture,p,mid,5f5e32a0d6a12c6857b8e127,25,male,2021-05-03_03h03.09.501,search_v5,2021.1.2,MacIntel,60.0024001,,,space,0.28204,0,74,74,66,1,,,,,,,,,,,,,,,
,,,,,,,,,,,,,,,,a,0,4.33383,,,,,,,,tex_hard_TP/1.6_r=400_phi=315_seed=1.png,,1,,texture,p,hard,5f5e32a0d6a12c6857b8e127,25,male,2021-05-03_03h03.09.501,search_v5,2021.1.2,MacIntel,60.0024001,,,space,0.76675,0,75,75,50,1,,,,,,,,,,,,,,,
,,,,,,,,,,,,,,,,a,0,5.203915,,,,,,,,tex_hard_TP/1.6_r=100_phi=90_seed=1.png,,1,,texture,p,hard,5f5e32a0d6a12c6857b8e127,25,male,2021-05-03_03h03.09.501,search_v5,2021.1.2,MacIntel,60.0024001,,,space,0.00079,0,76,76,35,1,,,,,,,,,,,,,,,
,,,,,,,,,,,,,,,,a,0,7.47654,,,,,,,,tex_hard_TP/1.6_r=450_phi=315_seed=1.png,,1,,texture,p,hard,5f5e32a0d6a12c6857b8e127,25,male,2021-05-03_03h03.09.501,search_v5,2021.1.2,MacIntel,60.0024001,,,space,1.317165,0,77,77,53,1,,,,,,,,,,,,,,,
,,,,,,,,,,,,,,,,p,1,1.44771,,,,,,,,tex_mid_TP/1.65_r=50_phi=270_seed=2.png,,1,,texture,p,mid,5f5e32a0d6a12c6857b8e127,25,male,2021-05-03_03h03.09.501,search_v5,2021.1.2,MacIntel,60.0024001,,,space,1.082415,0,78,78,78,1,,,,,,,,,,,,,,,
,,,,,,,,,,,,,,,,p,1,1.117125,,,,,,,,tex_mid_TP/1.65_r=100_phi=45_seed=2.png,,1,,texture,p,mid,5f5e32a0d6a12c6857b8e127,25,male,2021-05-03_03h03.09.501,search_v5,2021.1.2,MacIntel,60.0024001,,,space,0.38433,0,79,79,58,1,,,,,,,,,,,,,,,
,,,,,,,,,,,,,,,,p,1,1.76917,,,,,,,,tex_easy_TP/1.7_r=200_phi=90_seed=3.png,,1,,texture,p,easy,5f5e32a0d6a12c6857b8e127,25,male,2021-05-03_03h03.09.501,search_v5,2021.1.2,MacIntel,60.0024001,,,space,0.309505,0,80,80,16,1,,,,,,,,,,,,,,,
,,,,,,,,,,,,,,,,a,0,3.63608,,,,,,,,tex_hard_TP/1.6_r=450_phi=135_seed=1.png,,1,,texture,p,hard,5f5e32a0d6a12c6857b8e127,25,male,2021-05-03_03h03.09.501,search_v5,2021.1.2,MacIntel,60.0024001,,,space,0.267625,0,81,81,52,1,,,,,,,,,,,,,,,
,,,,,,,,,,,,,,,,p,1,2.80025,,,,,,,,tex_mid_TP/1.65_r=150_phi=45_seed=2.png,,1,,texture,p,mid,5f5e32a0d6a12c6857b8e127,25,male,2021-05-03_03h03.09.501,search_v5,2021.1.2,MacIntel,60.0024001,,,space,0.486415,0,82,82,59,1,,,,,,,,,,,,,,,
,,,,,,,,,,,,,,,,a,1,4.489505,,,,,,,,tex_mid_TA/1.65_r=TA_seed=2.png,,0,,texture,a,mid,5f5e32a0d6a12c6857b8e127,25,male,2021-05-03_03h03.09.501,search_v5,2021.1.2,MacIntel,60.0024001,,,space,0.72654,0,83,83,99,1,,,,,,,,,,,,,,,
,,,,,,,,,,,,,,,,a,1,3.403755,,,,,,,,tex_easy_TA/1.7_r=TA_seed=3.png,,0,,texture,a,easy,5f5e32a0d6a12c6857b8e127,25,male,2021-05-03_03h03.09.501,search_v5,2021.1.2,MacIntel,60.0024001,,,space,0.67521,0,84,84,111,1,,,,,,,,,,,,,,,
