key_resp_6.keys,key_resp_6.rt,key_resp_7.keys,key_resp_7.rt,key_resp_8.keys,key_resp_8.rt,key_resp_10.keys,key_resp_10.rt,key_resp_9.keys,key_resp_9.rt,key_resp_14.keys,key_resp_14.rt,key_resp_3.keys,key_resp_3.rt,key_resp_5.keys,key_resp_5.rt,key_resp.keys,key_resp.corr,key_resp.rt,key_resp_12.keys,key_resp_12.rt,practice.thisRepN,practice.thisTrialN,practice.thisN,practice.thisIndex,practice.ran,ImageFile,tarPos,targPres,numDist,targetName,correctAns,difficulty,participant,age,sex,date,expName,psychopyVersion,OS,frameRate,key_resp_13.keys,key_resp_13.rt,key_resp_4.keys,key_resp_4.rt,trials.thisRepN,trials.thisTrialN,trials.thisN,trials.thisIndex,trials.ran,trials_2.thisRepN,trials_2.thisTrialN,trials_2.thisN,trials_2.thisIndex,trials_2.ran,condsFile,targName,instructionText,stimExample,posit,size,stimSize,practiceFile,key_resp_15.keys,key_resp_15.rt
space,686.79798,space,2.497955,space,2.58541,space,2.350165,space,1.543575,space,14.9738,space,176.588315,space,4.71496,p,0,0.72812,space,1.37046,0,0,0,7,1,0_targ_4_dist_green/trial2.png,,0,4,greenverival,a,easy,605d8056fdf44e1e528b0e7e,25,male,2021-05-03_12h09.57.988,search_v5,2021.1.2,Win32,144.1753172,,,,,,,,,,,,,,,,,,,,,,,,
,,,,,,,,,,,,,,,,a,1,0.857495,space,22.744155,0,1,1,6,1,0_targ_4_dist_green/trial1.png,,0,4,greenverival,a,easy,605d8056fdf44e1e528b0e7e,25,male,2021-05-03_12h09.57.988,search_v5,2021.1.2,Win32,144.1753172,,,,,,,,,,,,,,,,,,,,,,,,
,,,,,,,,,,,,,,,,a,1,0.90562,space,0.41361,0,2,2,8,1,0_targ_10_dist_green/trial1.png,,0,10,greenverival,a,mid,605d8056fdf44e1e528b0e7e,25,male,2021-05-03_12h09.57.988,search_v5,2021.1.2,Win32,144.1753172,,,,,,,,,,,,,,,,,,,,,,,,
,,,,,,,,,,,,,,,,p,1,2.61377,space,0.72183,0,3,3,5,1,15_dist_green/trial2.png,,1,15,greenverival,p,hard,605d8056fdf44e1e528b0e7e,25,male,2021-05-03_12h09.57.988,search_v5,2021.1.2,Win32,144.1753172,,,,,,,,,,,,,,,,,,,,,,,,
,,,,,,,,,,,,,,,,a,1,0.72339,space,0.23727,0,4,4,11,1,0_targ_16_dist_green/trial2.png,,0,16,greenverival,a,hard,605d8056fdf44e1e528b0e7e,25,male,2021-05-03_12h09.57.988,search_v5,2021.1.2,Win32,144.1753172,,,,,,,,,,,,,,,,,,,,,,,,
,,,,,,,,,,,,,,,,p,1,0.480285,space,0.09897,0,5,5,0,1,3_dist_green/trial1.png,,1,3,greenverival,p,easy,605d8056fdf44e1e528b0e7e,25,male,2021-05-03_12h09.57.988,search_v5,2021.1.2,Win32,144.1753172,,,,,,,,,,,,,,,,,,,,,,,,
,,,,,,,,,,,,,,,,p,1,0.651785,space,0.074555,0,6,6,4,1,15_dist_green/trial1.png,,1,15,greenverival,p,hard,605d8056fdf44e1e528b0e7e,25,male,2021-05-03_12h09.57.988,search_v5,2021.1.2,Win32,144.1753172,,,,,,,,,,,,,,,,,,,,,,,,
,,,,,,,,,,,,,,,,a,1,0.592995,space,0.10586,0,7,7,10,1,0_targ_16_dist_green/trial1.png,,0,16,greenverival,a,hard,605d8056fdf44e1e528b0e7e,25,male,2021-05-03_12h09.57.988,search_v5,2021.1.2,Win32,144.1753172,,,,,,,,,,,,,,,,,,,,,,,,
,,,,,,,,,,,,,,,,p,1,0.69248,space,0.073685,0,8,8,3,1,9_dist_green/trial2.png,,1,9,greenverival,p,mid,605d8056fdf44e1e528b0e7e,25,male,2021-05-03_12h09.57.988,search_v5,2021.1.2,Win32,144.1753172,,,,,,,,,,,,,,,,,,,,,,,,
,,,,,,,,,,,,,,,,p,1,0.511965,space,0.1011,0,9,9,2,1,9_dist_green/trial1.png,,1,9,greenverival,p,mid,605d8056fdf44e1e528b0e7e,25,male,2021-05-03_12h09.57.988,search_v5,2021.1.2,Win32,144.1753172,,,,,,,,,,,,,,,,,,,,,,,,
,,,,,,,,,,,,,,,,a,1,0.55163,space,0.07925,0,10,10,9,1,0_targ_10_dist_green/trial2.png,,0,10,greenverival,a,mid,605d8056fdf44e1e528b0e7e,25,male,2021-05-03_12h09.57.988,search_v5,2021.1.2,Win32,144.1753172,,,,,,,,,,,,,,,,,,,,,,,,
,,,,,,,,,,,,,,,,p,1,0.634645,space,0.1987,0,11,11,1,1,3_dist_green/trial2.png,,1,3,greenverival,p,easy,605d8056fdf44e1e528b0e7e,25,male,2021-05-03_12h09.57.988,search_v5,2021.1.2,Win32,144.1753172,,,,,,,,,,,,,,,,,,,,,,,,
,,,,,,,,,,,,,,,,p,1,0.898185,,,,,,,,9_dist_green/trial21.png,,1,9,greenverival,p,mid,605d8056fdf44e1e528b0e7e,25,male,2021-05-03_12h09.57.988,search_v5,2021.1.2,Win32,144.1753172,space,12.862325,space,0.09699,0,0,0,53,1,,,,,,,,,,,,,,,
,,,,,,,,,,,,,,,,a,1,0.68096,,,,,,,,0_targ_10_dist_green/trial14.png,,0,10,greenverival,a,mid,605d8056fdf44e1e528b0e7e,25,male,2021-05-03_12h09.57.988,search_v5,2021.1.2,Win32,144.1753172,,,space,0.065485,0,1,1,115,1,,,,,,,,,,,,,,,
,,,,,,,,,,,,,,,,a,1,0.597185,,,,,,,,0_targ_16_dist_green/trial1.png,,0,16,greenverival,a,hard,605d8056fdf44e1e528b0e7e,25,male,2021-05-03_12h09.57.988,search_v5,2021.1.2,Win32,144.1753172,,,space,0.033075,0,2,2,10,1,,,,,,,,,,,,,,,
,,,,,,,,,,,,,,,,p,1,0.6444,,,,,,,,9_dist_green/trial9.png,,1,9,greenverival,p,mid,605d8056fdf44e1e528b0e7e,25,male,2021-05-03_12h09.57.988,search_v5,2021.1.2,Win32,144.1753172,,,space,0.113745,0,3,3,41,1,,,,,,,,,,,,,,,
,,,,,,,,,,,,,,,,a,1,0.579395,,,,,,,,0_targ_10_dist_green/trial6.png,,0,10,greenverival,a,mid,605d8056fdf44e1e528b0e7e,25,male,2021-05-03_12h09.57.988,search_v5,2021.1.2,Win32,144.1753172,,,space,0.09562,0,4,4,107,1,,,,,,,,,,,,,,,
,,,,,,,,,,,,,,,,a,1,0.64411,,,,,,,,0_targ_16_dist_green/trial19.png,,0,16,greenverival,a,hard,605d8056fdf44e1e528b0e7e,25,male,2021-05-03_12h09.57.988,search_v5,2021.1.2,Win32,144.1753172,,,space,0.11913,0,5,5,143,1,,,,,,,,,,,,,,,
,,,,,,,,,,,,,,,,p,1,0.68909,,,,,,,,15_dist_green/trial4.png,,1,15,greenverival,p,hard,605d8056fdf44e1e528b0e7e,25,male,2021-05-03_12h09.57.988,search_v5,2021.1.2,Win32,144.1753172,,,space,0.163045,0,6,6,59,1,,,,,,,,,,,,,,,
,,,,,,,,,,,,,,,,a,1,0.50614,,,,,,,,0_targ_10_dist_green/trial20.png,,0,10,greenverival,a,mid,605d8056fdf44e1e528b0e7e,25,male,2021-05-03_12h09.57.988,search_v5,2021.1.2,Win32,144.1753172,,,space,0.07885,0,7,7,121,1,,,,,,,,,,,,,,,
,,,,,,,,,,,,,,,,a,1,0.47445,,,,,,,,0_targ_10_dist_green/trial21.png,,0,10,greenverival,a,mid,605d8056fdf44e1e528b0e7e,25,male,2021-05-03_12h09.57.988,search_v5,2021.1.2,Win32,144.1753172,,,space,0.079325,0,8,8,122,1,,,,,,,,,,,,,,,
,,,,,,,,,,,,,,,,a,1,0.616055,,,,,,,,0_targ_16_dist_green/trial22.png,,0,16,greenverival,a,hard,605d8056fdf44e1e528b0e7e,25,male,2021-05-03_12h09.57.988,search_v5,2021.1.2,Win32,144.1753172,,,space,0.033085,0,9,9,146,1,,,,,,,,,,,,,,,
,,,,,,,,,,,,,,,,p,1,0.57835,,,,,,,,9_dist_green/trial25.png,,1,9,greenverival,p,mid,605d8056fdf44e1e528b0e7e,25,male,2021-05-03_12h09.57.988,search_v5,2021.1.2,Win32,144.1753172,,,space,0.15172,0,10,10,57,1,,,,,,,,,,,,,,,
,,,,,,,,,,,,,,,,p,1,0.558485,,,,,,,,3_dist_green/trial22.png,,1,3,greenverival,p,easy,605d8056fdf44e1e528b0e7e,25,male,2021-05-03_12h09.57.988,search_v5,2021.1.2,Win32,144.1753172,,,space,0.135595,0,11,11,31,1,,,,,,,,,,,,,,,
,,,,,,,,,,,,,,,,a,1,0.468995,,,,,,,,0_targ_4_dist_green/trial4.png,,0,4,greenverival,a,easy,605d8056fdf44e1e528b0e7e,25,male,2021-05-03_12h09.57.988,search_v5,2021.1.2,Win32,144.1753172,,,space,0.12598,0,12,12,82,1,,,,,,,,,,,,,,,
,,,,,,,,,,,,,,,,a,1,0.471235,,,,,,,,0_targ_10_dist_green/trial25.png,,0,10,greenverival,a,mid,605d8056fdf44e1e528b0e7e,25,male,2021-05-03_12h09.57.988,search_v5,2021.1.2,Win32,144.1753172,,,space,0.06885,0,13,13,126,1,,,,,,,,,,,,,,,
,,,,,,,,,,,,,,,,p,1,0.52407,,,,,,,,15_dist_green/trial19.png,,1,15,greenverival,p,hard,605d8056fdf44e1e528b0e7e,25,male,2021-05-03_12h09.57.988,search_v5,2021.1.2,Win32,144.1753172,,,space,0.14401,0,14,14,74,1,,,,,,,,,,,,,,,
,,,,,,,,,,,,,,,,a,1,0.603945,,,,,,,,0_targ_16_dist_green/trial13.png,,0,16,greenverival,a,hard,605d8056fdf44e1e528b0e7e,25,male,2021-05-03_12h09.57.988,search_v5,2021.1.2,Win32,144.1753172,,,space,0.07173,0,15,15,137,1,,,,,,,,,,,,,,,
,,,,,,,,,,,,,,,,p,1,0.549815,,,,,,,,15_dist_green/trial17.png,,1,15,greenverival,p,hard,605d8056fdf44e1e528b0e7e,25,male,2021-05-03_12h09.57.988,search_v5,2021.1.2,Win32,144.1753172,,,space,0.14919,0,16,16,72,1,,,,,,,,,,,,,,,
,,,,,,,,,,,,,,,,a,1,0.489985,,,,,,,,0_targ_4_dist_green/trial20.png,,0,4,greenverival,a,easy,605d8056fdf44e1e528b0e7e,25,male,2021-05-03_12h09.57.988,search_v5,2021.1.2,Win32,144.1753172,,,space,0.097565,0,17,17,98,1,,,,,,,,,,,,,,,
,,,,,,,,,,,,,,,,a,1,0.53883,,,,,,,,0_targ_10_dist_green/trial11.png,,0,10,greenverival,a,mid,605d8056fdf44e1e528b0e7e,25,male,2021-05-03_12h09.57.988,search_v5,2021.1.2,Win32,144.1753172,,,space,0.110825,0,18,18,112,1,,,,,,,,,,,,,,,
,,,,,,,,,,,,,,,,p,1,0.588795,,,,,,,,3_dist_green/trial23.png,,1,3,greenverival,p,easy,605d8056fdf44e1e528b0e7e,25,male,2021-05-03_12h09.57.988,search_v5,2021.1.2,Win32,144.1753172,,,space,0.14766,0,19,19,32,1,,,,,,,,,,,,,,,
,,,,,,,,,,,,,,,,p,1,0.566515,,,,,,,,3_dist_green/trial19.png,,1,3,greenverival,p,easy,605d8056fdf44e1e528b0e7e,25,male,2021-05-03_12h09.57.988,search_v5,2021.1.2,Win32,144.1753172,,,space,0.14867,0,20,20,28,1,,,,,,,,,,,,,,,
,,,,,,,,,,,,,,,,p,1,0.617955,,,,,,,,9_dist_green/trial4.png,,1,9,greenverival,p,mid,605d8056fdf44e1e528b0e7e,25,male,2021-05-03_12h09.57.988,search_v5,2021.1.2,Win32,144.1753172,,,space,0.167255,0,21,21,36,1,,,,,,,,,,,,,,,
,,,,,,,,,,,,,,,,a,1,0.525705,,,,,,,,0_targ_10_dist_green/trial4.png,,0,10,greenverival,a,mid,605d8056fdf44e1e528b0e7e,25,male,2021-05-03_12h09.57.988,search_v5,2021.1.2,Win32,144.1753172,,,space,0.132145,0,22,22,105,1,,,,,,,,,,,,,,,
,,,,,,,,,,,,,,,,a,1,0.484255,,,,,,,,0_targ_10_dist_green/trial16.png,,0,10,greenverival,a,mid,605d8056fdf44e1e528b0e7e,25,male,2021-05-03_12h09.57.988,search_v5,2021.1.2,Win32,144.1753172,,,space,0.089325,0,23,23,117,1,,,,,,,,,,,,,,,
,,,,,,,,,,,,,,,,p,1,0.58125,,,,,,,,9_dist_green/trial2.png,,1,9,greenverival,p,mid,605d8056fdf44e1e528b0e7e,25,male,2021-05-03_12h09.57.988,search_v5,2021.1.2,Win32,144.1753172,,,space,0.135425,0,24,24,3,1,,,,,,,,,,,,,,,
,,,,,,,,,,,,,,,,a,1,0.553145,,,,,,,,0_targ_4_dist_green/trial11.png,,0,4,greenverival,a,easy,605d8056fdf44e1e528b0e7e,25,male,2021-05-03_12h09.57.988,search_v5,2021.1.2,Win32,144.1753172,,,space,0.179815,0,25,25,89,1,,,,,,,,,,,,,,,
,,,,,,,,,,,,,,,,p,1,0.517285,,,,,,,,15_dist_green/trial13.png,,1,15,greenverival,p,hard,605d8056fdf44e1e528b0e7e,25,male,2021-05-03_12h09.57.988,search_v5,2021.1.2,Win32,144.1753172,,,space,0.201495,0,26,26,68,1,,,,,,,,,,,,,,,
,,,,,,,,,,,,,,,,p,1,0.709345,,,,,,,,9_dist_green/trial1.png,,1,9,greenverival,p,mid,605d8056fdf44e1e528b0e7e,25,male,2021-05-03_12h09.57.988,search_v5,2021.1.2,Win32,144.1753172,,,space,0.245755,0,27,27,2,1,,,,,,,,,,,,,,,
,,,,,,,,,,,,,,,,p,1,0.475825,,,,,,,,3_dist_green/trial14.png,,1,3,greenverival,p,easy,605d8056fdf44e1e528b0e7e,25,male,2021-05-03_12h09.57.988,search_v5,2021.1.2,Win32,144.1753172,,,space,0.198075,0,28,28,23,1,,,,,,,,,,,,,,,
,,,,,,,,,,,,,,,,a,1,1.12641,,,,,,,,0_targ_10_dist_green/trial12.png,,0,10,greenverival,a,mid,605d8056fdf44e1e528b0e7e,25,male,2021-05-03_12h09.57.988,search_v5,2021.1.2,Win32,144.1753172,,,space,0.145605,0,29,29,113,1,,,,,,,,,,,,,,,
,,,,,,,,,,,,,,,,p,1,0.49967,,,,,,,,9_dist_green/trial11.png,,1,9,greenverival,p,mid,605d8056fdf44e1e528b0e7e,25,male,2021-05-03_12h09.57.988,search_v5,2021.1.2,Win32,144.1753172,,,space,0.10466,0,30,30,43,1,,,,,,,,,,,,,,,
,,,,,,,,,,,,,,,,p,1,0.59259,,,,,,,,9_dist_green/trial20.png,,1,9,greenverival,p,mid,605d8056fdf44e1e528b0e7e,25,male,2021-05-03_12h09.57.988,search_v5,2021.1.2,Win32,144.1753172,,,space,0.10456,0,31,31,52,1,,,,,,,,,,,,,,,
,,,,,,,,,,,,,,,,p,1,0.601145,,,,,,,,9_dist_green/trial7.png,,1,9,greenverival,p,mid,605d8056fdf44e1e528b0e7e,25,male,2021-05-03_12h09.57.988,search_v5,2021.1.2,Win32,144.1753172,,,space,0.089455,0,32,32,39,1,,,,,,,,,,,,,,,
,,,,,,,,,,,,,,,,p,0,0.539865,,,,,,,,0_targ_16_dist_green/trial20.png,,0,16,greenverival,a,hard,605d8056fdf44e1e528b0e7e,25,male,2021-05-03_12h09.57.988,search_v5,2021.1.2,Win32,144.1753172,,,space,2.559365,0,33,33,144,1,,,,,,,,,,,,,,,
,,,,,,,,,,,,,,,,a,1,0.669155,,,,,,,,0_targ_4_dist_green/trial6.png,,0,4,greenverival,a,easy,605d8056fdf44e1e528b0e7e,25,male,2021-05-03_12h09.57.988,search_v5,2021.1.2,Win32,144.1753172,,,space,0.09575,0,34,34,94,1,,,,,,,,,,,,,,,
,,,,,,,,,,,,,,,,a,1,0.509075,,,,,,,,0_targ_10_dist_green/trial22.png,,0,10,greenverival,a,mid,605d8056fdf44e1e528b0e7e,25,male,2021-05-03_12h09.57.988,search_v5,2021.1.2,Win32,144.1753172,,,space,0.098455,0,35,35,123,1,,,,,,,,,,,,,,,
,,,,,,,,,,,,,,,,a,1,0.50553,,,,,,,,0_targ_16_dist_green/trial10.png,,0,16,greenverival,a,hard,605d8056fdf44e1e528b0e7e,25,male,2021-05-03_12h09.57.988,search_v5,2021.1.2,Win32,144.1753172,,,space,0.10815,0,36,36,134,1,,,,,,,,,,,,,,,
,,,,,,,,,,,,,,,,p,1,0.55825,,,,,,,,3_dist_green/trial17.png,,1,3,greenverival,p,easy,605d8056fdf44e1e528b0e7e,25,male,2021-05-03_12h09.57.988,search_v5,2021.1.2,Win32,144.1753172,,,space,0.12905,0,37,37,26,1,,,,,,,,,,,,,,,
,,,,,,,,,,,,,,,,p,1,0.472445,,,,,,,,9_dist_green/trial22.png,,1,9,greenverival,p,mid,605d8056fdf44e1e528b0e7e,25,male,2021-05-03_12h09.57.988,search_v5,2021.1.2,Win32,144.1753172,,,space,0.205425,0,38,38,54,1,,,,,,,,,,,,,,,
,,,,,,,,,,,,,,,,a,1,0.50128,,,,,,,,0_targ_16_dist_green/trial3.png,,0,16,greenverival,a,hard,605d8056fdf44e1e528b0e7e,25,male,2021-05-03_12h09.57.988,search_v5,2021.1.2,Win32,144.1753172,,,space,0.137725,0,39,39,127,1,,,,,,,,,,,,,,,
,,,,,,,,,,,,,,,,p,1,0.506895,,,,,,,,9_dist_green/trial19.png,,1,9,greenverival,p,mid,605d8056fdf44e1e528b0e7e,25,male,2021-05-03_12h09.57.988,search_v5,2021.1.2,Win32,144.1753172,,,space,0.175695,0,40,40,51,1,,,,,,,,,,,,,,,
,,,,,,,,,,,,,,,,a,1,0.4684,,,,,,,,0_targ_10_dist_green/trial23.png,,0,10,greenverival,a,mid,605d8056fdf44e1e528b0e7e,25,male,2021-05-03_12h09.57.988,search_v5,2021.1.2,Win32,144.1753172,,,space,0.131905,0,41,41,124,1,,,,,,,,,,,,,,,
,,,,,,,,,,,,,,,,a,1,0.52444,,,,,,,,0_targ_16_dist_green/trial16.png,,0,16,greenverival,a,hard,605d8056fdf44e1e528b0e7e,25,male,2021-05-03_12h09.57.988,search_v5,2021.1.2,Win32,144.1753172,,,space,0.056595,0,42,42,140,1,,,,,,,,,,,,,,,
,,,,,,,,,,,,,,,,a,1,0.410315,,,,,,,,0_targ_4_dist_green/trial9.png,,0,4,greenverival,a,easy,605d8056fdf44e1e528b0e7e,25,male,2021-05-03_12h09.57.988,search_v5,2021.1.2,Win32,144.1753172,,,space,0.155755,0,43,43,87,1,,,,,,,,,,,,,,,
,,,,,,,,,,,,,,,,a,1,0.42377,,,,,,,,0_targ_4_dist_green/trial12.png,,0,4,greenverival,a,easy,605d8056fdf44e1e528b0e7e,25,male,2021-05-03_12h09.57.988,search_v5,2021.1.2,Win32,144.1753172,,,space,0.149765,0,44,44,90,1,,,,,,,,,,,,,,,
,,,,,,,,,,,,,,,,a,1,0.39075,,,,,,,,0_targ_10_dist_green/trial2.png,,0,10,greenverival,a,mid,605d8056fdf44e1e528b0e7e,25,male,2021-05-03_12h09.57.988,search_v5,2021.1.2,Win32,144.1753172,,,space,0.103305,0,45,45,9,1,,,,,,,,,,,,,,,
,,,,,,,,,,,,,,,,a,1,0.513545,,,,,,,,0_targ_16_dist_green/trial14.png,,0,16,greenverival,a,hard,605d8056fdf44e1e528b0e7e,25,male,2021-05-03_12h09.57.988,search_v5,2021.1.2,Win32,144.1753172,,,space,0.16156,0,46,46,138,1,,,,,,,,,,,,,,,
,,,,,,,,,,,,,,,,p,1,0.506885,,,,,,,,9_dist_green/trial3.png,,1,9,greenverival,p,mid,605d8056fdf44e1e528b0e7e,25,male,2021-05-03_12h09.57.988,search_v5,2021.1.2,Win32,144.1753172,,,space,0.174415,0,47,47,35,1,,,,,,,,,,,,,,,
,,,,,,,,,,,,,,,,p,1,0.422185,,,,,,,,3_dist_green/trial13.png,,1,3,greenverival,p,easy,605d8056fdf44e1e528b0e7e,25,male,2021-05-03_12h09.57.988,search_v5,2021.1.2,Win32,144.1753172,,,space,0.159135,0,48,48,22,1,,,,,,,,,,,,,,,
,,,,,,,,,,,,,,,,p,1,0.38171,,,,,,,,3_dist_green/trial7.png,,1,3,greenverival,p,easy,605d8056fdf44e1e528b0e7e,25,male,2021-05-03_12h09.57.988,search_v5,2021.1.2,Win32,144.1753172,,,space,0.11682,0,49,49,16,1,,,,,,,,,,,,,,,
,,,,,,,,,,,,,,,,a,1,0.664765,,,,,,,,0_targ_4_dist_green/trial24.png,,0,4,greenverival,a,easy,605d8056fdf44e1e528b0e7e,25,male,2021-05-03_12h09.57.988,search_v5,2021.1.2,Win32,144.1753172,,,space,0.142665,0,50,50,102,1,,,,,,,,,,,,,,,
,,,,,,,,,,,,,,,,p,1,0.5051,,,,,,,,15_dist_green/trial9.png,,1,15,greenverival,p,hard,605d8056fdf44e1e528b0e7e,25,male,2021-05-03_12h09.57.988,search_v5,2021.1.2,Win32,144.1753172,,,space,0.12547,0,51,51,64,1,,,,,,,,,,,,,,,
,,,,,,,,,,,,,,,,p,1,0.516705,,,,,,,,15_dist_green/trial6.png,,1,15,greenverival,p,hard,605d8056fdf44e1e528b0e7e,25,male,2021-05-03_12h09.57.988,search_v5,2021.1.2,Win32,144.1753172,,,space,0.142635,0,52,52,61,1,,,,,,,,,,,,,,,
,,,,,,,,,,,,,,,,p,1,0.456355,,,,,,,,3_dist_green/trial5.png,,1,3,greenverival,p,easy,605d8056fdf44e1e528b0e7e,25,male,2021-05-03_12h09.57.988,search_v5,2021.1.2,Win32,144.1753172,,,space,0.081785,0,53,53,14,1,,,,,,,,,,,,,,,
,,,,,,,,,,,,,,,,p,1,0.394065,,,,,,,,3_dist_green/trial20.png,,1,3,greenverival,p,easy,605d8056fdf44e1e528b0e7e,25,male,2021-05-03_12h09.57.988,search_v5,2021.1.2,Win32,144.1753172,,,space,0.090875,0,54,54,29,1,,,,,,,,,,,,,,,
,,,,,,,,,,,,,,,,p,1,0.485525,,,,,,,,9_dist_green/trial17.png,,1,9,greenverival,p,mid,605d8056fdf44e1e528b0e7e,25,male,2021-05-03_12h09.57.988,search_v5,2021.1.2,Win32,144.1753172,,,space,0.149475,0,55,55,49,1,,,,,,,,,,,,,,,
,,,,,,,,,,,,,,,,p,1,0.40465,,,,,,,,3_dist_green/trial6.png,,1,3,greenverival,p,easy,605d8056fdf44e1e528b0e7e,25,male,2021-05-03_12h09.57.988,search_v5,2021.1.2,Win32,144.1753172,,,space,0.082385,0,56,56,15,1,,,,,,,,,,,,,,,
,,,,,,,,,,,,,,,,a,1,0.53361,,,,,,,,0_targ_16_dist_green/trial4.png,,0,16,greenverival,a,hard,605d8056fdf44e1e528b0e7e,25,male,2021-05-03_12h09.57.988,search_v5,2021.1.2,Win32,144.1753172,,,space,0.12689,0,57,57,128,1,,,,,,,,,,,,,,,
,,,,,,,,,,,,,,,,p,1,0.467725,,,,,,,,15_dist_green/trial18.png,,1,15,greenverival,p,hard,605d8056fdf44e1e528b0e7e,25,male,2021-05-03_12h09.57.988,search_v5,2021.1.2,Win32,144.1753172,,,space,0.157415,0,58,58,73,1,,,,,,,,,,,,,,,
,,,,,,,,,,,,,,,,a,1,0.56185,,,,,,,,0_targ_16_dist_green/trial15.png,,0,16,greenverival,a,hard,605d8056fdf44e1e528b0e7e,25,male,2021-05-03_12h09.57.988,search_v5,2021.1.2,Win32,144.1753172,,,space,0.12216,0,59,59,139,1,,,,,,,,,,,,,,,
,,,,,,,,,,,,,,,,a,1,0.49726,,,,,,,,0_targ_4_dist_green/trial8.png,,0,4,greenverival,a,easy,605d8056fdf44e1e528b0e7e,25,male,2021-05-03_12h09.57.988,search_v5,2021.1.2,Win32,144.1753172,,,space,0.0742,0,60,60,86,1,,,,,,,,,,,,,,,
,,,,,,,,,,,,,,,,a,1,0.55003,,,,,,,,0_targ_16_dist_green/trial5.png,,0,16,greenverival,a,hard,605d8056fdf44e1e528b0e7e,25,male,2021-05-03_12h09.57.988,search_v5,2021.1.2,Win32,144.1753172,,,space,0.137575,0,61,61,129,1,,,,,,,,,,,,,,,
,,,,,,,,,,,,,,,,a,0,0.3872,,,,,,,,15_dist_green/trial16.png,,1,15,greenverival,p,hard,605d8056fdf44e1e528b0e7e,25,male,2021-05-03_12h09.57.988,search_v5,2021.1.2,Win32,144.1753172,,,space,1.898915,0,62,62,71,1,,,,,,,,,,,,,,,
,,,,,,,,,,,,,,,,a,1,0.58212,,,,,,,,0_targ_10_dist_green/trial1.png,,0,10,greenverival,a,mid,605d8056fdf44e1e528b0e7e,25,male,2021-05-03_12h09.57.988,search_v5,2021.1.2,Win32,144.1753172,,,space,0.139785,0,63,63,8,1,,,,,,,,,,,,,,,
,,,,,,,,,,,,,,,,p,1,0.501825,,,,,,,,3_dist_green/trial21.png,,1,3,greenverival,p,easy,605d8056fdf44e1e528b0e7e,25,male,2021-05-03_12h09.57.988,search_v5,2021.1.2,Win32,144.1753172,,,space,0.127515,0,64,64,30,1,,,,,,,,,,,,,,,
,,,,,,,,,,,,,,,,a,1,0.54134,,,,,,,,0_targ_16_dist_green/trial11.png,,0,16,greenverival,a,hard,605d8056fdf44e1e528b0e7e,25,male,2021-05-03_12h09.57.988,search_v5,2021.1.2,Win32,144.1753172,,,space,0.20785,0,65,65,135,1,,,,,,,,,,,,,,,
,,,,,,,,,,,,,,,,a,1,0.94633,,,,,,,,0_targ_16_dist_green/trial6.png,,0,16,greenverival,a,hard,605d8056fdf44e1e528b0e7e,25,male,2021-05-03_12h09.57.988,search_v5,2021.1.2,Win32,144.1753172,,,space,0.22516,0,66,66,130,1,,,,,,,,,,,,,,,
,,,,,,,,,,,,,,,,a,1,0.786975,,,,,,,,0_targ_4_dist_green/trial18.png,,0,4,greenverival,a,easy,605d8056fdf44e1e528b0e7e,25,male,2021-05-03_12h09.57.988,search_v5,2021.1.2,Win32,144.1753172,,,space,0.091885,0,67,67,96,1,,,,,,,,,,,,,,,
,,,,,,,,,,,,,,,,p,1,0.53526,,,,,,,,15_dist_green/trial22.png,,1,15,greenverival,p,hard,605d8056fdf44e1e528b0e7e,25,male,2021-05-03_12h09.57.988,search_v5,2021.1.2,Win32,144.1753172,,,space,0.12174,0,68,68,77,1,,,,,,,,,,,,,,,
,,,,,,,,,,,,,,,,p,1,0.779365,,,,,,,,9_dist_green/trial8.png,,1,9,greenverival,p,mid,605d8056fdf44e1e528b0e7e,25,male,2021-05-03_12h09.57.988,search_v5,2021.1.2,Win32,144.1753172,,,space,0.12388,0,69,69,40,1,,,,,,,,,,,,,,,
,,,,,,,,,,,,,,,,p,1,0.470325,,,,,,,,3_dist_green/trial12.png,,1,3,greenverival,p,easy,605d8056fdf44e1e528b0e7e,25,male,2021-05-03_12h09.57.988,search_v5,2021.1.2,Win32,144.1753172,,,space,0.08274,0,70,70,21,1,,,,,,,,,,,,,,,
,,,,,,,,,,,,,,,,p,1,0.52055,,,,,,,,9_dist_green/trial15.png,,1,9,greenverival,p,mid,605d8056fdf44e1e528b0e7e,25,male,2021-05-03_12h09.57.988,search_v5,2021.1.2,Win32,144.1753172,,,space,0.080325,0,71,71,47,1,,,,,,,,,,,,,,,
,,,,,,,,,,,,,,,,a,1,0.612625,,,,,,,,0_targ_4_dist_green/trial25.png,,0,4,greenverival,a,easy,605d8056fdf44e1e528b0e7e,25,male,2021-05-03_12h09.57.988,search_v5,2021.1.2,Win32,144.1753172,,,space,0.182015,0,72,72,103,1,,,,,,,,,,,,,,,
,,,,,,,,,,,,,,,,p,1,0.526675,,,,,,,,3_dist_green/trial15.png,,1,3,greenverival,p,easy,605d8056fdf44e1e528b0e7e,25,male,2021-05-03_12h09.57.988,search_v5,2021.1.2,Win32,144.1753172,,,space,0.12905,0,73,73,24,1,,,,,,,,,,,,,,,
,,,,,,,,,,,,,,,,a,1,0.57378,,,,,,,,0_targ_4_dist_green/trial23.png,,0,4,greenverival,a,easy,605d8056fdf44e1e528b0e7e,25,male,2021-05-03_12h09.57.988,search_v5,2021.1.2,Win32,144.1753172,,,space,0.352005,0,74,74,101,1,,,,,,,,,,,,,,,
,,,,,,,,,,,,,,,,a,0,0.574145,,,,,,,,9_dist_green/trial6.png,,1,9,greenverival,p,mid,605d8056fdf44e1e528b0e7e,25,male,2021-05-03_12h09.57.988,search_v5,2021.1.2,Win32,144.1753172,,,space,0.355355,0,75,75,38,1,,,,,,,,,,,,,,,
,,,,,,,,,,,,,,,,p,1,0.627505,,,,,,,,9_dist_green/trial13.png,,1,9,greenverival,p,mid,605d8056fdf44e1e528b0e7e,25,male,2021-05-03_12h09.57.988,search_v5,2021.1.2,Win32,144.1753172,,,space,0.11584,0,76,76,45,1,,,,,,,,,,,,,,,
,,,,,,,,,,,,,,,,a,1,0.49523,,,,,,,,0_targ_4_dist_green/trial13.png,,0,4,greenverival,a,easy,605d8056fdf44e1e528b0e7e,25,male,2021-05-03_12h09.57.988,search_v5,2021.1.2,Win32,144.1753172,,,space,0.169055,0,77,77,91,1,,,,,,,,,,,,,,,
,,,,,,,,,,,,,,,,p,1,0.543155,,,,,,,,3_dist_green/trial8.png,,1,3,greenverival,p,easy,605d8056fdf44e1e528b0e7e,25,male,2021-05-03_12h09.57.988,search_v5,2021.1.2,Win32,144.1753172,,,space,0.13756,0,78,78,17,1,,,,,,,,,,,,,,,
,,,,,,,,,,,,,,,,p,1,0.70247,,,,,,,,15_dist_green/trial20.png,,1,15,greenverival,p,hard,605d8056fdf44e1e528b0e7e,25,male,2021-05-03_12h09.57.988,search_v5,2021.1.2,Win32,144.1753172,,,space,0.098895,0,79,79,75,1,,,,,,,,,,,,,,,
,,,,,,,,,,,,,,,,a,1,0.78022,,,,,,,,0_targ_10_dist_green/trial8.png,,0,10,greenverival,a,mid,605d8056fdf44e1e528b0e7e,25,male,2021-05-03_12h09.57.988,search_v5,2021.1.2,Win32,144.1753172,,,space,0.09927,0,80,80,109,1,,,,,,,,,,,,,,,
,,,,,,,,,,,,,,,,a,1,0.50041,,,,,,,,0_targ_10_dist_green/trial9.png,,0,10,greenverival,a,mid,605d8056fdf44e1e528b0e7e,25,male,2021-05-03_12h09.57.988,search_v5,2021.1.2,Win32,144.1753172,,,space,0.07164,0,81,81,110,1,,,,,,,,,,,,,,,
,,,,,,,,,,,,,,,,p,1,0.71776,,,,,,,,15_dist_green/trial10.png,,1,15,greenverival,p,hard,605d8056fdf44e1e528b0e7e,25,male,2021-05-03_12h09.57.988,search_v5,2021.1.2,Win32,144.1753172,,,space,0.13285,0,82,82,65,1,,,,,,,,,,,,,,,
,,,,,,,,,,,,,,,,p,1,0.572125,,,,,,,,9_dist_green/trial18.png,,1,9,greenverival,p,mid,605d8056fdf44e1e528b0e7e,25,male,2021-05-03_12h09.57.988,search_v5,2021.1.2,Win32,144.1753172,,,space,0.17742,0,83,83,50,1,,,,,,,,,,,,,,,
,,,,,,,,,,,,,,,,a,1,0.672145,,,,,,,,0_targ_4_dist_green/trial3.png,,0,4,greenverival,a,easy,605d8056fdf44e1e528b0e7e,25,male,2021-05-03_12h09.57.988,search_v5,2021.1.2,Win32,144.1753172,,,space,0.11235,0,84,84,81,1,,,,,,,,,,,,,,,
,,,,,,,,,,,,,,,,a,1,0.56477,,,,,,,,0_targ_4_dist_green/trial6.png,,0,4,greenverival,a,easy,605d8056fdf44e1e528b0e7e,25,male,2021-05-03_12h09.57.988,search_v5,2021.1.2,Win32,144.1753172,,,space,0.145755,0,85,85,84,1,,,,,,,,,,,,,,,
,,,,,,,,,,,,,,,,a,1,0.59421,,,,,,,,0_targ_4_dist_green/trial21.png,,0,4,greenverival,a,easy,605d8056fdf44e1e528b0e7e,25,male,2021-05-03_12h09.57.988,search_v5,2021.1.2,Win32,144.1753172,,,space,0.191885,0,86,86,99,1,,,,,,,,,,,,,,,
,,,,,,,,,,,,,,,,a,1,0.521095,,,,,,,,0_targ_16_dist_green/trial2.png,,0,16,greenverival,a,hard,605d8056fdf44e1e528b0e7e,25,male,2021-05-03_12h09.57.988,search_v5,2021.1.2,Win32,144.1753172,,,space,0.177285,0,87,87,11,1,,,,,,,,,,,,,,,
,,,,,,,,,,,,,,,,a,1,0.470815,,,,,,,,0_targ_10_dist_green/trial7.png,,0,10,greenverival,a,mid,605d8056fdf44e1e528b0e7e,25,male,2021-05-03_12h09.57.988,search_v5,2021.1.2,Win32,144.1753172,,,space,0.154405,0,88,88,108,1,,,,,,,,,,,,,,,
,,,,,,,,,,,,,,,,a,1,0.498185,,,,,,,,0_targ_16_dist_green/trial8.png,,0,16,greenverival,a,hard,605d8056fdf44e1e528b0e7e,25,male,2021-05-03_12h09.57.988,search_v5,2021.1.2,Win32,144.1753172,,,space,0.23816,0,89,89,132,1,,,,,,,,,,,,,,,
,,,,,,,,,,,,,,,,p,1,0.54685,,,,,,,,15_dist_green/trial8.png,,1,15,greenverival,p,hard,605d8056fdf44e1e528b0e7e,25,male,2021-05-03_12h09.57.988,search_v5,2021.1.2,Win32,144.1753172,,,space,0.158605,0,90,90,63,1,,,,,,,,,,,,,,,
,,,,,,,,,,,,,,,,p,1,0.58725,,,,,,,,15_dist_green/trial2.png,,1,15,greenverival,p,hard,605d8056fdf44e1e528b0e7e,25,male,2021-05-03_12h09.57.988,search_v5,2021.1.2,Win32,144.1753172,,,space,0.13662,0,91,91,5,1,,,,,,,,,,,,,,,
,,,,,,,,,,,,,,,,p,1,0.500095,,,,,,,,15_dist_green/trial14.png,,1,15,greenverival,p,hard,605d8056fdf44e1e528b0e7e,25,male,2021-05-03_12h09.57.988,search_v5,2021.1.2,Win32,144.1753172,,,space,0.171325,0,92,92,69,1,,,,,,,,,,,,,,,
,,,,,,,,,,,,,,,,a,1,0.59199,,,,,,,,0_targ_10_dist_green/trial17.png,,0,10,greenverival,a,mid,605d8056fdf44e1e528b0e7e,25,male,2021-05-03_12h09.57.988,search_v5,2021.1.2,Win32,144.1753172,,,space,0.199145,0,93,93,118,1,,,,,,,,,,,,,,,
,,,,,,,,,,,,,,,,p,1,0.67074,,,,,,,,15_dist_green/trial5.png,,1,15,greenverival,p,hard,605d8056fdf44e1e528b0e7e,25,male,2021-05-03_12h09.57.988,search_v5,2021.1.2,Win32,144.1753172,,,space,0.13459,0,94,94,60,1,,,,,,,,,,,,,,,
,,,,,,,,,,,,,,,,p,1,0.473145,,,,,,,,3_dist_green/trial25.png,,1,3,greenverival,p,easy,605d8056fdf44e1e528b0e7e,25,male,2021-05-03_12h09.57.988,search_v5,2021.1.2,Win32,144.1753172,,,space,0.108775,0,95,95,34,1,,,,,,,,,,,,,,,
,,,,,,,,,,,,,,,,p,1,0.484735,,,,,,,,15_dist_green/trial15.png,,1,15,greenverival,p,hard,605d8056fdf44e1e528b0e7e,25,male,2021-05-03_12h09.57.988,search_v5,2021.1.2,Win32,144.1753172,,,space,0.091285,0,96,96,70,1,,,,,,,,,,,,,,,
,,,,,,,,,,,,,,,,p,1,0.779495,,,,,,,,15_dist_green/trial7.png,,1,15,greenverival,p,hard,605d8056fdf44e1e528b0e7e,25,male,2021-05-03_12h09.57.988,search_v5,2021.1.2,Win32,144.1753172,,,space,0.129705,0,97,97,62,1,,,,,,,,,,,,,,,
,,,,,,,,,,,,,,,,a,1,0.5835,,,,,,,,0_targ_16_dist_green/trial24.png,,0,16,greenverival,a,hard,605d8056fdf44e1e528b0e7e,25,male,2021-05-03_12h09.57.988,search_v5,2021.1.2,Win32,144.1753172,,,space,0.088395,0,98,98,148,1,,,,,,,,,,,,,,,
,,,,,,,,,,,,,,,,p,1,0.58013,,,,,,,,9_dist_green/trial14.png,,1,9,greenverival,p,mid,605d8056fdf44e1e528b0e7e,25,male,2021-05-03_12h09.57.988,search_v5,2021.1.2,Win32,144.1753172,,,space,0.1429,0,99,99,46,1,,,,,,,,,,,,,,,
,,,,,,,,,,,,,,,,a,1,0.90646,,,,,,,,0_targ_16_dist_green/trial12.png,,0,16,greenverival,a,hard,605d8056fdf44e1e528b0e7e,25,male,2021-05-03_12h09.57.988,search_v5,2021.1.2,Win32,144.1753172,,,space,0.11346,0,100,100,136,1,,,,,,,,,,,,,,,
,,,,,,,,,,,,,,,,a,1,0.600295,,,,,,,,0_targ_16_dist_green/trial17.png,,0,16,greenverival,a,hard,605d8056fdf44e1e528b0e7e,25,male,2021-05-03_12h09.57.988,search_v5,2021.1.2,Win32,144.1753172,,,space,0.08699,0,101,101,141,1,,,,,,,,,,,,,,,
,,,,,,,,,,,,,,,,p,1,0.556545,,,,,,,,3_dist_green/trial18.png,,1,3,greenverival,p,easy,605d8056fdf44e1e528b0e7e,25,male,2021-05-03_12h09.57.988,search_v5,2021.1.2,Win32,144.1753172,,,space,0.150375,0,102,102,27,1,,,,,,,,,,,,,,,
,,,,,,,,,,,,,,,,p,1,0.5275,,,,,,,,15_dist_green/trial21.png,,1,15,greenverival,p,hard,605d8056fdf44e1e528b0e7e,25,male,2021-05-03_12h09.57.988,search_v5,2021.1.2,Win32,144.1753172,,,space,0.103745,0,103,103,76,1,,,,,,,,,,,,,,,
,,,,,,,,,,,,,,,,a,1,0.74025,,,,,,,,0_targ_16_dist_green/trial25.png,,0,16,greenverival,a,hard,605d8056fdf44e1e528b0e7e,25,male,2021-05-03_12h09.57.988,search_v5,2021.1.2,Win32,144.1753172,,,space,0.116205,0,104,104,149,1,,,,,,,,,,,,,,,
,,,,,,,,,,,,,,,,a,1,0.64932,,,,,,,,0_targ_16_dist_green/trial7.png,,0,16,greenverival,a,hard,605d8056fdf44e1e528b0e7e,25,male,2021-05-03_12h09.57.988,search_v5,2021.1.2,Win32,144.1753172,,,space,0.159025,0,105,105,131,1,,,,,,,,,,,,,,,
,,,,,,,,,,,,,,,,a,1,0.503785,,,,,,,,0_targ_16_dist_green/trial9.png,,0,16,greenverival,a,hard,605d8056fdf44e1e528b0e7e,25,male,2021-05-03_12h09.57.988,search_v5,2021.1.2,Win32,144.1753172,,,space,0.10998,0,106,106,133,1,,,,,,,,,,,,,,,
,,,,,,,,,,,,,,,,a,1,0.40318,,,,,,,,0_targ_4_dist_green/trial14.png,,0,4,greenverival,a,easy,605d8056fdf44e1e528b0e7e,25,male,2021-05-03_12h09.57.988,search_v5,2021.1.2,Win32,144.1753172,,,space,0.120325,0,107,107,92,1,,,,,,,,,,,,,,,
,,,,,,,,,,,,,,,,p,1,0.637115,,,,,,,,3_dist_green/trial10.png,,1,3,greenverival,p,easy,605d8056fdf44e1e528b0e7e,25,male,2021-05-03_12h09.57.988,search_v5,2021.1.2,Win32,144.1753172,,,space,0.129385,0,108,108,19,1,,,,,,,,,,,,,,,
,,,,,,,,,,,,,,,,a,1,0.575095,,,,,,,,0_targ_4_dist_green/trial17.png,,0,4,greenverival,a,easy,605d8056fdf44e1e528b0e7e,25,male,2021-05-03_12h09.57.988,search_v5,2021.1.2,Win32,144.1753172,,,space,0.10944,0,109,109,95,1,,,,,,,,,,,,,,,
,,,,,,,,,,,,,,,,p,1,0.536585,,,,,,,,9_dist_green/trial24.png,,1,9,greenverival,p,mid,605d8056fdf44e1e528b0e7e,25,male,2021-05-03_12h09.57.988,search_v5,2021.1.2,Win32,144.1753172,,,space,0.129115,0,110,110,56,1,,,,,,,,,,,,,,,
,,,,,,,,,,,,,,,,a,1,0.50821,,,,,,,,0_targ_4_dist_green/trial10.png,,0,4,greenverival,a,easy,605d8056fdf44e1e528b0e7e,25,male,2021-05-03_12h09.57.988,search_v5,2021.1.2,Win32,144.1753172,,,space,0.108705,0,111,111,88,1,,,,,,,,,,,,,,,
,,,,,,,,,,,,,,,,p,1,0.523455,,,,,,,,3_dist_green/trial3.png,,1,3,greenverival,p,easy,605d8056fdf44e1e528b0e7e,25,male,2021-05-03_12h09.57.988,search_v5,2021.1.2,Win32,144.1753172,,,space,0.219895,0,112,112,12,1,,,,,,,,,,,,,,,
,,,,,,,,,,,,,,,,a,1,0.505875,,,,,,,,0_targ_10_dist_green/trial5.png,,0,10,greenverival,a,mid,605d8056fdf44e1e528b0e7e,25,male,2021-05-03_12h09.57.988,search_v5,2021.1.2,Win32,144.1753172,,,space,0.167575,0,113,113,106,1,,,,,,,,,,,,,,,
,,,,,,,,,,,,,,,,p,1,0.53395,,,,,,,,15_dist_green/trial11.png,,1,15,greenverival,p,hard,605d8056fdf44e1e528b0e7e,25,male,2021-05-03_12h09.57.988,search_v5,2021.1.2,Win32,144.1753172,,,space,0.190335,0,114,114,66,1,,,,,,,,,,,,,,,
,,,,,,,,,,,,,,,,a,1,0.50523,,,,,,,,0_targ_10_dist_green/trial10.png,,0,10,greenverival,a,mid,605d8056fdf44e1e528b0e7e,25,male,2021-05-03_12h09.57.988,search_v5,2021.1.2,Win32,144.1753172,,,space,0.12715,0,115,115,111,1,,,,,,,,,,,,,,,
,,,,,,,,,,,,,,,,a,1,0.53786,,,,,,,,0_targ_4_dist_green/trial7.png,,0,4,greenverival,a,easy,605d8056fdf44e1e528b0e7e,25,male,2021-05-03_12h09.57.988,search_v5,2021.1.2,Win32,144.1753172,,,space,0.100645,0,116,116,85,1,,,,,,,,,,,,,,,
,,,,,,,,,,,,,,,,p,1,0.574365,,,,,,,,3_dist_green/trial9.png,,1,3,greenverival,p,easy,605d8056fdf44e1e528b0e7e,25,male,2021-05-03_12h09.57.988,search_v5,2021.1.2,Win32,144.1753172,,,space,0.130625,0,117,117,18,1,,,,,,,,,,,,,,,
,,,,,,,,,,,,,,,,a,1,0.482655,,,,,,,,0_targ_10_dist_green/trial13.png,,0,10,greenverival,a,mid,605d8056fdf44e1e528b0e7e,25,male,2021-05-03_12h09.57.988,search_v5,2021.1.2,Win32,144.1753172,,,space,0.130495,0,118,118,114,1,,,,,,,,,,,,,,,
,,,,,,,,,,,,,,,,p,1,0.624745,,,,,,,,9_dist_green/trial10.png,,1,9,greenverival,p,mid,605d8056fdf44e1e528b0e7e,25,male,2021-05-03_12h09.57.988,search_v5,2021.1.2,Win32,144.1753172,,,space,0.13241,0,119,119,42,1,,,,,,,,,,,,,,,
,,,,,,,,,,,,,,,,a,1,0.62673,,,,,,,,0_targ_4_dist_green/trial2.png,,0,4,greenverival,a,easy,605d8056fdf44e1e528b0e7e,25,male,2021-05-03_12h09.57.988,search_v5,2021.1.2,Win32,144.1753172,,,space,0.08261,0,120,120,7,1,,,,,,,,,,,,,,,
,,,,,,,,,,,,,,,,a,1,0.966835,,,,,,,,0_targ_10_dist_green/trial24.png,,0,10,greenverival,a,mid,605d8056fdf44e1e528b0e7e,25,male,2021-05-03_12h09.57.988,search_v5,2021.1.2,Win32,144.1753172,,,space,0.10675,0,121,121,125,1,,,,,,,,,,,,,,,
,,,,,,,,,,,,,,,,a,1,0.492345,,,,,,,,0_targ_4_dist_green/trial5.png,,0,4,greenverival,a,easy,605d8056fdf44e1e528b0e7e,25,male,2021-05-03_12h09.57.988,search_v5,2021.1.2,Win32,144.1753172,,,space,0.11561,0,122,122,83,1,,,,,,,,,,,,,,,
,,,,,,,,,,,,,,,,a,1,0.57354,,,,,,,,0_targ_10_dist_green/trial19.png,,0,10,greenverival,a,mid,605d8056fdf44e1e528b0e7e,25,male,2021-05-03_12h09.57.988,search_v5,2021.1.2,Win32,144.1753172,,,space,0.11393,0,123,123,120,1,,,,,,,,,,,,,,,
,,,,,,,,,,,,,,,,a,1,0.541635,,,,,,,,0_targ_10_dist_green/trial18.png,,0,10,greenverival,a,mid,605d8056fdf44e1e528b0e7e,25,male,2021-05-03_12h09.57.988,search_v5,2021.1.2,Win32,144.1753172,,,space,0.162485,0,124,124,119,1,,,,,,,,,,,,,,,
,,,,,,,,,,,,,,,,p,1,0.57365,,,,,,,,3_dist_green/trial16.png,,1,3,greenverival,p,easy,605d8056fdf44e1e528b0e7e,25,male,2021-05-03_12h09.57.988,search_v5,2021.1.2,Win32,144.1753172,,,space,0.176995,0,125,125,25,1,,,,,,,,,,,,,,,
,,,,,,,,,,,,,,,,a,1,0.455175,,,,,,,,0_targ_4_dist_green/trial19.png,,0,4,greenverival,a,easy,605d8056fdf44e1e528b0e7e,25,male,2021-05-03_12h09.57.988,search_v5,2021.1.2,Win32,144.1753172,,,space,0.076345,0,126,126,97,1,,,,,,,,,,,,,,,
,,,,,,,,,,,,,,,,p,1,0.63626,,,,,,,,9_dist_green/trial16.png,,1,9,greenverival,p,mid,605d8056fdf44e1e528b0e7e,25,male,2021-05-03_12h09.57.988,search_v5,2021.1.2,Win32,144.1753172,,,space,0.13385,0,127,127,48,1,,,,,,,,,,,,,,,
,,,,,,,,,,,,,,,,a,1,0.585625,,,,,,,,0_targ_10_dist_green/trial3.png,,0,10,greenverival,a,mid,605d8056fdf44e1e528b0e7e,25,male,2021-05-03_12h09.57.988,search_v5,2021.1.2,Win32,144.1753172,,,space,0.10662,0,128,128,104,1,,,,,,,,,,,,,,,
,,,,,,,,,,,,,,,,a,1,0.43538,,,,,,,,0_targ_4_dist_green/trial1.png,,0,4,greenverival,a,easy,605d8056fdf44e1e528b0e7e,25,male,2021-05-03_12h09.57.988,search_v5,2021.1.2,Win32,144.1753172,,,space,0.11858,0,129,129,6,1,,,,,,,,,,,,,,,
,,,,,,,,,,,,,,,,a,1,0.50135,,,,,,,,0_targ_10_dist_green/trial15.png,,0,10,greenverival,a,mid,605d8056fdf44e1e528b0e7e,25,male,2021-05-03_12h09.57.988,search_v5,2021.1.2,Win32,144.1753172,,,space,0.102635,0,130,130,116,1,,,,,,,,,,,,,,,
,,,,,,,,,,,,,,,,a,1,0.394545,,,,,,,,0_targ_4_dist_green/trial15.png,,0,4,greenverival,a,easy,605d8056fdf44e1e528b0e7e,25,male,2021-05-03_12h09.57.988,search_v5,2021.1.2,Win32,144.1753172,,,space,0.139945,0,131,131,93,1,,,,,,,,,,,,,,,
,,,,,,,,,,,,,,,,p,1,0.661415,,,,,,,,9_dist_green/trial12.png,,1,9,greenverival,p,mid,605d8056fdf44e1e528b0e7e,25,male,2021-05-03_12h09.57.988,search_v5,2021.1.2,Win32,144.1753172,,,space,0.1676,0,132,132,44,1,,,,,,,,,,,,,,,
,,,,,,,,,,,,,,,,a,1,0.71613,,,,,,,,0_targ_16_dist_green/trial23.png,,0,16,greenverival,a,hard,605d8056fdf44e1e528b0e7e,25,male,2021-05-03_12h09.57.988,search_v5,2021.1.2,Win32,144.1753172,,,space,0.126965,0,133,133,147,1,,,,,,,,,,,,,,,
,,,,,,,,,,,,,,,,p,1,0.472505,,,,,,,,15_dist_green/trial24.png,,1,15,greenverival,p,hard,605d8056fdf44e1e528b0e7e,25,male,2021-05-03_12h09.57.988,search_v5,2021.1.2,Win32,144.1753172,,,space,0.143465,0,134,134,79,1,,,,,,,,,,,,,,,
,,,,,,,,,,,,,,,,a,0,0.55403,,,,,,,,9_dist_green/trial5.png,,1,9,greenverival,p,mid,605d8056fdf44e1e528b0e7e,25,male,2021-05-03_12h09.57.988,search_v5,2021.1.2,Win32,144.1753172,,,space,0.245945,0,135,135,37,1,,,,,,,,,,,,,,,
,,,,,,,,,,,,,,,,a,1,0.56695,,,,,,,,0_targ_4_dist_green/trial22.png,,0,4,greenverival,a,easy,605d8056fdf44e1e528b0e7e,25,male,2021-05-03_12h09.57.988,search_v5,2021.1.2,Win32,144.1753172,,,space,0.06429,0,136,136,100,1,,,,,,,,,,,,,,,
,,,,,,,,,,,,,,,,a,1,0.48457,,,,,,,,0_targ_16_dist_green/trial18.png,,0,16,greenverival,a,hard,605d8056fdf44e1e528b0e7e,25,male,2021-05-03_12h09.57.988,search_v5,2021.1.2,Win32,144.1753172,,,space,0.07962,0,137,137,142,1,,,,,,,,,,,,,,,
,,,,,,,,,,,,,,,,p,1,0.590115,,,,,,,,15_dist_green/trial12.png,,1,15,greenverival,p,hard,605d8056fdf44e1e528b0e7e,25,male,2021-05-03_12h09.57.988,search_v5,2021.1.2,Win32,144.1753172,,,space,0.117585,0,138,138,67,1,,,,,,,,,,,,,,,
,,,,,,,,,,,,,,,,p,1,0.52557,,,,,,,,3_dist_green/trial11.png,,1,3,greenverival,p,easy,605d8056fdf44e1e528b0e7e,25,male,2021-05-03_12h09.57.988,search_v5,2021.1.2,Win32,144.1753172,,,space,0.10209,0,139,139,20,1,,,,,,,,,,,,,,,
,,,,,,,,,,,,,,,,a,1,0.56555,,,,,,,,0_targ_16_dist_green/trial21.png,,0,16,greenverival,a,hard,605d8056fdf44e1e528b0e7e,25,male,2021-05-03_12h09.57.988,search_v5,2021.1.2,Win32,144.1753172,,,space,0.131895,0,140,140,145,1,,,,,,,,,,,,,,,
,,,,,,,,,,,,,,,,a,0,0.523335,,,,,,,,15_dist_green/trial1.png,,1,15,greenverival,p,hard,605d8056fdf44e1e528b0e7e,25,male,2021-05-03_12h09.57.988,search_v5,2021.1.2,Win32,144.1753172,,,space,0.288345,0,141,141,4,1,,,,,,,,,,,,,,,
,,,,,,,,,,,,,,,,p,1,0.82463,,,,,,,,15_dist_green/trial3.png,,1,15,greenverival,p,hard,605d8056fdf44e1e528b0e7e,25,male,2021-05-03_12h09.57.988,search_v5,2021.1.2,Win32,144.1753172,,,space,0.07203,0,142,142,58,1,,,,,,,,,,,,,,,
,,,,,,,,,,,,,,,,p,1,0.79604,,,,,,,,15_dist_green/trial25.png,,1,15,greenverival,p,hard,605d8056fdf44e1e528b0e7e,25,male,2021-05-03_12h09.57.988,search_v5,2021.1.2,Win32,144.1753172,,,space,0.11848,0,143,143,80,1,,,,,,,,,,,,,,,
,,,,,,,,,,,,,,,,p,1,0.50013,,,,,,,,15_dist_green/trial23.png,,1,15,greenverival,p,hard,605d8056fdf44e1e528b0e7e,25,male,2021-05-03_12h09.57.988,search_v5,2021.1.2,Win32,144.1753172,,,space,0.060895,0,144,144,78,1,,,,,,,,,,,,,,,
,,,,,,,,,,,,,,,,p,1,0.55202,,,,,,,,3_dist_green/trial2.png,,1,3,greenverival,p,easy,605d8056fdf44e1e528b0e7e,25,male,2021-05-03_12h09.57.988,search_v5,2021.1.2,Win32,144.1753172,,,space,0.057835,0,145,145,1,1,,,,,,,,,,,,,,,
,,,,,,,,,,,,,,,,p,1,0.483245,,,,,,,,3_dist_green/trial24.png,,1,3,greenverival,p,easy,605d8056fdf44e1e528b0e7e,25,male,2021-05-03_12h09.57.988,search_v5,2021.1.2,Win32,144.1753172,,,space,0.06429,0,146,146,33,1,,,,,,,,,,,,,,,
,,,,,,,,,,,,,,,,p,1,0.645735,,,,,,,,3_dist_green/trial1.png,,1,3,greenverival,p,easy,605d8056fdf44e1e528b0e7e,25,male,2021-05-03_12h09.57.988,search_v5,2021.1.2,Win32,144.1753172,,,space,0.070495,0,147,147,0,1,,,,,,,,,,,,,,,
,,,,,,,,,,,,,,,,p,1,0.43388,,,,,,,,3_dist_green/trial4.png,,1,3,greenverival,p,easy,605d8056fdf44e1e528b0e7e,25,male,2021-05-03_12h09.57.988,search_v5,2021.1.2,Win32,144.1753172,,,space,0.078915,0,148,148,13,1,,,,,,,,,,,,,,,
,,,,,,,,,,,,,,,,p,1,0.480365,,,,,,,,9_dist_green/trial23.png,,1,9,greenverival,p,mid,605d8056fdf44e1e528b0e7e,25,male,2021-05-03_12h09.57.988,search_v5,2021.1.2,Win32,144.1753172,,,space,0.05741,0,149,149,55,1,,,,,,,,,,,,,,,
,,,,,,,,,,,,,,,,,,,,,,,,,,,,,,,,,605d8056fdf44e1e528b0e7e,25,male,2021-05-03_12h09.57.988,search_v5,2021.1.2,Win32,144.1753172,,,,,,,,,,0,0,0,0,1,conGreen.xlsx,green vertical,Look for green vertical bar (target) and indicate if it is present or absent in the array. If green vertical target is present press 'p' and if absent press 'a'. Press SPACE to start.,green_bar_example.jpg,,,,egGreen.xlsx,,
,,,,,,,,,,,,space,748.861505,space,5.758905,p,1,1.347795,space,3.535475,0,0,0,6,1,line_hard_TP/10_1_2.0944_none_left_col_10_row_11.jpg,,1,,line,p,hard,605d8056fdf44e1e528b0e7e,25,male,2021-05-03_12h09.57.988,search_v5,2021.1.2,Win32,144.1753172,,,,,,,,,,,,,,,,,,,,,,,,
,,,,,,,,,,,,,,,,p,1,0.88131,space,3.12756,0,1,1,2,1,line_easy_TP/10_2_0.5236_all_right_col_18_row_7.jpg,,1,,line,p,easy,605d8056fdf44e1e528b0e7e,25,male,2021-05-03_12h09.57.988,search_v5,2021.1.2,Win32,144.1753172,,,,,,,,,,,,,,,,,,,,,,,,
,,,,,,,,,,,,,,,,p,0,1.68007,space,0.66401,0,2,2,4,1,line_hard_TA/10_4_NaN_none_absent.jpg,,0,,line,a,hard,605d8056fdf44e1e528b0e7e,25,male,2021-05-03_12h09.57.988,search_v5,2021.1.2,Win32,144.1753172,,,,,,,,,,,,,,,,,,,,,,,,
,,,,,,,,,,,,,,,,a,1,2.781305,space,0.59042,0,3,3,1,1,line_easy_TA/11_1_NaN_all_absent.jpg,,0,,line,a,easy,605d8056fdf44e1e528b0e7e,25,male,2021-05-03_12h09.57.988,search_v5,2021.1.2,Win32,144.1753172,,,,,,,,,,,,,,,,,,,,,,,,
,,,,,,,,,,,,,,,,p,1,0.841375,space,0.224695,0,4,4,11,1,line_mid_TP/9_3_1.1424_none_left_col_10_row_8.jpg,,1,,line,p,mid,605d8056fdf44e1e528b0e7e,25,male,2021-05-03_12h09.57.988,search_v5,2021.1.2,Win32,144.1753172,,,,,,,,,,,,,,,,,,,,,,,,
,,,,,,,,,,,,,,,,a,1,1.34943,space,0.321825,0,5,5,0,1,line_easy_TA/10_3_NaN_all_absent.jpg,,0,,line,a,easy,605d8056fdf44e1e528b0e7e,25,male,2021-05-03_12h09.57.988,search_v5,2021.1.2,Win32,144.1753172,,,,,,,,,,,,,,,,,,,,,,,,
,,,,,,,,,,,,,,,,p,0,1.59496,space,0.842535,0,6,6,5,1,line_hard_TA/11_3_NaN_none_absent.jpg,,0,,line,a,hard,605d8056fdf44e1e528b0e7e,25,male,2021-05-03_12h09.57.988,search_v5,2021.1.2,Win32,144.1753172,,,,,,,,,,,,,,,,,,,,,,,,
,,,,,,,,,,,,,,,,p,1,1.105875,space,0.368135,0,7,7,10,1,line_mid_TP/9_2_1.1424_none_right_col_20_row_1.jpg,,1,,line,p,mid,605d8056fdf44e1e528b0e7e,25,male,2021-05-03_12h09.57.988,search_v5,2021.1.2,Win32,144.1753172,,,,,,,,,,,,,,,,,,,,,,,,
,,,,,,,,,,,,,,,,p,1,0.68707,space,0.24757,0,8,8,3,1,line_easy_TP/11_2_0.5236_all_right_col_14_row_9.jpg,,1,,line,p,easy,605d8056fdf44e1e528b0e7e,25,male,2021-05-03_12h09.57.988,search_v5,2021.1.2,Win32,144.1753172,,,,,,,,,,,,,,,,,,,,,,,,
,,,,,,,,,,,,,,,,a,1,1.872545,space,0.243345,0,9,9,8,1,line_mid_TA/10_1_NaN_none_absent.jpg,,0,,line,a,mid,605d8056fdf44e1e528b0e7e,25,male,2021-05-03_12h09.57.988,search_v5,2021.1.2,Win32,144.1753172,,,,,,,,,,,,,,,,,,,,,,,,
,,,,,,,,,,,,,,,,a,1,1.284265,space,0.19567,0,10,10,9,1,line_mid_TA/10_2_NaN_none_absent.jpg,,0,,line,a,mid,605d8056fdf44e1e528b0e7e,25,male,2021-05-03_12h09.57.988,search_v5,2021.1.2,Win32,144.1753172,,,,,,,,,,,,,,,,,,,,,,,,
,,,,,,,,,,,,,,,,a,0,0.905055,space,0.098585,0,11,11,7,1,line_hard_TP/11_4_2.0944_none_right_col_18_row_11.jpg,,1,,line,p,hard,605d8056fdf44e1e528b0e7e,25,male,2021-05-03_12h09.57.988,search_v5,2021.1.2,Win32,144.1753172,,,,,,,,,,,,,,,,,,,,,,,,
,,,,,,,,,,,,,,,,p,1,1.186195,,,,,,,,line_hard_TP/18_1_2.0944_none_left_col_4_row_3.jpg,,1,,line,p,hard,605d8056fdf44e1e528b0e7e,25,male,2021-05-03_12h09.57.988,search_v5,2021.1.2,Win32,144.1753172,space,0.523325,space,0.487215,0,0,0,87,1,,,,,,,,,,,,,,,
,,,,,,,,,,,,,,,,p,1,0.5475,,,,,,,,line_easy_TP/18_3_0.5236_all_right_col_20_row_10.jpg,,1,,line,p,easy,605d8056fdf44e1e528b0e7e,25,male,2021-05-03_12h09.57.988,search_v5,2021.1.2,Win32,144.1753172,,,space,0.19881,0,1,1,40,1,,,,,,,,,,,,,,,
,,,,,,,,,,,,,,,,p,1,0.985975,,,,,,,,line_hard_TP/6_2_2.0944_none_left_col_10_row_2.jpg,,1,,line,p,hard,605d8056fdf44e1e528b0e7e,25,male,2021-05-03_12h09.57.988,search_v5,2021.1.2,Win32,144.1753172,,,space,0.36835,0,2,2,99,1,,,,,,,,,,,,,,,
,,,,,,,,,,,,,,,,p,0,0.597305,,,,,,,,line_hard_TA/20_2_NaN_none_absent.jpg,,0,,line,a,hard,605d8056fdf44e1e528b0e7e,25,male,2021-05-03_12h09.57.988,search_v5,2021.1.2,Win32,144.1753172,,,space,0.090505,0,3,3,69,1,,,,,,,,,,,,,,,
,,,,,,,,,,,,,,,,p,1,0.67172,,,,,,,,line_easy_TP/2_0_0.5236_all_right_col_16_row_4.jpg,,1,,line,p,easy,605d8056fdf44e1e528b0e7e,25,male,2021-05-03_12h09.57.988,search_v5,2021.1.2,Win32,144.1753172,,,space,0.245795,0,4,4,47,1,,,,,,,,,,,,,,,
,,,,,,,,,,,,,,,,p,1,0.450365,,,,,,,,line_easy_TP/19_3_0.5236_all_right_col_17_row_3.jpg,,1,,line,p,easy,605d8056fdf44e1e528b0e7e,25,male,2021-05-03_12h09.57.988,search_v5,2021.1.2,Win32,144.1753172,,,space,0.16658,0,5,5,42,1,,,,,,,,,,,,,,,
,,,,,,,,,,,,,,,,a,1,1.04193,,,,,,,,line_hard_TA/23_2_NaN_none_absent.jpg,,0,,line,a,hard,605d8056fdf44e1e528b0e7e,25,male,2021-05-03_12h09.57.988,search_v5,2021.1.2,Win32,144.1753172,,,space,0.22645,0,6,6,74,1,,,,,,,,,,,,,,,
,,,,,,,,,,,,,,,,a,1,0.90886,,,,,,,,line_mid_TA/3_3_NaN_all_absent.jpg,,0,,line,a,mid,605d8056fdf44e1e528b0e7e,25,male,2021-05-03_12h09.57.988,search_v5,2021.1.2,Win32,144.1753172,,,space,0.200415,0,7,7,115,1,,,,,,,,,,,,,,,
,,,,,,,,,,,,,,,,p,1,0.656985,,,,,,,,line_easy_TP/1_1_0.5236_all_left_col_8_row_5.jpg,,1,,line,p,easy,605d8056fdf44e1e528b0e7e,25,male,2021-05-03_12h09.57.988,search_v5,2021.1.2,Win32,144.1753172,,,space,0.15839,0,8,8,44,1,,,,,,,,,,,,,,,
,,,,,,,,,,,,,,,,a,1,0.55522,,,,,,,,line_hard_TA/20_1_NaN_none_absent.jpg,,0,,line,a,hard,605d8056fdf44e1e528b0e7e,25,male,2021-05-03_12h09.57.988,search_v5,2021.1.2,Win32,144.1753172,,,space,0.13326,0,9,9,68,1,,,,,,,,,,,,,,,
,,,,,,,,,,,,,,,,a,1,0.39829,,,,,,,,line_easy_TA/11_1_NaN_all_absent.jpg,,0,,line,a,easy,605d8056fdf44e1e528b0e7e,25,male,2021-05-03_12h09.57.988,search_v5,2021.1.2,Win32,144.1753172,,,space,0.4596,0,10,10,1,1,,,,,,,,,,,,,,,
,,,,,,,,,,,,,,,,a,1,1.18081,,,,,,,,line_mid_TA/8_4_NaN_all_absent.jpg,,0,,line,a,mid,605d8056fdf44e1e528b0e7e,25,male,2021-05-03_12h09.57.988,search_v5,2021.1.2,Win32,144.1753172,,,space,0.19428,0,11,11,125,1,,,,,,,,,,,,,,,
,,,,,,,,,,,,,,,,a,0,0.527445,,,,,,,,line_hard_TP/17_1_2.0944_none_right_col_18_row_9.jpg,,1,,line,p,hard,605d8056fdf44e1e528b0e7e,25,male,2021-05-03_12h09.57.988,search_v5,2021.1.2,Win32,144.1753172,,,space,0.250175,0,12,12,85,1,,,,,,,,,,,,,,,
,,,,,,,,,,,,,,,,a,1,1.02719,,,,,,,,line_mid_TA/7_1_NaN_all_absent.jpg,,0,,line,a,mid,605d8056fdf44e1e528b0e7e,25,male,2021-05-03_12h09.57.988,search_v5,2021.1.2,Win32,144.1753172,,,space,0.31377,0,13,13,122,1,,,,,,,,,,,,,,,
,,,,,,,,,,,,,,,,p,1,0.64189,,,,,,,,line_easy_TP/13_3_0.5236_all_left_col_4_row_12.jpg,,1,,line,p,easy,605d8056fdf44e1e528b0e7e,25,male,2021-05-03_12h09.57.988,search_v5,2021.1.2,Win32,144.1753172,,,space,0.21,0,14,14,36,1,,,,,,,,,,,,,,,
,,,,,,,,,,,,,,,,a,0,1.18166,,,,,,,,line_hard_TP/18_4_2.0944_none_left_col_4_row_9.jpg,,1,,line,p,hard,605d8056fdf44e1e528b0e7e,25,male,2021-05-03_12h09.57.988,search_v5,2021.1.2,Win32,144.1753172,,,space,0.313685,0,15,15,88,1,,,,,,,,,,,,,,,
,,,,,,,,,,,,,,,,p,0,1.13307,,,,,,,,line_hard_TA/17_4_NaN_none_absent.jpg,,0,,line,a,hard,605d8056fdf44e1e528b0e7e,25,male,2021-05-03_12h09.57.988,search_v5,2021.1.2,Win32,144.1753172,,,space,0.55301,0,16,16,65,1,,,,,,,,,,,,,,,
,,,,,,,,,,,,,,,,a,1,2.848795,,,,,,,,line_mid_TA/12_1_NaN_all_absent.jpg,,0,,line,a,mid,605d8056fdf44e1e528b0e7e,25,male,2021-05-03_12h09.57.988,search_v5,2021.1.2,Win32,144.1753172,,,space,0.354115,0,17,17,109,1,,,,,,,,,,,,,,,
,,,,,,,,,,,,,,,,a,1,2.296315,,,,,,,,line_mid_TA/8_3_NaN_all_absent.jpg,,0,,line,a,mid,605d8056fdf44e1e528b0e7e,25,male,2021-05-03_12h09.57.988,search_v5,2021.1.2,Win32,144.1753172,,,space,0.2915,0,18,18,124,1,,,,,,,,,,,,,,,
,,,,,,,,,,,,,,,,a,1,2.98557,,,,,,,,line_easy_TA/1_2_NaN_all_absent.jpg,,0,,line,a,easy,605d8056fdf44e1e528b0e7e,25,male,2021-05-03_12h09.57.988,search_v5,2021.1.2,Win32,144.1753172,,,space,0.29863,0,19,19,19,1,,,,,,,,,,,,,,,
,,,,,,,,,,,,,,,,p,1,0.680965,,,,,,,,line_easy_TP/3_3_0.5236_all_right_col_15_row_10.jpg,,1,,line,p,easy,605d8056fdf44e1e528b0e7e,25,male,2021-05-03_12h09.57.988,search_v5,2021.1.2,Win32,144.1753172,,,space,0.178755,0,20,20,48,1,,,,,,,,,,,,,,,
,,,,,,,,,,,,,,,,a,1,2.097545,,,,,,,,line_easy_TA/5_4_NaN_all_absent.jpg,,0,,line,a,easy,605d8056fdf44e1e528b0e7e,25,male,2021-05-03_12h09.57.988,search_v5,2021.1.2,Win32,144.1753172,,,space,0.32675,0,21,21,31,1,,,,,,,,,,,,,,,
,,,,,,,,,,,,,,,,a,1,1.918445,,,,,,,,line_easy_TA/3_0_NaN_all_absent.jpg,,0,,line,a,easy,605d8056fdf44e1e528b0e7e,25,male,2021-05-03_12h09.57.988,search_v5,2021.1.2,Win32,144.1753172,,,space,0.326795,0,22,22,25,1,,,,,,,,,,,,,,,
,,,,,,,,,,,,,,,,a,1,1.000115,,,,,,,,line_hard_TA/22_3_NaN_none_absent.jpg,,0,,line,a,hard,605d8056fdf44e1e528b0e7e,25,male,2021-05-03_12h09.57.988,search_v5,2021.1.2,Win32,144.1753172,,,space,0.38228,0,23,23,71,1,,,,,,,,,,,,,,,
,,,,,,,,,,,,,,,,p,1,0.881835,,,,,,,,line_hard_TP/20_4_2.0944_none_left_col_9_row_16.jpg,,1,,line,p,hard,605d8056fdf44e1e528b0e7e,25,male,2021-05-03_12h09.57.988,search_v5,2021.1.2,Win32,144.1753172,,,space,0.363565,0,24,24,91,1,,,,,,,,,,,,,,,
,,,,,,,,,,,,,,,,a,1,0.839865,,,,,,,,line_hard_TA/23_1_NaN_none_absent.jpg,,0,,line,a,hard,605d8056fdf44e1e528b0e7e,25,male,2021-05-03_12h09.57.988,search_v5,2021.1.2,Win32,144.1753172,,,space,0.35942,0,25,25,73,1,,,,,,,,,,,,,,,
,,,,,,,,,,,,,,,,p,1,0.584695,,,,,,,,line_easy_TP/11_2_0.5236_all_right_col_14_row_9.jpg,,1,,line,p,easy,605d8056fdf44e1e528b0e7e,25,male,2021-05-03_12h09.57.988,search_v5,2021.1.2,Win32,144.1753172,,,space,0.24461,0,26,26,3,1,,,,,,,,,,,,,,,
,,,,,,,,,,,,,,,,p,1,0.61744,,,,,,,,line_easy_TP/21_2_0.5236_all_right_col_16_row_1.jpg,,1,,line,p,easy,605d8056fdf44e1e528b0e7e,25,male,2021-05-03_12h09.57.988,search_v5,2021.1.2,Win32,144.1753172,,,space,0.24608,0,27,27,45,1,,,,,,,,,,,,,,,
,,,,,,,,,,,,,,,,a,0,0.685975,,,,,,,,line_mid_TP/3_1_1.1424_none_left_col_10_row_2.jpg,,1,,line,p,mid,605d8056fdf44e1e528b0e7e,25,male,2021-05-03_12h09.57.988,search_v5,2021.1.2,Win32,144.1753172,,,space,0.114455,0,28,28,134,1,,,,,,,,,,,,,,,
,,,,,,,,,,,,,,,,p,1,1.125005,,,,,,,,line_hard_TP/24_1_2.0944_none_right_col_16_row_6.jpg,,1,,line,p,hard,605d8056fdf44e1e528b0e7e,25,male,2021-05-03_12h09.57.988,search_v5,2021.1.2,Win32,144.1753172,,,space,0.32828,0,29,29,93,1,,,,,,,,,,,,,,,
,,,,,,,,,,,,,,,,a,0,0.965225,,,,,,,,line_hard_TP/17_3_2.0944_none_right_col_17_row_12.jpg,,1,,line,p,hard,605d8056fdf44e1e528b0e7e,25,male,2021-05-03_12h09.57.988,search_v5,2021.1.2,Win32,144.1753172,,,space,0.847915,0,30,30,86,1,,,,,,,,,,,,,,,
,,,,,,,,,,,,,,,,a,1,2.208875,,,,,,,,line_easy_TA/3_4_NaN_all_absent.jpg,,0,,line,a,easy,605d8056fdf44e1e528b0e7e,25,male,2021-05-03_12h09.57.988,search_v5,2021.1.2,Win32,144.1753172,,,space,0.38658,0,31,31,27,1,,,,,,,,,,,,,,,
,,,,,,,,,,,,,,,,p,1,0.57828,,,,,,,,line_easy_TP/14_4_0.5236_all_left_col_10_row_13.jpg,,1,,line,p,easy,605d8056fdf44e1e528b0e7e,25,male,2021-05-03_12h09.57.988,search_v5,2021.1.2,Win32,144.1753172,,,space,0.212005,0,32,32,38,1,,,,,,,,,,,,,,,
,,,,,,,,,,,,,,,,a,0,0.81246,,,,,,,,line_mid_TP/4_3_1.7453_all_left_col_9_row_4.jpg,,1,,line,p,mid,605d8056fdf44e1e528b0e7e,25,male,2021-05-03_12h09.57.988,search_v5,2021.1.2,Win32,144.1753172,,,space,0.123905,0,33,33,136,1,,,,,,,,,,,,,,,
,,,,,,,,,,,,,,,,a,1,2.75233,,,,,,,,line_mid_TA/4_2_NaN_all_absent.jpg,,0,,line,a,mid,605d8056fdf44e1e528b0e7e,25,male,2021-05-03_12h09.57.988,search_v5,2021.1.2,Win32,144.1753172,,,space,0.3704,0,34,34,118,1,,,,,,,,,,,,,,,
,,,,,,,,,,,,,,,,a,1,2.819105,,,,,,,,line_hard_TA/13_2_NaN_none_absent.jpg,,0,,line,a,hard,605d8056fdf44e1e528b0e7e,25,male,2021-05-03_12h09.57.988,search_v5,2021.1.2,Win32,144.1753172,,,space,0.363455,0,35,35,59,1,,,,,,,,,,,,,,,
,,,,,,,,,,,,,,,,a,1,1.915885,,,,,,,,line_mid_TA/3_0_NaN_all_absent.jpg,,0,,line,a,mid,605d8056fdf44e1e528b0e7e,25,male,2021-05-03_12h09.57.988,search_v5,2021.1.2,Win32,144.1753172,,,space,0.374915,0,36,36,113,1,,,,,,,,,,,,,,,
,,,,,,,,,,,,,,,,a,0,2.709185,,,,,,,,line_hard_TP/11_4_2.0944_none_right_col_18_row_11.jpg,,1,,line,p,hard,605d8056fdf44e1e528b0e7e,25,male,2021-05-03_12h09.57.988,search_v5,2021.1.2,Win32,144.1753172,,,space,0.3824,0,37,37,7,1,,,,,,,,,,,,,,,
,,,,,,,,,,,,,,,,a,1,1.52313,,,,,,,,line_mid_TA/2_2_NaN_none_absent.jpg,,0,,line,a,mid,605d8056fdf44e1e528b0e7e,25,male,2021-05-03_12h09.57.988,search_v5,2021.1.2,Win32,144.1753172,,,space,0.327555,0,38,38,112,1,,,,,,,,,,,,,,,
,,,,,,,,,,,,,,,,p,1,0.853665,,,,,,,,line_mid_TP/6_3_1.7453_all_right_col_13_row_7.jpg,,1,,line,p,mid,605d8056fdf44e1e528b0e7e,25,male,2021-05-03_12h09.57.988,search_v5,2021.1.2,Win32,144.1753172,,,space,0.14341,0,39,39,143,1,,,,,,,,,,,,,,,
,,,,,,,,,,,,,,,,a,0,1.65905,,,,,,,,line_hard_TP/20_3_2.0944_none_left_col_7_row_13.jpg,,1,,line,p,hard,605d8056fdf44e1e528b0e7e,25,male,2021-05-03_12h09.57.988,search_v5,2021.1.2,Win32,144.1753172,,,space,0.06485,0,40,40,90,1,,,,,,,,,,,,,,,
,,,,,,,,,,,,,,,,p,0,1.04394,,,,,,,,line_hard_TA/15_1_NaN_none_absent.jpg,,0,,line,a,hard,605d8056fdf44e1e528b0e7e,25,male,2021-05-03_12h09.57.988,search_v5,2021.1.2,Win32,144.1753172,,,space,0.16988,0,41,41,61,1,,,,,,,,,,,,,,,
,,,,,,,,,,,,,,,,a,1,1.352905,,,,,,,,line_easy_TA/7_1_NaN_all_absent.jpg,,0,,line,a,easy,605d8056fdf44e1e528b0e7e,25,male,2021-05-03_12h09.57.988,search_v5,2021.1.2,Win32,144.1753172,,,space,0.356755,0,42,42,32,1,,,,,,,,,,,,,,,
,,,,,,,,,,,,,,,,a,1,1.409235,,,,,,,,line_hard_TA/4_2_NaN_none_absent.jpg,,0,,line,a,hard,605d8056fdf44e1e528b0e7e,25,male,2021-05-03_12h09.57.988,search_v5,2021.1.2,Win32,144.1753172,,,space,0.44642,0,43,43,78,1,,,,,,,,,,,,,,,
,,,,,,,,,,,,,,,,a,1,2.25777,,,,,,,,line_easy_TA/16_3_NaN_all_absent.jpg,,0,,line,a,easy,605d8056fdf44e1e528b0e7e,25,male,2021-05-03_12h09.57.988,search_v5,2021.1.2,Win32,144.1753172,,,space,0.216015,0,44,44,16,1,,,,,,,,,,,,,,,
,,,,,,,,,,,,,,,,a,1,1.960655,,,,,,,,line_easy_TA/4_4_NaN_all_absent.jpg,,0,,line,a,easy,605d8056fdf44e1e528b0e7e,25,male,2021-05-03_12h09.57.988,search_v5,2021.1.2,Win32,144.1753172,,,space,0.354675,0,45,45,29,1,,,,,,,,,,,,,,,
,,,,,,,,,,,,,,,,a,1,1.63222,,,,,,,,line_hard_TA/13_1_NaN_none_absent.jpg,,0,,line,a,hard,605d8056fdf44e1e528b0e7e,25,male,2021-05-03_12h09.57.988,search_v5,2021.1.2,Win32,144.1753172,,,space,0.37653,0,46,46,58,1,,,,,,,,,,,,,,,
,,,,,,,,,,,,,,,,p,1,0.61775,,,,,,,,line_easy_TP/7_2_0.5236_all_right_col_14_row_5.jpg,,1,,line,p,easy,605d8056fdf44e1e528b0e7e,25,male,2021-05-03_12h09.57.988,search_v5,2021.1.2,Win32,144.1753172,,,space,0.22504,0,47,47,53,1,,,,,,,,,,,,,,,
,,,,,,,,,,,,,,,,p,1,0.548505,,,,,,,,line_easy_TP/6_4_0.5236_all_right_col_18_row_7.jpg,,1,,line,p,easy,605d8056fdf44e1e528b0e7e,25,male,2021-05-03_12h09.57.988,search_v5,2021.1.2,Win32,144.1753172,,,space,0.152185,0,48,48,52,1,,,,,,,,,,,,,,,
,,,,,,,,,,,,,,,,a,1,0.8335,,,,,,,,line_hard_TA/15_4_NaN_none_absent.jpg,,0,,line,a,hard,605d8056fdf44e1e528b0e7e,25,male,2021-05-03_12h09.57.988,search_v5,2021.1.2,Win32,144.1753172,,,space,0.223745,0,49,49,63,1,,,,,,,,,,,,,,,
,,,,,,,,,,,,,,,,p,1,0.686795,,,,,,,,line_easy_TP/5_1_0.5236_all_left_col_5_row_3.jpg,,1,,line,p,easy,605d8056fdf44e1e528b0e7e,25,male,2021-05-03_12h09.57.988,search_v5,2021.1.2,Win32,144.1753172,,,space,0.134615,0,50,50,50,1,,,,,,,,,,,,,,,
,,,,,,,,,,,,,,,,p,1,0.902195,,,,,,,,line_hard_TP/6_0_2.0944_none_right_col_18_row_7.jpg,,1,,line,p,hard,605d8056fdf44e1e528b0e7e,25,male,2021-05-03_12h09.57.988,search_v5,2021.1.2,Win32,144.1753172,,,space,0.34887,0,51,51,98,1,,,,,,,,,,,,,,,
,,,,,,,,,,,,,,,,p,1,0.53139,,,,,,,,line_mid_TP/2_1_1.7453_all_right_col_14_row_16.jpg,,1,,line,p,mid,605d8056fdf44e1e528b0e7e,25,male,2021-05-03_12h09.57.988,search_v5,2021.1.2,Win32,144.1753172,,,space,0.304895,0,52,52,131,1,,,,,,,,,,,,,,,
,,,,,,,,,,,,,,,,a,1,0.57781,,,,,,,,line_easy_TA/10_3_NaN_all_absent.jpg,,0,,line,a,easy,605d8056fdf44e1e528b0e7e,25,male,2021-05-03_12h09.57.988,search_v5,2021.1.2,Win32,144.1753172,,,space,0.26806,0,53,53,0,1,,,,,,,,,,,,,,,
,,,,,,,,,,,,,,,,p,1,0.778785,,,,,,,,line_mid_TP/1_4_1.1424_none_left_col_7_row_9.jpg,,1,,line,p,mid,605d8056fdf44e1e528b0e7e,25,male,2021-05-03_12h09.57.988,search_v5,2021.1.2,Win32,144.1753172,,,space,0.157585,0,54,54,129,1,,,,,,,,,,,,,,,
,,,,,,,,,,,,,,,,a,1,1.05017,,,,,,,,line_hard_TA/11_3_NaN_none_absent.jpg,,0,,line,a,hard,605d8056fdf44e1e528b0e7e,25,male,2021-05-03_12h09.57.988,search_v5,2021.1.2,Win32,144.1753172,,,space,0.139355,0,55,55,5,1,,,,,,,,,,,,,,,
,,,,,,,,,,,,,,,,a,1,1.53201,,,,,,,,line_easy_TA/12_3_NaN_all_absent.jpg,,0,,line,a,easy,605d8056fdf44e1e528b0e7e,25,male,2021-05-03_12h09.57.988,search_v5,2021.1.2,Win32,144.1753172,,,space,0.070205,0,56,56,12,1,,,,,,,,,,,,,,,
,,,,,,,,,,,,,,,,a,1,1.67485,,,,,,,,line_easy_TA/16_1_NaN_all_absent.jpg,,0,,line,a,easy,605d8056fdf44e1e528b0e7e,25,male,2021-05-03_12h09.57.988,search_v5,2021.1.2,Win32,144.1753172,,,space,0.08247,0,57,57,14,1,,,,,,,,,,,,,,,
,,,,,,,,,,,,,,,,p,0,0.96321,,,,,,,,line_mid_TA/10_4_NaN_all_absent.jpg,,0,,line,a,mid,605d8056fdf44e1e528b0e7e,25,male,2021-05-03_12h09.57.988,search_v5,2021.1.2,Win32,144.1753172,,,space,0.32854,0,58,58,104,1,,,,,,,,,,,,,,,
,,,,,,,,,,,,,,,,p,1,0.90589,,,,,,,,line_mid_TP/9_3_1.1424_none_left_col_10_row_8.jpg,,1,,line,p,mid,605d8056fdf44e1e528b0e7e,25,male,2021-05-03_12h09.57.988,search_v5,2021.1.2,Win32,144.1753172,,,space,0.13284,0,59,59,11,1,,,,,,,,,,,,,,,
,,,,,,,,,,,,,,,,p,1,0.76391,,,,,,,,line_hard_TP/5_0_2.0944_none_right_col_17_row_1.jpg,,1,,line,p,hard,605d8056fdf44e1e528b0e7e,25,male,2021-05-03_12h09.57.988,search_v5,2021.1.2,Win32,144.1753172,,,space,0.25025,0,60,60,97,1,,,,,,,,,,,,,,,
,,,,,,,,,,,,,,,,p,1,0.55301,,,,,,,,line_easy_TP/8_4_0.5236_all_left_col_2_row_6.jpg,,1,,line,p,easy,605d8056fdf44e1e528b0e7e,25,male,2021-05-03_12h09.57.988,search_v5,2021.1.2,Win32,144.1753172,,,space,0.17357,0,61,61,56,1,,,,,,,,,,,,,,,
,,,,,,,,,,,,,,,,p,1,1.024305,,,,,,,,line_hard_TP/9_2_2.0944_none_right_col_21_row_2.jpg,,1,,line,p,hard,605d8056fdf44e1e528b0e7e,25,male,2021-05-03_12h09.57.988,search_v5,2021.1.2,Win32,144.1753172,,,space,0.10022,0,62,62,102,1,,,,,,,,,,,,,,,
,,,,,,,,,,,,,,,,p,0,1.049725,,,,,,,,line_hard_TA/14_2_NaN_none_absent.jpg,,0,,line,a,hard,605d8056fdf44e1e528b0e7e,25,male,2021-05-03_12h09.57.988,search_v5,2021.1.2,Win32,144.1753172,,,space,0.41956,0,63,63,60,1,,,,,,,,,,,,,,,
,,,,,,,,,,,,,,,,p,1,0.562885,,,,,,,,line_easy_TP/22_2_0.5236_all_left_col_10_row_14.jpg,,1,,line,p,easy,605d8056fdf44e1e528b0e7e,25,male,2021-05-03_12h09.57.988,search_v5,2021.1.2,Win32,144.1753172,,,space,0.10993,0,64,64,46,1,,,,,,,,,,,,,,,
,,,,,,,,,,,,,,,,a,0,1.135075,,,,,,,,line_hard_TP/14_3_2.0944_none_right_col_19_row_11.jpg,,1,,line,p,hard,605d8056fdf44e1e528b0e7e,25,male,2021-05-03_12h09.57.988,search_v5,2021.1.2,Win32,144.1753172,,,space,1.967825,0,65,65,84,1,,,,,,,,,,,,,,,
,,,,,,,,,,,,,,,,a,1,1.31874,,,,,,,,line_mid_TA/5_3_NaN_none_absent.jpg,,0,,line,a,mid,605d8056fdf44e1e528b0e7e,25,male,2021-05-03_12h09.57.988,search_v5,2021.1.2,Win32,144.1753172,,,space,0.250595,0,66,66,119,1,,,,,,,,,,,,,,,
,,,,,,,,,,,,,,,,p,0,2.51473,,,,,,,,line_hard_TA/24_3_NaN_none_absent.jpg,,0,,line,a,hard,605d8056fdf44e1e528b0e7e,25,male,2021-05-03_12h09.57.988,search_v5,2021.1.2,Win32,144.1753172,,,space,0.390695,0,67,67,75,1,,,,,,,,,,,,,,,
,,,,,,,,,,,,,,,,p,1,0.846825,,,,,,,,line_mid_TP/6_0_1.1424_none_left_col_8_row_9.jpg,,1,,line,p,mid,605d8056fdf44e1e528b0e7e,25,male,2021-05-03_12h09.57.988,search_v5,2021.1.2,Win32,144.1753172,,,space,0.121645,0,68,68,141,1,,,,,,,,,,,,,,,
,,,,,,,,,,,,,,,,p,1,0.81273,,,,,,,,line_mid_TP/6_2_1.1424_none_left_col_2_row_6.jpg,,1,,line,p,mid,605d8056fdf44e1e528b0e7e,25,male,2021-05-03_12h09.57.988,search_v5,2021.1.2,Win32,144.1753172,,,space,0.105775,0,69,69,142,1,,,,,,,,,,,,,,,
,,,,,,,,,,,,,,,,a,1,1.206165,,,,,,,,line_hard_TA/10_4_NaN_none_absent.jpg,,0,,line,a,hard,605d8056fdf44e1e528b0e7e,25,male,2021-05-03_12h09.57.988,search_v5,2021.1.2,Win32,144.1753172,,,space,0.30505,0,70,70,4,1,,,,,,,,,,,,,,,
,,,,,,,,,,,,,,,,a,0,1.806735,,,,,,,,line_hard_TP/2_2_2.0944_none_right_col_19_row_11.jpg,,1,,line,p,hard,605d8056fdf44e1e528b0e7e,25,male,2021-05-03_12h09.57.988,search_v5,2021.1.2,Win32,144.1753172,,,space,0.50403,0,71,71,96,1,,,,,,,,,,,,,,,
,,,,,,,,,,,,,,,,p,1,0.82223,,,,,,,,line_easy_TP/13_4_0.5236_all_right_col_13_row_13.jpg,,1,,line,p,easy,605d8056fdf44e1e528b0e7e,25,male,2021-05-03_12h09.57.988,search_v5,2021.1.2,Win32,144.1753172,,,space,0.230775,0,72,72,37,1,,,,,,,,,,,,,,,
,,,,,,,,,,,,,,,,p,0,0.760925,,,,,,,,line_hard_TA/15_3_NaN_none_absent.jpg,,0,,line,a,hard,605d8056fdf44e1e528b0e7e,25,male,2021-05-03_12h09.57.988,search_v5,2021.1.2,Win32,144.1753172,,,space,0.17054,0,73,73,62,1,,,,,,,,,,,,,,,
,,,,,,,,,,,,,,,,a,1,1.339745,,,,,,,,line_easy_TA/9_1_NaN_all_absent.jpg,,0,,line,a,easy,605d8056fdf44e1e528b0e7e,25,male,2021-05-03_12h09.57.988,search_v5,2021.1.2,Win32,144.1753172,,,space,0.20908,0,74,74,34,1,,,,,,,,,,,,,,,
,,,,,,,,,,,,,,,,a,0,1.3382,,,,,,,,line_hard_TP/24_2_2.0944_none_left_col_9_row_8.jpg,,1,,line,p,hard,605d8056fdf44e1e528b0e7e,25,male,2021-05-03_12h09.57.988,search_v5,2021.1.2,Win32,144.1753172,,,space,0.2902,0,75,75,94,1,,,,,,,,,,,,,,,
,,,,,,,,,,,,,,,,p,1,1.20194,,,,,,,,line_mid_TP/4_1_1.7453_all_left_col_4_row_6.jpg,,1,,line,p,mid,605d8056fdf44e1e528b0e7e,25,male,2021-05-03_12h09.57.988,search_v5,2021.1.2,Win32,144.1753172,,,space,0.152415,0,76,76,135,1,,,,,,,,,,,,,,,
,,,,,,,,,,,,,,,,a,1,1.534805,,,,,,,,line_mid_TA/11_2_NaN_all_absent.jpg,,0,,line,a,mid,605d8056fdf44e1e528b0e7e,25,male,2021-05-03_12h09.57.988,search_v5,2021.1.2,Win32,144.1753172,,,space,0.29286,0,77,77,106,1,,,,,,,,,,,,,,,
,,,,,,,,,,,,,,,,a,1,1.61752,,,,,,,,line_mid_TA/5_4_NaN_none_absent.jpg,,0,,line,a,mid,605d8056fdf44e1e528b0e7e,25,male,2021-05-03_12h09.57.988,search_v5,2021.1.2,Win32,144.1753172,,,space,0.311475,0,78,78,120,1,,,,,,,,,,,,,,,
,,,,,,,,,,,,,,,,p,0,1.409855,,,,,,,,line_hard_TA/16_4_NaN_none_absent.jpg,,0,,line,a,hard,605d8056fdf44e1e528b0e7e,25,male,2021-05-03_12h09.57.988,search_v5,2021.1.2,Win32,144.1753172,,,space,0.24284,0,79,79,64,1,,,,,,,,,,,,,,,
,,,,,,,,,,,,,,,,p,1,1.231465,,,,,,,,line_hard_TP/10_1_2.0944_none_left_col_10_row_11.jpg,,1,,line,p,hard,605d8056fdf44e1e528b0e7e,25,male,2021-05-03_12h09.57.988,search_v5,2021.1.2,Win32,144.1753172,,,space,0.428725,0,80,80,6,1,,,,,,,,,,,,,,,
,,,,,,,,,,,,,,,,a,1,1.552405,,,,,,,,line_easy_TA/15_2_NaN_all_absent.jpg,,0,,line,a,easy,605d8056fdf44e1e528b0e7e,25,male,2021-05-03_12h09.57.988,search_v5,2021.1.2,Win32,144.1753172,,,space,0.1908,0,81,81,13,1,,,,,,,,,,,,,,,
,,,,,,,,,,,,,,,,p,1,1.118285,,,,,,,,line_mid_TP/5_1_1.1424_none_right_col_20_row_16.jpg,,1,,line,p,mid,605d8056fdf44e1e528b0e7e,25,male,2021-05-03_12h09.57.988,search_v5,2021.1.2,Win32,144.1753172,,,space,0.21811,0,82,82,139,1,,,,,,,,,,,,,,,
,,,,,,,,,,,,,,,,a,1,2.520355,,,,,,,,line_mid_TA/9_4_NaN_none_absent.jpg,,0,,line,a,mid,605d8056fdf44e1e528b0e7e,25,male,2021-05-03_12h09.57.988,search_v5,2021.1.2,Win32,144.1753172,,,space,0.338255,0,83,83,126,1,,,,,,,,,,,,,,,
,,,,,,,,,,,,,,,,p,1,0.64194,,,,,,,,line_mid_TP/9_2_1.1424_none_right_col_20_row_1.jpg,,1,,line,p,mid,605d8056fdf44e1e528b0e7e,25,male,2021-05-03_12h09.57.988,search_v5,2021.1.2,Win32,144.1753172,,,space,0.238385,0,84,84,10,1,,,,,,,,,,,,,,,
,,,,,,,,,,,,,,,,a,1,1.73599,,,,,,,,line_mid_TA/11_3_NaN_all_absent.jpg,,0,,line,a,mid,605d8056fdf44e1e528b0e7e,25,male,2021-05-03_12h09.57.988,search_v5,2021.1.2,Win32,144.1753172,,,space,0.15326,0,85,85,107,1,,,,,,,,,,,,,,,
,,,,,,,,,,,,,,,,p,1,0.62433,,,,,,,,line_easy_TP/4_1_0.5236_all_left_col_6_row_4.jpg,,1,,line,p,easy,605d8056fdf44e1e528b0e7e,25,male,2021-05-03_12h09.57.988,search_v5,2021.1.2,Win32,144.1753172,,,space,0.121455,0,86,86,49,1,,,,,,,,,,,,,,,
,,,,,,,,,,,,,,,,a,1,1.46965,,,,,,,,line_mid_TA/4_0_NaN_none_absent.jpg,,0,,line,a,mid,605d8056fdf44e1e528b0e7e,25,male,2021-05-03_12h09.57.988,search_v5,2021.1.2,Win32,144.1753172,,,space,0.10871,0,87,87,117,1,,,,,,,,,,,,,,,
,,,,,,,,,,,,,,,,a,1,3.751135,,,,,,,,line_hard_TA/5_3_NaN_none_absent.jpg,,0,,line,a,hard,605d8056fdf44e1e528b0e7e,25,male,2021-05-03_12h09.57.988,search_v5,2021.1.2,Win32,144.1753172,,,space,0.19475,0,88,88,79,1,,,,,,,,,,,,,,,
,,,,,,,,,,,,,,,,p,1,0.783995,,,,,,,,line_mid_TP/1_1_1.1424_none_right_col_21_row_2.jpg,,1,,line,p,mid,605d8056fdf44e1e528b0e7e,25,male,2021-05-03_12h09.57.988,search_v5,2021.1.2,Win32,144.1753172,,,space,0.18118,0,89,89,128,1,,,,,,,,,,,,,,,
,,,,,,,,,,,,,,,,p,1,1.20099,,,,,,,,line_easy_TP/1_0_0.5236_all_left_col_2_row_16.jpg,,1,,line,p,easy,605d8056fdf44e1e528b0e7e,25,male,2021-05-03_12h09.57.988,search_v5,2021.1.2,Win32,144.1753172,,,space,0.20489,0,90,90,43,1,,,,,,,,,,,,,,,
,,,,,,,,,,,,,,,,a,0,3.180475,,,,,,,,line_hard_TP/2_1_2.0944_none_right_col_16_row_14.jpg,,1,,line,p,hard,605d8056fdf44e1e528b0e7e,25,male,2021-05-03_12h09.57.988,search_v5,2021.1.2,Win32,144.1753172,,,space,0.495915,0,91,91,95,1,,,,,,,,,,,,,,,
,,,,,,,,,,,,,,,,p,0,1.145605,,,,,,,,line_hard_TA/1_4_NaN_none_absent.jpg,,0,,line,a,hard,605d8056fdf44e1e528b0e7e,25,male,2021-05-03_12h09.57.988,search_v5,2021.1.2,Win32,144.1753172,,,space,0.4249,0,92,92,67,1,,,,,,,,,,,,,,,
,,,,,,,,,,,,,,,,a,1,2.65069,,,,,,,,line_mid_TA/11_4_NaN_all_absent.jpg,,0,,line,a,mid,605d8056fdf44e1e528b0e7e,25,male,2021-05-03_12h09.57.988,search_v5,2021.1.2,Win32,144.1753172,,,space,0.318515,0,93,93,108,1,,,,,,,,,,,,,,,
,,,,,,,,,,,,,,,,p,1,0.581965,,,,,,,,line_mid_TP/2_3_1.1424_none_right_col_21_row_15.jpg,,1,,line,p,mid,605d8056fdf44e1e528b0e7e,25,male,2021-05-03_12h09.57.988,search_v5,2021.1.2,Win32,144.1753172,,,space,0.113875,0,94,94,132,1,,,,,,,,,,,,,,,
,,,,,,,,,,,,,,,,a,1,1.259795,,,,,,,,line_mid_TA/11_1_NaN_none_absent.jpg,,0,,line,a,mid,605d8056fdf44e1e528b0e7e,25,male,2021-05-03_12h09.57.988,search_v5,2021.1.2,Win32,144.1753172,,,space,0.273045,0,95,95,105,1,,,,,,,,,,,,,,,
,,,,,,,,,,,,,,,,a,1,1.6659,,,,,,,,line_hard_TA/1_3_NaN_none_absent.jpg,,0,,line,a,hard,605d8056fdf44e1e528b0e7e,25,male,2021-05-03_12h09.57.988,search_v5,2021.1.2,Win32,144.1753172,,,space,0.331675,0,96,96,66,1,,,,,,,,,,,,,,,
,,,,,,,,,,,,,,,,p,1,0.50227,,,,,,,,line_easy_TP/18_2_0.5236_all_right_col_15_row_1.jpg,,1,,line,p,easy,605d8056fdf44e1e528b0e7e,25,male,2021-05-03_12h09.57.988,search_v5,2021.1.2,Win32,144.1753172,,,space,0.231535,0,97,97,39,1,,,,,,,,,,,,,,,
,,,,,,,,,,,,,,,,a,1,0.86745,,,,,,,,line_easy_TA/4_3_NaN_all_absent.jpg,,0,,line,a,easy,605d8056fdf44e1e528b0e7e,25,male,2021-05-03_12h09.57.988,search_v5,2021.1.2,Win32,144.1753172,,,space,0.23653,0,98,98,28,1,,,,,,,,,,,,,,,
,,,,,,,,,,,,,,,,a,1,1.361865,,,,,,,,line_easy_TA/17_2_NaN_all_absent.jpg,,0,,line,a,easy,605d8056fdf44e1e528b0e7e,25,male,2021-05-03_12h09.57.988,search_v5,2021.1.2,Win32,144.1753172,,,space,0.323675,0,99,99,17,1,,,,,,,,,,,,,,,
,,,,,,,,,,,,,,,,a,0,1.14484,,,,,,,,line_mid_TP/7_4_1.7453_all_right_col_17_row_6.jpg,,1,,line,p,mid,605d8056fdf44e1e528b0e7e,25,male,2021-05-03_12h09.57.988,search_v5,2021.1.2,Win32,144.1753172,,,space,6.287435,0,100,100,147,1,,,,,,,,,,,,,,,
,,,,,,,,,,,,,,,,p,1,1.19553,,,,,,,,line_mid_TP/9_1_1.7453_all_left_col_4_row_15.jpg,,1,,line,p,mid,605d8056fdf44e1e528b0e7e,25,male,2021-05-03_12h09.57.988,search_v5,2021.1.2,Win32,144.1753172,,,space,0.396135,0,101,101,149,1,,,,,,,,,,,,,,,
,,,,,,,,,,,,,,,,p,1,1.473755,,,,,,,,line_hard_TP/19_4_2.0944_none_right_col_16_row_3.jpg,,1,,line,p,hard,605d8056fdf44e1e528b0e7e,25,male,2021-05-03_12h09.57.988,search_v5,2021.1.2,Win32,144.1753172,,,space,0.36311,0,102,102,89,1,,,,,,,,,,,,,,,
,,,,,,,,,,,,,,,,p,1,0.70995,,,,,,,,line_mid_TP/1_0_1.7453_all_right_col_13_row_9.jpg,,1,,line,p,mid,605d8056fdf44e1e528b0e7e,25,male,2021-05-03_12h09.57.988,search_v5,2021.1.2,Win32,144.1753172,,,space,0.124905,0,103,103,127,1,,,,,,,,,,,,,,,
,,,,,,,,,,,,,,,,a,0,1.780585,,,,,,,,line_mid_TP/2_0_1.7453_all_left_col_8_row_12.jpg,,1,,line,p,mid,605d8056fdf44e1e528b0e7e,25,male,2021-05-03_12h09.57.988,search_v5,2021.1.2,Win32,144.1753172,,,space,1.985825,0,104,104,130,1,,,,,,,,,,,,,,,
,,,,,,,,,,,,,,,,a,1,1.99398,,,,,,,,line_hard_TA/22_1_NaN_none_absent.jpg,,0,,line,a,hard,605d8056fdf44e1e528b0e7e,25,male,2021-05-03_12h09.57.988,search_v5,2021.1.2,Win32,144.1753172,,,space,0.36227,0,105,105,70,1,,,,,,,,,,,,,,,
,,,,,,,,,,,,,,,,a,1,2.92798,,,,,,,,line_easy_TA/3_1_NaN_all_absent.jpg,,0,,line,a,easy,605d8056fdf44e1e528b0e7e,25,male,2021-05-03_12h09.57.988,search_v5,2021.1.2,Win32,144.1753172,,,space,0.352695,0,106,106,26,1,,,,,,,,,,,,,,,
,,,,,,,,,,,,,,,,a,0,1.50626,,,,,,,,line_hard_TP/8_2_2.0944_none_left_col_4_row_12.jpg,,1,,line,p,hard,605d8056fdf44e1e528b0e7e,25,male,2021-05-03_12h09.57.988,search_v5,2021.1.2,Win32,144.1753172,,,space,0.972755,0,107,107,100,1,,,,,,,,,,,,,,,
,,,,,,,,,,,,,,,,p,1,1.417625,,,,,,,,line_mid_TP/7_3_1.7453_all_right_col_15_row_2.jpg,,1,,line,p,mid,605d8056fdf44e1e528b0e7e,25,male,2021-05-03_12h09.57.988,search_v5,2021.1.2,Win32,144.1753172,,,space,0.2244,0,108,108,146,1,,,,,,,,,,,,,,,
,,,,,,,,,,,,,,,,p,0,1.06959,,,,,,,,line_hard_TA/4_0_NaN_none_absent.jpg,,0,,line,a,hard,605d8056fdf44e1e528b0e7e,25,male,2021-05-03_12h09.57.988,search_v5,2021.1.2,Win32,144.1753172,,,space,0.285105,0,109,109,77,1,,,,,,,,,,,,,,,
,,,,,,,,,,,,,,,,p,1,0.571175,,,,,,,,line_easy_TP/8_1_0.5236_all_right_col_14_row_4.jpg,,1,,line,p,easy,605d8056fdf44e1e528b0e7e,25,male,2021-05-03_12h09.57.988,search_v5,2021.1.2,Win32,144.1753172,,,space,0.132045,0,110,110,55,1,,,,,,,,,,,,,,,
,,,,,,,,,,,,,,,,p,1,0.603685,,,,,,,,line_hard_TP/14_1_2.0944_none_right_col_15_row_6.jpg,,1,,line,p,hard,605d8056fdf44e1e528b0e7e,25,male,2021-05-03_12h09.57.988,search_v5,2021.1.2,Win32,144.1753172,,,space,0.298225,0,111,111,83,1,,,,,,,,,,,,,,,
,,,,,,,,,,,,,,,,a,1,1.254625,,,,,,,,line_easy_TA/23_4_NaN_all_absent.jpg,,0,,line,a,easy,605d8056fdf44e1e528b0e7e,25,male,2021-05-03_12h09.57.988,search_v5,2021.1.2,Win32,144.1753172,,,space,0.097,0,112,112,22,1,,,,,,,,,,,,,,,
,,,,,,,,,,,,,,,,p,1,0.957125,,,,,,,,line_mid_TP/7_2_1.7453_all_right_col_16_row_5.jpg,,1,,line,p,mid,605d8056fdf44e1e528b0e7e,25,male,2021-05-03_12h09.57.988,search_v5,2021.1.2,Win32,144.1753172,,,space,0.11904,0,113,113,145,1,,,,,,,,,,,,,,,
,,,,,,,,,,,,,,,,p,1,0.618935,,,,,,,,line_easy_TP/12_1_0.5236_all_right_col_15_row_4.jpg,,1,,line,p,easy,605d8056fdf44e1e528b0e7e,25,male,2021-05-03_12h09.57.988,search_v5,2021.1.2,Win32,144.1753172,,,space,0.0795,0,114,114,35,1,,,,,,,,,,,,,,,
,,,,,,,,,,,,,,,,a,0,0.764625,,,,,,,,line_mid_TP/2_4_1.1424_none_right_col_18_row_13.jpg,,1,,line,p,mid,605d8056fdf44e1e528b0e7e,25,male,2021-05-03_12h09.57.988,search_v5,2021.1.2,Win32,144.1753172,,,space,0.022805,0,115,115,133,1,,,,,,,,,,,,,,,
,,,,,,,,,,,,,,,,a,1,1.681015,,,,,,,,line_mid_TA/10_2_NaN_none_absent.jpg,,0,,line,a,mid,605d8056fdf44e1e528b0e7e,25,male,2021-05-03_12h09.57.988,search_v5,2021.1.2,Win32,144.1753172,,,space,0.278335,0,116,116,9,1,,,,,,,,,,,,,,,
,,,,,,,,,,,,,,,,p,1,0.48159,,,,,,,,line_easy_TP/10_2_0.5236_all_right_col_18_row_7.jpg,,1,,line,p,easy,605d8056fdf44e1e528b0e7e,25,male,2021-05-03_12h09.57.988,search_v5,2021.1.2,Win32,144.1753172,,,space,0.10536,0,117,117,2,1,,,,,,,,,,,,,,,
,,,,,,,,,,,,,,,,a,1,1.34171,,,,,,,,line_mid_TA/6_1_NaN_none_absent.jpg,,0,,line,a,mid,605d8056fdf44e1e528b0e7e,25,male,2021-05-03_12h09.57.988,search_v5,2021.1.2,Win32,144.1753172,,,space,0.160125,0,118,118,121,1,,,,,,,,,,,,,,,
,,,,,,,,,,,,,,,,a,1,1.070465,,,,,,,,line_easy_TA/2_4_NaN_all_absent.jpg,,0,,line,a,easy,605d8056fdf44e1e528b0e7e,25,male,2021-05-03_12h09.57.988,search_v5,2021.1.2,Win32,144.1753172,,,space,0.102925,0,119,119,24,1,,,,,,,,,,,,,,,
,,,,,,,,,,,,,,,,a,1,1.71583,,,,,,,,line_easy_TA/16_2_NaN_all_absent.jpg,,0,,line,a,easy,605d8056fdf44e1e528b0e7e,25,male,2021-05-03_12h09.57.988,search_v5,2021.1.2,Win32,144.1753172,,,space,0.04248,0,120,120,15,1,,,,,,,,,,,,,,,
,,,,,,,,,,,,,,,,a,1,3.52923,,,,,,,,line_hard_TA/6_1_NaN_none_absent.jpg,,0,,line,a,hard,605d8056fdf44e1e528b0e7e,25,male,2021-05-03_12h09.57.988,search_v5,2021.1.2,Win32,144.1753172,,,space,0.452095,0,121,121,80,1,,,,,,,,,,,,,,,
,,,,,,,,,,,,,,,,a,1,2.04805,,,,,,,,line_mid_TA/1_3_NaN_all_absent.jpg,,0,,line,a,mid,605d8056fdf44e1e528b0e7e,25,male,2021-05-03_12h09.57.988,search_v5,2021.1.2,Win32,144.1753172,,,space,0.085365,0,122,122,111,1,,,,,,,,,,,,,,,
,,,,,,,,,,,,,,,,p,1,0.73106,,,,,,,,line_mid_TP/5_0_1.1424_none_left_col_7_row_16.jpg,,1,,line,p,mid,605d8056fdf44e1e528b0e7e,25,male,2021-05-03_12h09.57.988,search_v5,2021.1.2,Win32,144.1753172,,,space,0.216215,0,123,123,138,1,,,,,,,,,,,,,,,
,,,,,,,,,,,,,,,,p,1,0.52262,,,,,,,,line_mid_TP/5_2_1.1424_none_right_col_17_row_9.jpg,,1,,line,p,mid,605d8056fdf44e1e528b0e7e,25,male,2021-05-03_12h09.57.988,search_v5,2021.1.2,Win32,144.1753172,,,space,0.22238,0,124,124,140,1,,,,,,,,,,,,,,,
,,,,,,,,,,,,,,,,p,0,1.193045,,,,,,,,line_hard_TA/22_4_NaN_none_absent.jpg,,0,,line,a,hard,605d8056fdf44e1e528b0e7e,25,male,2021-05-03_12h09.57.988,search_v5,2021.1.2,Win32,144.1753172,,,space,0.242175,0,125,125,72,1,,,,,,,,,,,,,,,
,,,,,,,,,,,,,,,,a,1,1.000725,,,,,,,,line_mid_TA/10_1_NaN_none_absent.jpg,,0,,line,a,mid,605d8056fdf44e1e528b0e7e,25,male,2021-05-03_12h09.57.988,search_v5,2021.1.2,Win32,144.1753172,,,space,0.117555,0,126,126,8,1,,,,,,,,,,,,,,,
,,,,,,,,,,,,,,,,a,0,1.423155,,,,,,,,line_mid_TP/6_4_1.7453_all_left_col_6_row_5.jpg,,1,,line,p,mid,605d8056fdf44e1e528b0e7e,25,male,2021-05-03_12h09.57.988,search_v5,2021.1.2,Win32,144.1753172,,,space,2.64608,0,127,127,144,1,,,,,,,,,,,,,,,
,,,,,,,,,,,,,,,,a,1,1.17848,,,,,,,,line_easy_TA/5_2_NaN_all_absent.jpg,,0,,line,a,easy,605d8056fdf44e1e528b0e7e,25,male,2021-05-03_12h09.57.988,search_v5,2021.1.2,Win32,144.1753172,,,space,0.22084,0,128,128,30,1,,,,,,,,,,,,,,,
,,,,,,,,,,,,,,,,a,1,1.838185,,,,,,,,line_mid_TA/8_2_NaN_all_absent.jpg,,0,,line,a,mid,605d8056fdf44e1e528b0e7e,25,male,2021-05-03_12h09.57.988,search_v5,2021.1.2,Win32,144.1753172,,,space,0.258635,0,129,129,123,1,,,,,,,,,,,,,,,
,,,,,,,,,,,,,,,,a,0,0.999775,,,,,,,,line_hard_TP/12_4_2.0944_none_right_col_17_row_12.jpg,,1,,line,p,hard,605d8056fdf44e1e528b0e7e,25,male,2021-05-03_12h09.57.988,search_v5,2021.1.2,Win32,144.1753172,,,space,1.050905,0,130,130,82,1,,,,,,,,,,,,,,,
,,,,,,,,,,,,,,,,p,1,0.6204,,,,,,,,line_easy_TP/9_4_0.5236_all_right_col_16_row_3.jpg,,1,,line,p,easy,605d8056fdf44e1e528b0e7e,25,male,2021-05-03_12h09.57.988,search_v5,2021.1.2,Win32,144.1753172,,,space,0.21042,0,131,131,57,1,,,,,,,,,,,,,,,
,,,,,,,,,,,,,,,,p,1,0.672255,,,,,,,,line_easy_TP/7_4_0.5236_all_left_col_6_row_11.jpg,,1,,line,p,easy,605d8056fdf44e1e528b0e7e,25,male,2021-05-03_12h09.57.988,search_v5,2021.1.2,Win32,144.1753172,,,space,0.09484,0,132,132,54,1,,,,,,,,,,,,,,,
,,,,,,,,,,,,,,,,p,1,0.691855,,,,,,,,line_hard_TP/9_3_2.0944_none_right_col_16_row_16.jpg,,1,,line,p,hard,605d8056fdf44e1e528b0e7e,25,male,2021-05-03_12h09.57.988,search_v5,2021.1.2,Win32,144.1753172,,,space,0.188655,0,133,133,103,1,,,,,,,,,,,,,,,
,,,,,,,,,,,,,,,,a,1,1.277925,,,,,,,,line_easy_TA/21_4_NaN_all_absent.jpg,,0,,line,a,easy,605d8056fdf44e1e528b0e7e,25,male,2021-05-03_12h09.57.988,search_v5,2021.1.2,Win32,144.1753172,,,space,0.146445,0,134,134,21,1,,,,,,,,,,,,,,,
,,,,,,,,,,,,,,,,a,0,0.785045,,,,,,,,line_hard_TP/21_3_2.0944_none_right_col_15_row_13.jpg,,1,,line,p,hard,605d8056fdf44e1e528b0e7e,25,male,2021-05-03_12h09.57.988,search_v5,2021.1.2,Win32,144.1753172,,,space,1.56078,0,135,135,92,1,,,,,,,,,,,,,,,
,,,,,,,,,,,,,,,,a,1,1.800015,,,,,,,,line_easy_TA/19_2_NaN_all_absent.jpg,,0,,line,a,easy,605d8056fdf44e1e528b0e7e,25,male,2021-05-03_12h09.57.988,search_v5,2021.1.2,Win32,144.1753172,,,space,0.17149,0,136,136,18,1,,,,,,,,,,,,,,,
,,,,,,,,,,,,,,,,a,0,0.74969,,,,,,,,line_hard_TP/8_3_2.0944_none_left_col_8_row_2.jpg,,1,,line,p,hard,605d8056fdf44e1e528b0e7e,25,male,2021-05-03_12h09.57.988,search_v5,2021.1.2,Win32,144.1753172,,,space,0.549015,0,137,137,101,1,,,,,,,,,,,,,,,
,,,,,,,,,,,,,,,,p,0,0.11758,,,,,,,,line_easy_TA/7_3_NaN_all_absent.jpg,,0,,line,a,easy,605d8056fdf44e1e528b0e7e,25,male,2021-05-03_12h09.57.988,search_v5,2021.1.2,Win32,144.1753172,,,space,0.25002,0,138,138,33,1,,,,,,,,,,,,,,,
,,,,,,,,,,,,,,,,a,1,1.4228,,,,,,,,line_easy_TA/2_3_NaN_all_absent.jpg,,0,,line,a,easy,605d8056fdf44e1e528b0e7e,25,male,2021-05-03_12h09.57.988,search_v5,2021.1.2,Win32,144.1753172,,,space,0.250305,0,139,139,23,1,,,,,,,,,,,,,,,
,,,,,,,,,,,,,,,,p,1,0.706225,,,,,,,,line_mid_TP/4_4_1.1424_none_left_col_3_row_10.jpg,,1,,line,p,mid,605d8056fdf44e1e528b0e7e,25,male,2021-05-03_12h09.57.988,search_v5,2021.1.2,Win32,144.1753172,,,space,0.20155,0,140,140,137,1,,,,,,,,,,,,,,,
,,,,,,,,,,,,,,,,p,1,1.3558,,,,,,,,line_mid_TP/8_1_1.1424_none_left_col_6_row_14.jpg,,1,,line,p,mid,605d8056fdf44e1e528b0e7e,25,male,2021-05-03_12h09.57.988,search_v5,2021.1.2,Win32,144.1753172,,,space,0.180555,0,141,141,148,1,,,,,,,,,,,,,,,
,,,,,,,,,,,,,,,,p,1,0.501045,,,,,,,,line_easy_TP/19_1_0.5236_all_left_col_6_row_1.jpg,,1,,line,p,easy,605d8056fdf44e1e528b0e7e,25,male,2021-05-03_12h09.57.988,search_v5,2021.1.2,Win32,144.1753172,,,space,0.099195,0,142,142,41,1,,,,,,,,,,,,,,,
,,,,,,,,,,,,,,,,a,1,1.307385,,,,,,,,line_mid_TA/3_4_NaN_none_absent.jpg,,0,,line,a,mid,605d8056fdf44e1e528b0e7e,25,male,2021-05-03_12h09.57.988,search_v5,2021.1.2,Win32,144.1753172,,,space,0.23829,0,143,143,116,1,,,,,,,,,,,,,,,
,,,,,,,,,,,,,,,,a,1,1.098615,,,,,,,,line_mid_TA/3_2_NaN_none_absent.jpg,,0,,line,a,mid,605d8056fdf44e1e528b0e7e,25,male,2021-05-03_12h09.57.988,search_v5,2021.1.2,Win32,144.1753172,,,space,0.24989,0,144,144,114,1,,,,,,,,,,,,,,,
,,,,,,,,,,,,,,,,a,1,3.09461,,,,,,,,line_hard_TA/3_2_NaN_none_absent.jpg,,0,,line,a,hard,605d8056fdf44e1e528b0e7e,25,male,2021-05-03_12h09.57.988,search_v5,2021.1.2,Win32,144.1753172,,,space,0.301025,0,145,145,76,1,,,,,,,,,,,,,,,
,,,,,,,,,,,,,,,,p,1,0.61275,,,,,,,,line_easy_TP/6_3_0.5236_all_left_col_10_row_2.jpg,,1,,line,p,easy,605d8056fdf44e1e528b0e7e,25,male,2021-05-03_12h09.57.988,search_v5,2021.1.2,Win32,144.1753172,,,space,0.280405,0,146,146,51,1,,,,,,,,,,,,,,,
,,,,,,,,,,,,,,,,p,1,0.680085,,,,,,,,line_hard_TP/12_2_2.0944_none_right_col_13_row_8.jpg,,1,,line,p,hard,605d8056fdf44e1e528b0e7e,25,male,2021-05-03_12h09.57.988,search_v5,2021.1.2,Win32,144.1753172,,,space,0.29285,0,147,147,81,1,,,,,,,,,,,,,,,
,,,,,,,,,,,,,,,,p,0,0.62677,,,,,,,,line_mid_TA/1_2_NaN_all_absent.jpg,,0,,line,a,mid,605d8056fdf44e1e528b0e7e,25,male,2021-05-03_12h09.57.988,search_v5,2021.1.2,Win32,144.1753172,,,space,0.363465,0,148,148,110,1,,,,,,,,,,,,,,,
,,,,,,,,,,,,,,,,a,1,1.020335,,,,,,,,line_easy_TA/21_1_NaN_all_absent.jpg,,0,,line,a,easy,605d8056fdf44e1e528b0e7e,25,male,2021-05-03_12h09.57.988,search_v5,2021.1.2,Win32,144.1753172,,,space,0.25515,0,149,149,20,1,,,,,,,,,,,,,,,
,,,,,,,,,,,,,,,,,,,,,,,,,,,,,,,,,605d8056fdf44e1e528b0e7e,25,male,2021-05-03_12h09.57.988,search_v5,2021.1.2,Win32,144.1753172,,,,,,,,,,0,1,1,2,1,condLine.xlsx,lines,Look for a line tilted 45 degrees to the right (target) and indicate if it is present or absent in the array. If the target is present press 'p' and if absent press 'a'. Press SPACE to start.,line_segment_example.jpg,,,,egLine.xlsx,,
,,,,,,,,,,,,space,21.58243,space,2.06984,a,0,1.601035,space,0.38457,0,0,0,3,1,tex_hard_TP/1.6_r=100_phi=270_seed=1.png,,1,,texture,p,hard,605d8056fdf44e1e528b0e7e,25,male,2021-05-03_12h09.57.988,search_v5,2021.1.2,Win32,144.1753172,,,,,,,,,,,,,,,,,,,,,,,,
,,,,,,,,,,,,,,,,p,1,0.712195,space,0.21147,0,1,1,4,1,tex_mid_TP/1.65_r=100_phi=225_seed=2.png,,1,,texture,p,mid,605d8056fdf44e1e528b0e7e,25,male,2021-05-03_12h09.57.988,search_v5,2021.1.2,Win32,144.1753172,,,,,,,,,,,,,,,,,,,,,,,,
,,,,,,,,,,,,,,,,a,1,2.003425,space,0.338945,0,2,2,9,1,tex_easy_TA/1.7_r=TA_seed=3.png,,0,,texture,a,easy,605d8056fdf44e1e528b0e7e,25,male,2021-05-03_12h09.57.988,search_v5,2021.1.2,Win32,144.1753172,,,,,,,,,,,,,,,,,,,,,,,,
,,,,,,,,,,,,,,,,p,1,0.62598,space,0.20805,0,3,3,0,1,tex_easy_TP/1.7_r=150_phi=225_seed=3.png,,1,,texture,p,easy,605d8056fdf44e1e528b0e7e,25,male,2021-05-03_12h09.57.988,search_v5,2021.1.2,Win32,144.1753172,,,,,,,,,,,,,,,,,,,,,,,,
,,,,,,,,,,,,,,,,a,1,1.35327,space,0.24304,0,4,4,8,1,tex_easy_TA/1.7_r=TA_seed=3.png,,0,,texture,a,easy,605d8056fdf44e1e528b0e7e,25,male,2021-05-03_12h09.57.988,search_v5,2021.1.2,Win32,144.1753172,,,,,,,,,,,,,,,,,,,,,,,,
,,,,,,,,,,,,,,,,a,1,1.797515,space,0.22362,0,5,5,7,1,tex_mid_TA/1.65_r=TA_seed=2.png,,0,,texture,a,mid,605d8056fdf44e1e528b0e7e,25,male,2021-05-03_12h09.57.988,search_v5,2021.1.2,Win32,144.1753172,,,,,,,,,,,,,,,,,,,,,,,,
,,,,,,,,,,,,,,,,a,1,1.94698,space,0.245245,0,6,6,10,1,tex_hard_TA/1.6_r=TA_seed=1.png,,0,,texture,a,hard,605d8056fdf44e1e528b0e7e,25,male,2021-05-03_12h09.57.988,search_v5,2021.1.2,Win32,144.1753172,,,,,,,,,,,,,,,,,,,,,,,,
,,,,,,,,,,,,,,,,a,1,1.665715,space,0.121485,0,7,7,6,1,tex_mid_TA/1.65_r=TA_seed=2.png,,0,,texture,a,mid,605d8056fdf44e1e528b0e7e,25,male,2021-05-03_12h09.57.988,search_v5,2021.1.2,Win32,144.1753172,,,,,,,,,,,,,,,,,,,,,,,,
,,,,,,,,,,,,,,,,p,1,1.80468,space,0.17659,0,8,8,5,1,tex_mid_TP/1.65_r=100_phi=270_seed=2.png,,1,,texture,p,mid,605d8056fdf44e1e528b0e7e,25,male,2021-05-03_12h09.57.988,search_v5,2021.1.2,Win32,144.1753172,,,,,,,,,,,,,,,,,,,,,,,,
,,,,,,,,,,,,,,,,a,1,1.173825,space,0.24657,0,9,9,11,1,tex_hard_TA/1.6_r=TA_seed=1.png,,0,,texture,a,hard,605d8056fdf44e1e528b0e7e,25,male,2021-05-03_12h09.57.988,search_v5,2021.1.2,Win32,144.1753172,,,,,,,,,,,,,,,,,,,,,,,,
,,,,,,,,,,,,,,,,p,1,0.58648,space,0.250175,0,10,10,1,1,tex_easy_TP/1.7_r=150_phi=315_seed=3.png,,1,,texture,p,easy,605d8056fdf44e1e528b0e7e,25,male,2021-05-03_12h09.57.988,search_v5,2021.1.2,Win32,144.1753172,,,,,,,,,,,,,,,,,,,,,,,,
,,,,,,,,,,,,,,,,a,0,1.38779,space,0.21923,0,11,11,2,1,tex_hard_TP/1.6_r=100_phi=0_seed=1.png,,1,,texture,p,hard,605d8056fdf44e1e528b0e7e,25,male,2021-05-03_12h09.57.988,search_v5,2021.1.2,Win32,144.1753172,,,,,,,,,,,,,,,,,,,,,,,,
,,,,,,,,,,,,,,,,p,1,1.132505,,,,,,,,tex_easy_TP/1.7_r=200_phi=90_seed=3.png,,1,,texture,p,easy,605d8056fdf44e1e528b0e7e,25,male,2021-05-03_12h09.57.988,search_v5,2021.1.2,Win32,144.1753172,space,0.47713,space,0.19004,0,0,0,16,1,,,,,,,,,,,,,,,
,,,,,,,,,,,,,,,,a,1,2.04117,,,,,,,,tex_mid_TA/1.65_r=TA_seed=2.png,,0,,texture,a,mid,605d8056fdf44e1e528b0e7e,25,male,2021-05-03_12h09.57.988,search_v5,2021.1.2,Win32,144.1753172,,,space,0.328525,0,1,1,84,1,,,,,,,,,,,,,,,
,,,,,,,,,,,,,,,,a,1,1.34799,,,,,,,,tex_mid_TA/1.65_r=TA_seed=2.png,,0,,texture,a,mid,605d8056fdf44e1e528b0e7e,25,male,2021-05-03_12h09.57.988,search_v5,2021.1.2,Win32,144.1753172,,,space,0.16302,0,2,2,97,1,,,,,,,,,,,,,,,
,,,,,,,,,,,,,,,,a,0,1.3742,,,,,,,,tex_hard_TP/1.6_r=350_phi=90_seed=1.png,,1,,texture,p,hard,605d8056fdf44e1e528b0e7e,25,male,2021-05-03_12h09.57.988,search_v5,2021.1.2,Win32,144.1753172,,,space,0.955025,0,3,3,48,1,,,,,,,,,,,,,,,
,,,,,,,,,,,,,,,,a,1,1.22969,,,,,,,,tex_easy_TA/1.7_r=TA_seed=3.png,,0,,texture,a,easy,605d8056fdf44e1e528b0e7e,25,male,2021-05-03_12h09.57.988,search_v5,2021.1.2,Win32,144.1753172,,,space,0.28047,0,4,4,8,1,,,,,,,,,,,,,,,
,,,,,,,,,,,,,,,,a,0,1.584,,,,,,,,tex_hard_TP/1.6_r=450_phi=135_seed=1.png,,1,,texture,p,hard,605d8056fdf44e1e528b0e7e,25,male,2021-05-03_12h09.57.988,search_v5,2021.1.2,Win32,144.1753172,,,space,0.305845,0,5,5,52,1,,,,,,,,,,,,,,,
,,,,,,,,,,,,,,,,p,1,1.691845,,,,,,,,tex_easy_TP/1.7_r=150_phi=315_seed=3.png,,1,,texture,p,easy,605d8056fdf44e1e528b0e7e,25,male,2021-05-03_12h09.57.988,search_v5,2021.1.2,Win32,144.1753172,,,space,0.20158,0,6,6,1,1,,,,,,,,,,,,,,,
,,,,,,,,,,,,,,,,a,0,4.540145,,,,,,,,tex_hard_TP/1.6_r=300_phi=90_seed=1.png,,1,,texture,p,hard,605d8056fdf44e1e528b0e7e,25,male,2021-05-03_12h09.57.988,search_v5,2021.1.2,Win32,144.1753172,,,space,0.15119,0,7,7,46,1,,,,,,,,,,,,,,,
,,,,,,,,,,,,,,,,a,0,2.37928,,,,,,,,tex_mid_TP/1.65_r=300_phi=135_seed=2.png,,1,,texture,p,mid,605d8056fdf44e1e528b0e7e,25,male,2021-05-03_12h09.57.988,search_v5,2021.1.2,Win32,144.1753172,,,space,0.173945,0,8,8,66,1,,,,,,,,,,,,,,,
,,,,,,,,,,,,,,,,a,1,3.09087,,,,,,,,tex_mid_TA/1.65_r=TA_seed=2.png,,0,,texture,a,mid,605d8056fdf44e1e528b0e7e,25,male,2021-05-03_12h09.57.988,search_v5,2021.1.2,Win32,144.1753172,,,space,0.510745,0,9,9,89,1,,,,,,,,,,,,,,,
,,,,,,,,,,,,,,,,p,1,0.56779,,,,,,,,tex_mid_TP/1.65_r=200_phi=45_seed=2.png,,1,,texture,p,mid,605d8056fdf44e1e528b0e7e,25,male,2021-05-03_12h09.57.988,search_v5,2021.1.2,Win32,144.1753172,,,space,0.22311,0,10,10,62,1,,,,,,,,,,,,,,,
,,,,,,,,,,,,,,,,p,1,1.634505,,,,,,,,tex_easy_TP/1.7_r=300_phi=225_seed=3.png,,1,,texture,p,easy,605d8056fdf44e1e528b0e7e,25,male,2021-05-03_12h09.57.988,search_v5,2021.1.2,Win32,144.1753172,,,space,0.188185,0,11,11,22,1,,,,,,,,,,,,,,,
,,,,,,,,,,,,,,,,a,1,2.1339,,,,,,,,tex_easy_TA/1.7_r=TA_seed=3.png,,0,,texture,a,easy,605d8056fdf44e1e528b0e7e,25,male,2021-05-03_12h09.57.988,search_v5,2021.1.2,Win32,144.1753172,,,space,0.321665,0,12,12,123,1,,,,,,,,,,,,,,,
,,,,,,,,,,,,,,,,p,1,1.06832,,,,,,,,tex_mid_TP/1.65_r=100_phi=45_seed=2.png,,1,,texture,p,mid,605d8056fdf44e1e528b0e7e,25,male,2021-05-03_12h09.57.988,search_v5,2021.1.2,Win32,144.1753172,,,space,0.17441,0,13,13,58,1,,,,,,,,,,,,,,,
,,,,,,,,,,,,,,,,p,1,0.77954,,,,,,,,tex_easy_TP/1.7_r=250_phi=225_seed=3.png,,1,,texture,p,easy,605d8056fdf44e1e528b0e7e,25,male,2021-05-03_12h09.57.988,search_v5,2021.1.2,Win32,144.1753172,,,space,0.11778,0,14,14,18,1,,,,,,,,,,,,,,,
,,,,,,,,,,,,,,,,p,1,0.752565,,,,,,,,tex_easy_TP/1.7_r=400_phi=315_seed=3.png,,1,,texture,p,easy,605d8056fdf44e1e528b0e7e,25,male,2021-05-03_12h09.57.988,search_v5,2021.1.2,Win32,144.1753172,,,space,0.097265,0,15,15,30,1,,,,,,,,,,,,,,,
,,,,,,,,,,,,,,,,p,1,0.547495,,,,,,,,tex_mid_TP/1.65_r=100_phi=270_seed=2.png,,1,,texture,p,mid,605d8056fdf44e1e528b0e7e,25,male,2021-05-03_12h09.57.988,search_v5,2021.1.2,Win32,144.1753172,,,space,0.194825,0,16,16,5,1,,,,,,,,,,,,,,,
,,,,,,,,,,,,,,,,a,1,2.88893,,,,,,,,tex_easy_TA/1.7_r=TA_seed=3.png,,0,,texture,a,easy,605d8056fdf44e1e528b0e7e,25,male,2021-05-03_12h09.57.988,search_v5,2021.1.2,Win32,144.1753172,,,space,0.16174,0,17,17,115,1,,,,,,,,,,,,,,,
,,,,,,,,,,,,,,,,a,1,1.95667,,,,,,,,tex_mid_TA/1.65_r=TA_seed=2.png,,0,,texture,a,mid,605d8056fdf44e1e528b0e7e,25,male,2021-05-03_12h09.57.988,search_v5,2021.1.2,Win32,144.1753172,,,space,0.127065,0,18,18,85,1,,,,,,,,,,,,,,,
,,,,,,,,,,,,,,,,a,0,2.095585,,,,,,,,tex_hard_TP/1.6_r=200_phi=315_seed=1.png,,1,,texture,p,hard,605d8056fdf44e1e528b0e7e,25,male,2021-05-03_12h09.57.988,search_v5,2021.1.2,Win32,144.1753172,,,space,0.197035,0,19,19,40,1,,,,,,,,,,,,,,,
,,,,,,,,,,,,,,,,a,0,1.956755,,,,,,,,tex_hard_TP/1.6_r=100_phi=270_seed=1.png,,1,,texture,p,hard,605d8056fdf44e1e528b0e7e,25,male,2021-05-03_12h09.57.988,search_v5,2021.1.2,Win32,144.1753172,,,space,0.04505,0,20,20,3,1,,,,,,,,,,,,,,,
,,,,,,,,,,,,,,,,a,1,2.1523,,,,,,,,tex_mid_TA/1.65_r=TA_seed=2.png,,0,,texture,a,mid,605d8056fdf44e1e528b0e7e,25,male,2021-05-03_12h09.57.988,search_v5,2021.1.2,Win32,144.1753172,,,space,0.298835,0,21,21,7,1,,,,,,,,,,,,,,,
,,,,,,,,,,,,,,,,p,1,0.624635,,,,,,,,tex_hard_TP/1.6_r=50_phi=135_seed=1.png,,1,,texture,p,hard,605d8056fdf44e1e528b0e7e,25,male,2021-05-03_12h09.57.988,search_v5,2021.1.2,Win32,144.1753172,,,space,0.13325,0,22,22,55,1,,,,,,,,,,,,,,,
,,,,,,,,,,,,,,,,p,1,1.49505,,,,,,,,tex_easy_TP/1.7_r=250_phi=135_seed=3.png,,1,,texture,p,easy,605d8056fdf44e1e528b0e7e,25,male,2021-05-03_12h09.57.988,search_v5,2021.1.2,Win32,144.1753172,,,space,0.155935,0,23,23,17,1,,,,,,,,,,,,,,,
,,,,,,,,,,,,,,,,a,1,1.541125,,,,,,,,tex_easy_TA/1.7_r=TA_seed=3.png,,0,,texture,a,easy,605d8056fdf44e1e528b0e7e,25,male,2021-05-03_12h09.57.988,search_v5,2021.1.2,Win32,144.1753172,,,space,0.22129,0,24,24,9,1,,,,,,,,,,,,,,,
,,,,,,,,,,,,,,,,a,0,3.651785,,,,,,,,tex_mid_TP/1.65_r=450_phi=90_seed=2.png,,1,,texture,p,mid,605d8056fdf44e1e528b0e7e,25,male,2021-05-03_12h09.57.988,search_v5,2021.1.2,Win32,144.1753172,,,space,0.09099,0,25,25,77,1,,,,,,,,,,,,,,,
,,,,,,,,,,,,,,,,a,1,2.208025,,,,,,,,tex_hard_TA/1.6_r=TA_seed=1.png,,0,,texture,a,hard,605d8056fdf44e1e528b0e7e,25,male,2021-05-03_12h09.57.988,search_v5,2021.1.2,Win32,144.1753172,,,space,0.231445,0,26,26,148,1,,,,,,,,,,,,,,,
,,,,,,,,,,,,,,,,a,1,1.76379,,,,,,,,tex_hard_TA/1.6_r=TA_seed=1.png,,0,,texture,a,hard,605d8056fdf44e1e528b0e7e,25,male,2021-05-03_12h09.57.988,search_v5,2021.1.2,Win32,144.1753172,,,space,0.164445,0,27,27,136,1,,,,,,,,,,,,,,,
,,,,,,,,,,,,,,,,a,0,1.52796,,,,,,,,tex_hard_TP/1.6_r=400_phi=315_seed=1.png,,1,,texture,p,hard,605d8056fdf44e1e528b0e7e,25,male,2021-05-03_12h09.57.988,search_v5,2021.1.2,Win32,144.1753172,,,space,0.065855,0,28,28,50,1,,,,,,,,,,,,,,,
,,,,,,,,,,,,,,,,a,1,1.67801,,,,,,,,tex_easy_TA/1.7_r=TA_seed=3.png,,0,,texture,a,easy,605d8056fdf44e1e528b0e7e,25,male,2021-05-03_12h09.57.988,search_v5,2021.1.2,Win32,144.1753172,,,space,0.29981,0,29,29,119,1,,,,,,,,,,,,,,,
,,,,,,,,,,,,,,,,a,1,1.20124,,,,,,,,tex_hard_TA/1.6_r=TA_seed=1.png,,0,,texture,a,hard,605d8056fdf44e1e528b0e7e,25,male,2021-05-03_12h09.57.988,search_v5,2021.1.2,Win32,144.1753172,,,space,0.27264,0,30,30,142,1,,,,,,,,,,,,,,,
,,,,,,,,,,,,,,,,a,1,1.603365,,,,,,,,tex_mid_TA/1.65_r=TA_seed=2.png,,0,,texture,a,mid,605d8056fdf44e1e528b0e7e,25,male,2021-05-03_12h09.57.988,search_v5,2021.1.2,Win32,144.1753172,,,space,0.241705,0,31,31,81,1,,,,,,,,,,,,,,,
,,,,,,,,,,,,,,,,a,1,1.58708,,,,,,,,tex_easy_TA/1.7_r=TA_seed=3.png,,0,,texture,a,easy,605d8056fdf44e1e528b0e7e,25,male,2021-05-03_12h09.57.988,search_v5,2021.1.2,Win32,144.1753172,,,space,0.39119,0,32,32,121,1,,,,,,,,,,,,,,,
,,,,,,,,,,,,,,,,p,1,0.54654,,,,,,,,tex_mid_TP/1.65_r=50_phi=315_seed=2.png,,1,,texture,p,mid,605d8056fdf44e1e528b0e7e,25,male,2021-05-03_12h09.57.988,search_v5,2021.1.2,Win32,144.1753172,,,space,0.132055,0,33,33,79,1,,,,,,,,,,,,,,,
,,,,,,,,,,,,,,,,a,1,1.04825,,,,,,,,tex_mid_TA/1.65_r=TA_seed=2.png,,0,,texture,a,mid,605d8056fdf44e1e528b0e7e,25,male,2021-05-03_12h09.57.988,search_v5,2021.1.2,Win32,144.1753172,,,space,0.21831,0,34,34,92,1,,,,,,,,,,,,,,,
,,,,,,,,,,,,,,,,p,1,0.52952,,,,,,,,tex_easy_TP/1.7_r=300_phi=135_seed=3.png,,1,,texture,p,easy,605d8056fdf44e1e528b0e7e,25,male,2021-05-03_12h09.57.988,search_v5,2021.1.2,Win32,144.1753172,,,space,0.132585,0,35,35,21,1,,,,,,,,,,,,,,,
,,,,,,,,,,,,,,,,a,1,0.83494,,,,,,,,tex_mid_TA/1.65_r=TA_seed=2.png,,0,,texture,a,mid,605d8056fdf44e1e528b0e7e,25,male,2021-05-03_12h09.57.988,search_v5,2021.1.2,Win32,144.1753172,,,space,0.22465,0,36,36,103,1,,,,,,,,,,,,,,,
,,,,,,,,,,,,,,,,a,1,1.201275,,,,,,,,tex_hard_TA/1.6_r=TA_seed=1.png,,0,,texture,a,hard,605d8056fdf44e1e528b0e7e,25,male,2021-05-03_12h09.57.988,search_v5,2021.1.2,Win32,144.1753172,,,space,0.237375,0,37,37,130,1,,,,,,,,,,,,,,,
,,,,,,,,,,,,,,,,a,1,0.867135,,,,,,,,tex_hard_TA/1.6_r=TA_seed=1.png,,0,,texture,a,hard,605d8056fdf44e1e528b0e7e,25,male,2021-05-03_12h09.57.988,search_v5,2021.1.2,Win32,144.1753172,,,space,0.1951,0,38,38,135,1,,,,,,,,,,,,,,,
,,,,,,,,,,,,,,,,a,0,0.64916,,,,,,,,tex_mid_TP/1.65_r=250_phi=225_seed=2.png,,1,,texture,p,mid,605d8056fdf44e1e528b0e7e,25,male,2021-05-03_12h09.57.988,search_v5,2021.1.2,Win32,144.1753172,,,space,1.52104,0,39,39,64,1,,,,,,,,,,,,,,,
,,,,,,,,,,,,,,,,a,0,2.12379,,,,,,,,tex_mid_TP/1.65_r=250_phi=180_seed=2.png,,1,,texture,p,mid,605d8056fdf44e1e528b0e7e,25,male,2021-05-03_12h09.57.988,search_v5,2021.1.2,Win32,144.1753172,,,space,1.389345,0,40,40,63,1,,,,,,,,,,,,,,,
,,,,,,,,,,,,,,,,p,1,1.04763,,,,,,,,tex_easy_TP/1.7_r=200_phi=225_seed=3.png,,1,,texture,p,easy,605d8056fdf44e1e528b0e7e,25,male,2021-05-03_12h09.57.988,search_v5,2021.1.2,Win32,144.1753172,,,space,0.10594,0,41,41,14,1,,,,,,,,,,,,,,,
,,,,,,,,,,,,,,,,a,1,1.295275,,,,,,,,tex_mid_TA/1.65_r=TA_seed=2.png,,0,,texture,a,mid,605d8056fdf44e1e528b0e7e,25,male,2021-05-03_12h09.57.988,search_v5,2021.1.2,Win32,144.1753172,,,space,0.459135,0,42,42,94,1,,,,,,,,,,,,,,,
,,,,,,,,,,,,,,,,a,0,1.27078,,,,,,,,tex_easy_TP/1.7_r=350_phi=135_seed=3.png,,1,,texture,p,easy,605d8056fdf44e1e528b0e7e,25,male,2021-05-03_12h09.57.988,search_v5,2021.1.2,Win32,144.1753172,,,space,1.04198,0,43,43,24,1,,,,,,,,,,,,,,,
,,,,,,,,,,,,,,,,a,1,1.167435,,,,,,,,tex_easy_TA/1.7_r=TA_seed=3.png,,0,,texture,a,easy,605d8056fdf44e1e528b0e7e,25,male,2021-05-03_12h09.57.988,search_v5,2021.1.2,Win32,144.1753172,,,space,0.264245,0,44,44,109,1,,,,,,,,,,,,,,,
,,,,,,,,,,,,,,,,a,1,1.221205,,,,,,,,tex_mid_TA/1.65_r=TA_seed=2.png,,0,,texture,a,mid,605d8056fdf44e1e528b0e7e,25,male,2021-05-03_12h09.57.988,search_v5,2021.1.2,Win32,144.1753172,,,space,0.231435,0,45,45,100,1,,,,,,,,,,,,,,,
,,,,,,,,,,,,,,,,a,0,1.884845,,,,,,,,tex_mid_TP/1.65_r=400_phi=0_seed=2.png,,1,,texture,p,mid,605d8056fdf44e1e528b0e7e,25,male,2021-05-03_12h09.57.988,search_v5,2021.1.2,Win32,144.1753172,,,space,1.29658,0,46,46,72,1,,,,,,,,,,,,,,,
,,,,,,,,,,,,,,,,a,1,2.377305,,,,,,,,tex_easy_TA/1.7_r=TA_seed=3.png,,0,,texture,a,easy,605d8056fdf44e1e528b0e7e,25,male,2021-05-03_12h09.57.988,search_v5,2021.1.2,Win32,144.1753172,,,space,0.34847,0,47,47,113,1,,,,,,,,,,,,,,,
,,,,,,,,,,,,,,,,a,1,1.487915,,,,,,,,tex_easy_TA/1.7_r=TA_seed=3.png,,0,,texture,a,easy,605d8056fdf44e1e528b0e7e,25,male,2021-05-03_12h09.57.988,search_v5,2021.1.2,Win32,144.1753172,,,space,0.28607,0,48,48,126,1,,,,,,,,,,,,,,,
,,,,,,,,,,,,,,,,p,1,0.915515,,,,,,,,tex_easy_TP/1.7_r=450_phi=225_seed=3.png,,1,,texture,p,easy,605d8056fdf44e1e528b0e7e,25,male,2021-05-03_12h09.57.988,search_v5,2021.1.2,Win32,144.1753172,,,space,0.118215,0,49,49,33,1,,,,,,,,,,,,,,,
,,,,,,,,,,,,,,,,a,1,1.91419,,,,,,,,tex_easy_TA/1.7_r=TA_seed=3.png,,0,,texture,a,easy,605d8056fdf44e1e528b0e7e,25,male,2021-05-03_12h09.57.988,search_v5,2021.1.2,Win32,144.1753172,,,space,0.11299,0,50,50,104,1,,,,,,,,,,,,,,,
,,,,,,,,,,,,,,,,a,0,1.63154,,,,,,,,tex_hard_TP/1.6_r=150_phi=90_seed=1.png,,1,,texture,p,hard,605d8056fdf44e1e528b0e7e,25,male,2021-05-03_12h09.57.988,search_v5,2021.1.2,Win32,144.1753172,,,space,0.26512,0,51,51,37,1,,,,,,,,,,,,,,,
,,,,,,,,,,,,,,,,p,0,0.687625,,,,,,,,tex_hard_TA/1.6_r=TA_seed=1.png,,0,,texture,a,hard,605d8056fdf44e1e528b0e7e,25,male,2021-05-03_12h09.57.988,search_v5,2021.1.2,Win32,144.1753172,,,space,0.49017,0,52,52,144,1,,,,,,,,,,,,,,,
,,,,,,,,,,,,,,,,a,0,1.6521,,,,,,,,tex_hard_TP/1.6_r=250_phi=225_seed=1.png,,1,,texture,p,hard,605d8056fdf44e1e528b0e7e,25,male,2021-05-03_12h09.57.988,search_v5,2021.1.2,Win32,144.1753172,,,space,0.458835,0,53,53,42,1,,,,,,,,,,,,,,,
,,,,,,,,,,,,,,,,a,1,2.947185,,,,,,,,tex_mid_TA/1.65_r=TA_seed=2.png,,0,,texture,a,mid,605d8056fdf44e1e528b0e7e,25,male,2021-05-03_12h09.57.988,search_v5,2021.1.2,Win32,144.1753172,,,space,0.325535,0,54,54,98,1,,,,,,,,,,,,,,,
,,,,,,,,,,,,,,,,a,0,9.922505,,,,,,,,tex_easy_TP/1.7_r=350_phi=90_seed=3.png,,1,,texture,p,easy,605d8056fdf44e1e528b0e7e,25,male,2021-05-03_12h09.57.988,search_v5,2021.1.2,Win32,144.1753172,,,space,0.037215,0,55,55,27,1,,,,,,,,,,,,,,,
,,,,,,,,,,,,,,,,a,1,1.8759,,,,,,,,tex_hard_TA/1.6_r=TA_seed=1.png,,0,,texture,a,hard,605d8056fdf44e1e528b0e7e,25,male,2021-05-03_12h09.57.988,search_v5,2021.1.2,Win32,144.1753172,,,space,0.59299,0,56,56,11,1,,,,,,,,,,,,,,,
,,,,,,,,,,,,,,,,a,0,1.03656,,,,,,,,tex_hard_TP/1.6_r=400_phi=225_seed=1.png,,1,,texture,p,hard,605d8056fdf44e1e528b0e7e,25,male,2021-05-03_12h09.57.988,search_v5,2021.1.2,Win32,144.1753172,,,space,0.493085,0,57,57,49,1,,,,,,,,,,,,,,,
,,,,,,,,,,,,,,,,p,1,1.079325,,,,,,,,tex_hard_TP/1.6_r=50_phi=225_seed=1.png,,1,,texture,p,hard,605d8056fdf44e1e528b0e7e,25,male,2021-05-03_12h09.57.988,search_v5,2021.1.2,Win32,144.1753172,,,space,0.07711,0,58,58,56,1,,,,,,,,,,,,,,,
,,,,,,,,,,,,,,,,p,1,0.63578,,,,,,,,tex_easy_TP/1.7_r=200_phi=135_seed=3.png,,1,,texture,p,easy,605d8056fdf44e1e528b0e7e,25,male,2021-05-03_12h09.57.988,search_v5,2021.1.2,Win32,144.1753172,,,space,0.067665,0,59,59,13,1,,,,,,,,,,,,,,,
,,,,,,,,,,,,,,,,a,1,2.937865,,,,,,,,tex_easy_TA/1.7_r=TA_seed=3.png,,0,,texture,a,easy,605d8056fdf44e1e528b0e7e,25,male,2021-05-03_12h09.57.988,search_v5,2021.1.2,Win32,144.1753172,,,space,0.195,0,60,60,105,1,,,,,,,,,,,,,,,
,,,,,,,,,,,,,,,,a,0,1.678655,,,,,,,,tex_hard_TP/1.6_r=250_phi=315_seed=1.png,,1,,texture,p,hard,605d8056fdf44e1e528b0e7e,25,male,2021-05-03_12h09.57.988,search_v5,2021.1.2,Win32,144.1753172,,,space,0.514775,0,61,61,43,1,,,,,,,,,,,,,,,
,,,,,,,,,,,,,,,,p,1,1.26229,,,,,,,,tex_mid_TP/1.65_r=250_phi=45_seed=2.png,,1,,texture,p,mid,605d8056fdf44e1e528b0e7e,25,male,2021-05-03_12h09.57.988,search_v5,2021.1.2,Win32,144.1753172,,,space,0.116095,0,62,62,65,1,,,,,,,,,,,,,,,
,,,,,,,,,,,,,,,,a,1,2.10533,,,,,,,,tex_mid_TA/1.65_r=TA_seed=2.png,,0,,texture,a,mid,605d8056fdf44e1e528b0e7e,25,male,2021-05-03_12h09.57.988,search_v5,2021.1.2,Win32,144.1753172,,,space,0.157935,0,63,63,91,1,,,,,,,,,,,,,,,
,,,,,,,,,,,,,,,,a,0,1.44485,,,,,,,,tex_hard_TP/1.6_r=450_phi=315_seed=1.png,,1,,texture,p,hard,605d8056fdf44e1e528b0e7e,25,male,2021-05-03_12h09.57.988,search_v5,2021.1.2,Win32,144.1753172,,,space,0.2488,0,64,64,53,1,,,,,,,,,,,,,,,
,,,,,,,,,,,,,,,,a,0,2.095255,,,,,,,,tex_mid_TP/1.65_r=450_phi=135_seed=2.png,,1,,texture,p,mid,605d8056fdf44e1e528b0e7e,25,male,2021-05-03_12h09.57.988,search_v5,2021.1.2,Win32,144.1753172,,,space,0.50709,0,65,65,76,1,,,,,,,,,,,,,,,
,,,,,,,,,,,,,,,,a,1,1.31868,,,,,,,,tex_hard_TA/1.6_r=TA_seed=1.png,,0,,texture,a,hard,605d8056fdf44e1e528b0e7e,25,male,2021-05-03_12h09.57.988,search_v5,2021.1.2,Win32,144.1753172,,,space,0.299545,0,66,66,127,1,,,,,,,,,,,,,,,
,,,,,,,,,,,,,,,,a,1,2.80137,,,,,,,,tex_easy_TA/1.7_r=TA_seed=3.png,,0,,texture,a,easy,605d8056fdf44e1e528b0e7e,25,male,2021-05-03_12h09.57.988,search_v5,2021.1.2,Win32,144.1753172,,,space,0.281775,0,67,67,110,1,,,,,,,,,,,,,,,
,,,,,,,,,,,,,,,,a,1,2.28401,,,,,,,,tex_easy_TA/1.7_r=TA_seed=3.png,,0,,texture,a,easy,605d8056fdf44e1e528b0e7e,25,male,2021-05-03_12h09.57.988,search_v5,2021.1.2,Win32,144.1753172,,,space,0.2742,0,68,68,112,1,,,,,,,,,,,,,,,
,,,,,,,,,,,,,,,,p,1,1.17917,,,,,,,,tex_mid_TP/1.65_r=350_phi=90_seed=2.png,,1,,texture,p,mid,605d8056fdf44e1e528b0e7e,25,male,2021-05-03_12h09.57.988,search_v5,2021.1.2,Win32,144.1753172,,,space,0.132215,0,69,69,71,1,,,,,,,,,,,,,,,
,,,,,,,,,,,,,,,,a,1,2.345715,,,,,,,,tex_mid_TA/1.65_r=TA_seed=2.png,,0,,texture,a,mid,605d8056fdf44e1e528b0e7e,25,male,2021-05-03_12h09.57.988,search_v5,2021.1.2,Win32,144.1753172,,,space,0.291505,0,70,70,82,1,,,,,,,,,,,,,,,
,,,,,,,,,,,,,,,,p,1,0.638555,,,,,,,,tex_hard_TP/1.6_r=200_phi=225_seed=1.png,,1,,texture,p,hard,605d8056fdf44e1e528b0e7e,25,male,2021-05-03_12h09.57.988,search_v5,2021.1.2,Win32,144.1753172,,,space,0.13693,0,71,71,39,1,,,,,,,,,,,,,,,
,,,,,,,,,,,,,,,,a,0,2.42907,,,,,,,,tex_hard_TP/1.6_r=400_phi=90_seed=1.png,,1,,texture,p,hard,605d8056fdf44e1e528b0e7e,25,male,2021-05-03_12h09.57.988,search_v5,2021.1.2,Win32,144.1753172,,,space,0.175675,0,72,72,51,1,,,,,,,,,,,,,,,
,,,,,,,,,,,,,,,,a,1,1.862095,,,,,,,,tex_easy_TA/1.7_r=TA_seed=3.png,,0,,texture,a,easy,605d8056fdf44e1e528b0e7e,25,male,2021-05-03_12h09.57.988,search_v5,2021.1.2,Win32,144.1753172,,,space,0.33851,0,73,73,111,1,,,,,,,,,,,,,,,
,,,,,,,,,,,,,,,,a,0,1.825005,,,,,,,,tex_hard_TP/1.6_r=300_phi=225_seed=1.png,,1,,texture,p,hard,605d8056fdf44e1e528b0e7e,25,male,2021-05-03_12h09.57.988,search_v5,2021.1.2,Win32,144.1753172,,,space,1.115475,0,74,74,44,1,,,,,,,,,,,,,,,
,,,,,,,,,,,,,,,,p,1,2.90898,,,,,,,,tex_hard_TP/1.6_r=100_phi=0_seed=1.png,,1,,texture,p,hard,605d8056fdf44e1e528b0e7e,25,male,2021-05-03_12h09.57.988,search_v5,2021.1.2,Win32,144.1753172,,,space,0.16016,0,75,75,2,1,,,,,,,,,,,,,,,
,,,,,,,,,,,,,,,,a,1,1.9913,,,,,,,,tex_mid_TA/1.65_r=TA_seed=2.png,,0,,texture,a,mid,605d8056fdf44e1e528b0e7e,25,male,2021-05-03_12h09.57.988,search_v5,2021.1.2,Win32,144.1753172,,,space,0.279225,0,76,76,101,1,,,,,,,,,,,,,,,
,,,,,,,,,,,,,,,,p,1,0.617385,,,,,,,,tex_easy_TP/1.7_r=350_phi=225_seed=3.png,,1,,texture,p,easy,605d8056fdf44e1e528b0e7e,25,male,2021-05-03_12h09.57.988,search_v5,2021.1.2,Win32,144.1753172,,,space,0.145945,0,77,77,25,1,,,,,,,,,,,,,,,
,,,,,,,,,,,,,,,,a,1,1.777295,,,,,,,,tex_easy_TA/1.7_r=TA_seed=3.png,,0,,texture,a,easy,605d8056fdf44e1e528b0e7e,25,male,2021-05-03_12h09.57.988,search_v5,2021.1.2,Win32,144.1753172,,,space,0.28829,0,78,78,125,1,,,,,,,,,,,,,,,
,,,,,,,,,,,,,,,,a,1,1.50821,,,,,,,,tex_mid_TA/1.65_r=TA_seed=2.png,,0,,texture,a,mid,605d8056fdf44e1e528b0e7e,25,male,2021-05-03_12h09.57.988,search_v5,2021.1.2,Win32,144.1753172,,,space,0.208775,0,79,79,96,1,,,,,,,,,,,,,,,
,,,,,,,,,,,,,,,,a,1,1.487245,,,,,,,,tex_hard_TA/1.6_r=TA_seed=1.png,,0,,texture,a,hard,605d8056fdf44e1e528b0e7e,25,male,2021-05-03_12h09.57.988,search_v5,2021.1.2,Win32,144.1753172,,,space,0.27418,0,80,80,147,1,,,,,,,,,,,,,,,
,,,,,,,,,,,,,,,,a,0,0.94511,,,,,,,,tex_mid_TP/1.65_r=350_phi=0_seed=2.png,,1,,texture,p,mid,605d8056fdf44e1e528b0e7e,25,male,2021-05-03_12h09.57.988,search_v5,2021.1.2,Win32,144.1753172,,,space,1.11312,0,81,81,70,1,,,,,,,,,,,,,,,
,,,,,,,,,,,,,,,,a,1,1.73237,,,,,,,,tex_easy_TA/1.7_r=TA_seed=3.png,,0,,texture,a,easy,605d8056fdf44e1e528b0e7e,25,male,2021-05-03_12h09.57.988,search_v5,2021.1.2,Win32,144.1753172,,,space,0.326805,0,82,82,114,1,,,,,,,,,,,,,,,
,,,,,,,,,,,,,,,,a,0,1.793805,,,,,,,,tex_hard_TP/1.6_r=250_phi=135_seed=1.png,,1,,texture,p,hard,605d8056fdf44e1e528b0e7e,25,male,2021-05-03_12h09.57.988,search_v5,2021.1.2,Win32,144.1753172,,,space,0.793895,0,83,83,41,1,,,,,,,,,,,,,,,
,,,,,,,,,,,,,,,,a,1,2.163995,,,,,,,,tex_easy_TA/1.7_r=TA_seed=3.png,,0,,texture,a,easy,605d8056fdf44e1e528b0e7e,25,male,2021-05-03_12h09.57.988,search_v5,2021.1.2,Win32,144.1753172,,,space,0.298575,0,84,84,107,1,,,,,,,,,,,,,,,
,,,,,,,,,,,,,,,,p,1,0.7671,,,,,,,,tex_easy_TP/1.7_r=350_phi=315_seed=3.png,,1,,texture,p,easy,605d8056fdf44e1e528b0e7e,25,male,2021-05-03_12h09.57.988,search_v5,2021.1.2,Win32,144.1753172,,,space,0.20712,0,85,85,26,1,,,,,,,,,,,,,,,
,,,,,,,,,,,,,,,,p,1,0.536105,,,,,,,,tex_easy_TP/1.7_r=150_phi=225_seed=3.png,,1,,texture,p,easy,605d8056fdf44e1e528b0e7e,25,male,2021-05-03_12h09.57.988,search_v5,2021.1.2,Win32,144.1753172,,,space,0.11736,0,86,86,0,1,,,,,,,,,,,,,,,
,,,,,,,,,,,,,,,,p,1,0.473255,,,,,,,,tex_mid_TP/1.65_r=200_phi=225_seed=2.png,,1,,texture,p,mid,605d8056fdf44e1e528b0e7e,25,male,2021-05-03_12h09.57.988,search_v5,2021.1.2,Win32,144.1753172,,,space,0.09653,0,87,87,60,1,,,,,,,,,,,,,,,
,,,,,,,,,,,,,,,,p,1,0.765455,,,,,,,,tex_easy_TP/1.7_r=250_phi=90_seed=3.png,,1,,texture,p,easy,605d8056fdf44e1e528b0e7e,25,male,2021-05-03_12h09.57.988,search_v5,2021.1.2,Win32,144.1753172,,,space,0.144525,0,88,88,20,1,,,,,,,,,,,,,,,
